onset	duration	eventnumber	hunger_condition	stimfilename	blockno	trialno	is_faststream	stim	food_idx	letter	letter_idx	istarget	image_number	response	keypressed	rt	correct	time_stimon	time_stimoff
17590	0.099962400039658	0	hunger	stimuli/foods\cauliflower.jpg	1	1	1	cauliflower	1	S	13	0	20	0		0	0	93.5951424000086	93.6951048000483
17627.5	0.100035500014201	1	hunger	stimuli/foods\cooked_prawn.jpg	1	1	1	cooked_prawn	1	G	4	0	36	0		0	0	93.7451231000014	93.8451586000156
17665	0.0999798999982886	2	hunger	stimuli/non_foods\non-food_inanimate_padlock.jpg	1	1	1	non-food_inanimate_padlock	0	S	13	0	199	0		0	0	93.8951225000201	93.9951024000184
17702.5	0.0999885000055656	3	hunger	stimuli/non_foods\non-food_animate_pigeon.jpg	1	1	1	non-food_animate_pigeon	0	C	1	0	136	0		0	0	94.0451146000414	94.145103100047
17740	0.09999830002198	4	hunger	stimuli/foods\lemon.jpg	1	1	1	lemon	1	K	7	0	72	0		0	0	94.1951152000111	94.295113500033
17777.5	0.0999775999807753	5	hunger	stimuli/non_foods\non-food_inanimate_nest.jpg	1	1	1	non-food_inanimate_nest	0	N	10	0	196	0		0	0	94.3451232000371	94.4451008000178
17815	0.0999823000165634	6	hunger	stimuli/non_foods\non-food_inanimate_guitar.jpg	1	1	1	non-food_inanimate_guitar	0	W	16	0	185	0		0	0	94.4951166000101	94.5950989000266
17852.5	0.0999927999801002	7	hunger	stimuli/foods\potatoes.jpg	1	1	1	potatoes	1	K	7	0	248	0		0	0	94.6451095000375	94.7451023000176
17890	0.0999853999819607	8	hunger	stimuli/non_foods\non-food_animate_cow.jpg	1	1	1	non-food_animate_cow	0	J	6	0	103	0		0	0	94.795131800056	94.8951172000379
17927.5	0.099945200025104	9	hunger	stimuli/foods\mango.jpg	1	1	1	mango	1	V	15	0	80	0		0	0	94.9451476000249	95.04509280005
17965	0.0999749000184238	10	hunger	stimuli/foods\fruit_salad.jpg	1	1	1	fruit_salad	1	L	8	0	55	0		0	0	95.0951189000043	95.1950938000227
18002.5	0.0999875999987125	11	hunger	stimuli/foods\croissant.jpg	1	1	1	croissant	1	B	0	0	40	0		0	0	95.2451074000564	95.3450950000552
18040	0.0999854999827221	12	hunger	stimuli/foods\potato_and_green_bean_salad.jpg	1	1	1	potato_and_green_bean_salad	1	F	3	0	246	0		0	0	95.3951083000284	95.4950938000111
18077.5	0.0997964999987744	13	hunger	stimuli/non_foods\non-food_animate_gorilla.jpg	1	1	1	non-food_animate_gorilla	0	P	11	0	116	0		0	0	95.5452966000303	95.645093100029
18115	0.0999815000104718	14	hunger	stimuli/foods\pepperoni_pizza.jpg	1	1	1	pepperoni_pizza	1	H	5	0	241	0		0	0	95.695110700035	95.7950922000455
18152.5	0.100000599981286	15	hunger	stimuli/non_foods\non-food_animate_bat.jpg	1	1	1	non-food_animate_bat	0	P	11	0	94	0		0	0	95.8451002000365	95.9451008000178
18190	0.100024099985603	16	hunger	stimuli/non_foods\non-food_inanimate_nailpolish.jpg	1	1	1	non-food_inanimate_nailpolish	0	T	14	0	195	0		0	0	95.995091000048	96.0951151000336
18227.5	0.0999734000070021	17	hunger	stimuli/non_foods\non-food_animate_duck.jpg	1	1	1	non-food_animate_duck	0	C	1	0	109	0		0	0	96.1451144000166	96.2450878000236
18265	0.0999835999682546	18	hunger	stimuli/non_foods\non-food_animate_peacock.jpg	1	1	1	non-food_animate_peacock	0	F	3	0	134	0		0	0	96.2951004000497	96.395084000018
18302.5	0.0999906999641098	19	hunger	stimuli/non_foods\non-food_inanimate_fire_extinguisher.jpg	1	1	1	non-food_inanimate_fire_extinguisher	0	P	11	0	181	0		0	0	96.4450970000471	96.5450877000112
18340	0.100013600022066	20	hunger	stimuli/foods\green_olives.jpg	1	1	1	green_olives	1	Z	18	0	62	0		0	0	96.595097500016	96.695111100038
18377.5	0.0999432999524288	21	hunger	stimuli/non_foods\non-food_inanimate_chandelier.jpg	1	1	1	non-food_inanimate_chandelier	0	X	17	0	173	0		0	0	96.7451376000536	96.845080900006
18415	0.0999963999493048	22	hunger	stimuli/non_foods\non-food_animate_polar_bear.jpg	1	1	1	non-food_animate_polar_bear	0	S	13	0	137	0		0	0	96.8950961000519	96.9950925000012
18452.5	0.0999848999781534	23	hunger	stimuli/foods\pickles.jpg	1	1	1	pickles	1	G	4	0	242	0		0	0	97.0451062000357	97.1450911000138
18490	0.0999787999899127	24	hunger	stimuli/non_foods\non-food_inanimate_ring.jpg	1	1	1	non-food_inanimate_ring	0	S	13	0	203	0		0	0	97.1951035000384	97.2950823000283
18527.5	0.0999895000131801	25	hunger	stimuli/non_foods\non-food_inanimate_towel.jpg	1	1	1	non-food_inanimate_towel	0	V	15	0	221	0		0	0	97.3450908000232	97.4450803000364
18565	0.0999834000249393	26	hunger	stimuli/foods\salmon.jpg	1	1	1	salmon	1	X	17	0	264	0		0	0	97.4950940000126	97.5950774000376
18602.5	0.0999894999549724	27	hunger	stimuli/foods\rockmelon.jpg	1	1	1	rockmelon	1	Z	18	0	262	0		0	0	97.6450876000454	97.7450771000003
18640	0.0999861000454985	28	hunger	stimuli/non_foods\non-food_animate_rhino.jpg	1	1	1	non-food_animate_rhino	0	V	15	0	141	0		0	0	97.7951022000052	97.8950883000507
18677.5	0.0999807000043802	29	hunger	stimuli/non_foods\non-food_inanimate_headphones.jpg	1	1	1	non-food_inanimate_headphones	0	N	10	0	188	0		0	0	97.9450987000018	98.0450794000062
18715	0.0999869999941438	30	hunger	stimuli/non_foods\non-food_inanimate_alarm_clock.jpg	1	1	1	non-food_inanimate_alarm_clock	0	K	7	0	158	0		0	0	98.0950859000441	98.1950729000382
18752.5	0.099988600006327	31	hunger	stimuli/foods\grapes.jpg	1	1	1	grapes	1	X	17	0	60	0		0	0	98.2450833000476	98.3450719000539
18790	0.0999867999926209	32	hunger	stimuli/foods\swordfish.jpg	1	1	1	swordfish	1	J	6	0	273	0		0	0	98.3950889000553	98.4950757000479
18827.5	0.0999783999868669	33	hunger	stimuli/foods\apricot.jpg	1	1	1	apricot	1	L	8	0	2	0		0	0	98.545104400022	98.6450828000088
18865	0.0999726000009105	34	hunger	stimuli/foods\pancakes.jpg	1	1	1	pancakes	1	Z	18	0	234	0		0	0	98.6950957000372	98.7950683000381
18902.5	0.0999857999850065	35	hunger	stimuli/non_foods\non-food_animate_yellow_bug.jpg	1	1	1	non-food_animate_yellow_bug	0	L	8	0	155	0		0	0	98.8450779000414	98.9450637000264
18940	0.0999786999891512	36	hunger	stimuli/non_foods\non-food_animate_ram.jpg	1	1	1	non-food_animate_ram	0	D	2	0	140	0		0	0	98.9950938000111	99.0950725000002
18977.5	0.0999911999679171	37	hunger	stimuli/foods\banana.jpg	1	1	1	banana	1	N	10	0	9	0		0	0	99.1450872000423	99.2450784000102
19015	0.0999880000017583	38	hunger	stimuli/non_foods\non-food_animate_Asian_man.jpg	1	1	1	non-food_animate_Asian_man	0	X	17	0	88	0		0	0	99.2950792000047	99.3950672000065
19052.5	0.0999851999804378	39	hunger	stimuli/foods\raw_sausage.jpg	1	1	1	raw_sausage	1	N	10	0	254	0		0	0	99.4450799000333	99.5450651000137
19090	0.0999548999825493	40	hunger	stimuli/foods\baked_cod_with_carrots_and_green_beans.jpg	1	1	1	baked_cod_with_carrots_and_green_beans	1	M	9	0	7	0		0	0	99.595110400056	99.6950653000386
19127.5	0.0999672999605536	41	hunger	stimuli/non_foods\non-food_animate_grasshopper.jpg	1	1	1	non-food_animate_grasshopper	0	T	14	0	117	0		0	0	99.745091000048	99.8450583000085
19165	0.099973600008525	42	hunger	stimuli/non_foods\non-food_animate_dragonfly.jpg	1	1	1	non-food_animate_dragonfly	0	L	8	0	108	0		0	0	99.8950853000279	99.9950589000364
19202.5	0.0999901999603026	43	hunger	stimuli/foods\meatballs.jpg	1	1	1	meatballs	1	T	14	0	81	0		0	0	100.045070200053	100.145060400013
19240	0.100018199998885	44	hunger	stimuli/foods\green_beans.jpg	1	1	1	green_beans	1	J	6	0	61	0		0	0	100.195090200054	100.295108400052
19277.5	0.0999727000016719	45	hunger	stimuli/foods\clams.jpg	1	1	1	clams	1	C	1	0	32	0		0	0	100.345083300024	100.445056000026
19315	0.0999832999659702	46	hunger	stimuli/non_foods\non-food_inanimate_clover.jpg	1	1	1	non-food_inanimate_clover	0	N	10	0	174	0		0	0	100.495074100036	100.595057400002
19352.5	0.0999792999937199	47	hunger	stimuli/foods\fried_zucchini.jpg	1	1	1	fried_zucchini	1	J	6	0	51	0		0	0	100.645079100039	100.745058400033
19390	0.0999809000059031	48	hunger	stimuli/non_foods\non-food_inanimate_teddy_bear.jpg	1	1	1	non-food_inanimate_teddy_bear	0	V	15	0	218	0		0	0	100.795072100009	100.895053000015
19427.5	0.0999829000211321	49	hunger	stimuli/non_foods\non-food_inanimate_rope.jpg	1	1	1	non-food_inanimate_rope	0	B	0	0	204	0		0	0	100.945068400004	101.045051300025
19465	0.0999869999941438	50	hunger	stimuli/non_foods\non-food_animate_butterfly.jpg	1	1	1	non-food_animate_butterfly	0	C	1	0	96	0		0	0	101.095065700007	101.195052700001
19502.5	0.0999974000151269	51	hunger	stimuli/foods\red_cabbage.jpg	1	1	1	red_cabbage	1	L	8	0	256	0		0	0	101.245064300019	101.345061700034
19540	0.0999541000346653	52	hunger	stimuli/non_foods\non-food_animate_horse.jpg	1	1	1	non-food_animate_horse	0	C	1	0	119	0		0	0	101.395097400004	101.495051500038
19577.5	0.0999825999606401	53	hunger	stimuli/foods\steak.jpg	1	1	1	steak	1	X	17	0	270	0		0	0	101.545062100049	101.64504470001
19615	0.0999999000341631	54	hunger	stimuli/non_foods\non-food_inanimate_broom.jpg	1	1	1	non-food_inanimate_broom	0	K	7	0	164	0		0	0	101.695061400009	101.795061300043
19652.5	0.099978199985344	55	hunger	stimuli/foods\hotdog.jpg	1	1	1	hotdog	1	Z	18	0	67	0		0	0	101.845070800046	101.945049000031
19690	0.0999472999828868	56	hunger	stimuli/non_foods\non-food_animate_camel.jpg	1	1	1	non-food_animate_camel	0	N	10	0	97	0		0	0	101.995095300023	102.095042600005
19727.5	0.0999783999868669	57	hunger	stimuli/non_foods\non-food_inanimate_cupboard.jpg	1	1	1	non-food_inanimate_cupboard	0	T	14	0	177	0		0	0	102.145077000023	102.24505540001
19765	0.0999876000569202	58	hunger	stimuli/non_foods\non-food_animate_tortoise.jpg	1	1	1	non-food_animate_tortoise	0	M	9	0	153	0		0	0	102.2950557	102.395043300057
19802.5	0.100001600047108	59	hunger	stimuli/foods\stew_with_potatoes_and_carrots.jpg	1	1	1	stew_with_potatoes_and_carrots	1	D	2	0	271	0		0	0	102.445053400006	102.545055000053
19840	0.099987699999474	60	hunger	stimuli/non_foods\non-food_animate_Causasian_man.jpg	1	1	1	non-food_animate_Causasian_man	0	W	16	0	89	0		0	0	102.595055400045	102.695043100044
19877.5	0.0999873999971896	61	hunger	stimuli/foods\blackberry.jpg	1	1	1	blackberry	1	H	5	0	11	0		0	0	102.745053700055	102.845041100052
19915	0.0999967000097968	62	hunger	stimuli/foods\cereal.jpg	1	1	1	cereal	1	S	13	0	22	0		0	0	102.895052800013	102.995049500023
19952.5	0.0999920999747701	63	hunger	stimuli/foods\chocolate_bar.jpg	1	1	1	chocolate_bar	1	I	21	1	26	0		0	0	103.045047500054	103.145039600029
19990	0.100006300024688	64	hunger	stimuli/non_foods\non-food_inanimate_drum_set.jpg	1	1	1	non-food_inanimate_drum_set	0	B	0	0	179	0		0	0	103.195064400032	103.295070700056
20027.5	0.0999961000052281	65	hunger	stimuli/non_foods\non-food_animate_deer.jpg	1	1	1	non-food_animate_deer	0	L	8	0	105	0		0	0	103.34504850005	103.445044600056
20065	0.0999833999667317	66	hunger	stimuli/non_foods\non-food_inanimate_leaf.jpg	1	1	1	non-food_inanimate_leaf	0	K	7	0	192	0		0	0	103.495061200054	103.595044600021
20102.5	0.0999816000112332	67	hunger	stimuli/non_foods\non-food_inanimate_skateboard.jpg	1	1	1	non-food_inanimate_skateboard	0	B	0	0	208	1	a	0.593280899978708	1	103.645062100026	103.745043700037
20140	0.0999684000271372	68	hunger	stimuli/non_foods\non-food_inanimate_suitcase.jpg	1	1	1	non-food_inanimate_suitcase	0	D	2	0	215	0		0	0	103.795064400008	103.895032800036
20177.5	0.0999785999883898	69	hunger	stimuli/non_foods\non-food_animate_eagle.jpg	1	1	1	non-food_animate_eagle	0	R	12	0	110	0		0	0	103.945048000023	104.045026600012
20215	0.0999927999801002	70	hunger	stimuli/non_foods\non-food_inanimate_sun_flower.jpg	1	1	1	non-food_inanimate_sun_flower	0	B	0	0	216	0		0	0	104.095046300034	104.195039100014
20252.5	0.100001400045585	71	hunger	stimuli/foods\potato_chips.jpg	1	1	1	potato_chips	1	R	12	0	247	0		0	0	104.245039700007	104.345041100052
20290	0.0999830000218935	72	hunger	stimuli/foods\savory_pie.jpg	1	1	1	savory_pie	1	T	14	0	265	0		0	0	104.395055700035	104.495038700057
20327.5	0.0999861999880522	73	hunger	stimuli/foods\almonds.jpg	1	1	1	almonds	1	Z	18	0	0	0		0	0	104.545039000048	104.645025200036
20365	0.0999874999979511	74	hunger	stimuli/foods\peach.jpg	1	1	1	peach	1	L	8	0	238	0		0	0	104.695041800034	104.795029300032
20402.5	0.0999955000006594	75	hunger	stimuli/foods\smoked_ham.jpg	1	1	1	smoked_ham	1	P	11	0	266	0		0	0	104.845032000041	104.945027500042
20440	0.099985699984245	76	hunger	stimuli/non_foods\non-food_inanimate_protractor.jpg	1	1	1	non-food_inanimate_protractor	0	Z	18	0	201	0		0	0	104.99503770005	105.095023400034
20477.5	0.0999827000196092	77	hunger	stimuli/non_foods\non-food_inanimate_bush.jpg	1	1	1	non-food_inanimate_bush	0	L	8	0	167	0		0	0	105.14503710001	105.24501980003
20515	0.0999796999967657	78	hunger	stimuli/foods\cherry.jpg	1	1	1	cherry	1	S	13	0	23	0		0	0	105.295041600009	105.395021300006
20552.5	0.100004700012505	79	hunger	stimuli/non_foods\non-food_inanimate_moss.jpg	1	1	1	non-food_inanimate_moss	0	M	9	0	194	0		0	0	105.445035400044	105.545040100056
20590	0.099968800030183	80	hunger	stimuli/non_foods\non-food_inanimate_horn.jpg	1	1	1	non-food_inanimate_horn	0	X	17	0	190	0		0	0	105.59505090001	105.695019700041
20627.5	0.0999874999979511	81	hunger	stimuli/non_foods\non-food_animate_cat.jpg	1	1	1	non-food_animate_cat	0	G	4	0	98	0		0	0	105.745035000029	105.845022500027
20665	0.0999902000185102	82	hunger	stimuli/non_foods\non-food_inanimate_jeans.jpg	1	1	1	non-food_inanimate_jeans	0	K	7	0	191	0		0	0	105.89502940001	105.995019600028
20702.5	0.0999866999918595	83	hunger	stimuli/non_foods\non-food_inanimate_tent.jpg	1	1	1	non-food_inanimate_tent	0	M	9	0	219	0		0	0	106.045027100015	106.145013800007
20740	0.0999894999549724	84	hunger	stimuli/non_foods\non-food_inanimate_grass.jpg	1	1	1	non-food_inanimate_grass	0	L	8	0	184	0		0	0	106.195029200055	106.29501870001
20777.5	0.0999832000234164	85	hunger	stimuli/foods\roasted_chicken.jpg	1	1	1	roasted_chicken	1	S	13	0	261	0		0	0	106.345027800009	106.445011000033
20815	0.099989700014703	86	hunger	stimuli/foods\celery.jpg	1	1	1	celery	1	Z	18	0	21	0		0	0	106.495026000019	106.595015700033
20852.5	0.0999986000242643	87	hunger	stimuli/foods\broccoli.jpg	1	1	1	broccoli	1	N	10	0	13	0		0	0	106.645022400015	106.745021000039
20890	0.0999692999757826	88	hunger	stimuli/foods\red_beans.jpg	1	1	1	red_beans	1	D	2	0	255	0		0	0	106.795022800041	106.894992100017
20927.5	0.0999611999723129	89	hunger	stimuli/foods\chocolate_pralines.jpg	1	1	1	chocolate_pralines	1	J	6	0	28	0		0	0	106.945044900058	107.04500610003
20965	0.0999852999811992	90	hunger	stimuli/non_foods\non-food_animate_baby_sitting.jpg	1	1	1	non-food_animate_baby_sitting	0	S	13	0	93	0		0	0	107.095021900022	107.195007200004
21002.5	0.100013899966143	91	hunger	stimuli/foods\coffee_beans.jpg	1	1	1	coffee_beans	1	H	5	0	34	0		0	0	107.245021500043	107.345035400009
21040	0.099960400024429	92	hunger	stimuli/non_foods\non-food_inanimate_cap.jpg	1	1	1	non-food_inanimate_cap	0	J	6	0	171	0		0	0	107.395047000027	107.495007400052
21077.5	0.099985699984245	93	hunger	stimuli/non_foods\non-food_inanimate_fern.jpg	1	1	1	non-food_inanimate_fern	0	C	1	0	180	0		0	0	107.545019800018	107.645005500002
21115	0.0999878000002354	94	hunger	stimuli/non_foods\non-food_inanimate_toy_airplane.jpg	1	1	1	non-food_inanimate_toy_airplane	0	D	2	0	222	0		0	0	107.695018900034	107.795006700035
21152.5	0.0999863999895751	95	hunger	stimuli/non_foods\non-food_inanimate_short_sleeved_shirt.jpg	1	1	1	non-food_inanimate_short_sleeved_shirt	0	P	11	0	207	0		0	0	107.845016400039	107.945002800028
21190	0.0999966000090353	96	hunger	stimuli/non_foods\non-food_animate_donkey.jpg	1	1	1	non-food_animate_donkey	0	S	13	0	107	0		0	0	107.995009800012	108.095006400021
21227.5	0.0999837000272237	97	hunger	stimuli/non_foods\non-food_inanimate_socks.jpg	1	1	1	non-food_inanimate_socks	0	W	16	0	211	0		0	0	108.145015400019	108.244999100047
21265	0.0999854999827221	98	hunger	stimuli/foods\cupcake.jpg	1	1	1	cupcake	1	F	3	0	42	0		0	0	108.29501240002	108.394997900003
21302.5	0.100002899998799	99	hunger	stimuli/non_foods\non-food_inanimate_stoplight.jpg	1	1	1	non-food_inanimate_stoplight	0	W	16	0	214	0		0	0	108.445009700023	108.545012600021
21340	0.0999809000059031	100	hunger	stimuli/foods\avocado.jpg	1	1	1	avocado	1	J	6	0	5	0		0	0	108.595024100039	108.695005000045
21377.5	0.0999855999834836	101	hunger	stimuli/foods\strawberry.jpg	1	1	1	strawberry	1	L	8	0	272	0		0	0	108.745011100022	108.844996700005
21415	0.0999933000421152	102	hunger	stimuli/foods\spinach.jpg	1	1	1	spinach	1	I	21	1	268	0		0	0	108.895013300003	108.995006600046
21452.5	0.0999622000381351	103	hunger	stimuli/non_foods\non-food_animate_german_shepherd.jpg	1	1	1	non-food_animate_german_shepherd	0	W	16	0	114	0		0	0	109.045019100013	109.144981300051
21490	0.099950700008776	104	hunger	stimuli/non_foods\non-food_animate_monkey.jpg	1	1	1	non-food_animate_monkey	0	B	0	0	130	0		0	0	109.195043300046	109.294994000054
21527.5	0.0999846999766305	105	hunger	stimuli/foods\baked_lamb_with_potatoes.jpg	1	1	1	baked_lamb_with_potatoes	1	Z	18	0	8	0		0	0	109.345007700031	109.444992400007
21565	0.0999843000317924	106	hunger	stimuli/foods\hamburger.jpg	1	1	1	hamburger	1	J	6	0	64	0		0	0	109.495008600003	109.594992900034
21602.5	0.0999986999668181	107	hunger	stimuli/non_foods\non-food_inanimate_tulip.jpg	1	1	1	non-food_inanimate_tulip	0	B	0	0	224	1	a	0.841813800041564	1	109.645003300044	109.745002000011
21640	0.0999700000393204	108	hunger	stimuli/non_foods\non-food_animate_sea_lion.jpg	1	1	1	non-food_animate_sea_lion	0	F	3	0	143	0		0	0	109.795018200006	109.894988200045
21677.5	0.0999826000188477	109	hunger	stimuli/non_foods\non-food_animate_lion.jpg	1	1	1	non-food_animate_lion	0	R	12	0	125	0		0	0	109.945003700035	110.044986300054
21715	0.0999920000322163	110	hunger	stimuli/non_foods\non-food_inanimate_couch.jpg	1	1	1	non-food_inanimate_couch	0	Z	18	0	176	0		0	0	110.094998200017	110.194990200049
21752.5	0.0999866999918595	111	hunger	stimuli/foods\mortadella.jpg	1	1	1	mortadella	1	D	2	0	83	0		0	0	110.244999600051	110.344986300042
21790	0.099982000014279	112	hunger	stimuli/foods\oregano.jpg	1	1	1	oregano	1	X	17	0	231	0		0	0	110.395002000034	110.494984000048
21827.5	0.0999816000112332	113	hunger	stimuli/non_foods\non-food_animate_runner.jpg	1	1	1	non-food_animate_runner	0	G	4	0	142	0		0	0	110.545000300044	110.644981900055
21865	0.0999831999652088	114	hunger	stimuli/foods\egg.jpg	1	1	1	egg	1	W	16	0	45	0		0	0	110.694996300037	110.794979500002
21902.5	0.0999753999640234	115	hunger	stimuli/foods\brussel_sprouts.jpg	1	1	1	brussel_sprouts	1	G	4	0	15	0		0	0	110.845018800057	110.944994200021
21940	0.09996099997079	116	hunger	stimuli/foods\fried_calamari.jpg	1	1	1	fried_calamari	1	D	2	0	50	0		0	0	110.995020400034	111.094981400005
21977.5	0.0999868999933824	117	hunger	stimuli/non_foods\non-food_animate_young_boy.jpg	1	1	1	non-food_animate_young_boy	0	S	13	0	156	0		0	0	111.14499250002	111.244979400013
22015	0.0999854999827221	118	hunger	stimuli/non_foods\non-food_animate_ant.jpg	1	1	1	non-food_animate_ant	0	P	11	0	91	0		0	0	111.295004600019	111.394990100001
22052.5	0.0999867000500672	119	hunger	stimuli/foods\beetroots.jpg	1	1	1	beetroots	1	M	9	0	10	0		0	0	111.444999700005	111.544986400055
22090	0.0999956000014208	120	hunger	stimuli/foods\spaghetti_with_meat_sauce.jpg	1	1	1	spaghetti_with_meat_sauce	1	P	11	0	267	0		0	0	111.59498970001	111.694985300011
22127.5	0.0999810000066645	121	hunger	stimuli/foods\peas.jpg	1	1	1	peas	1	D	2	0	240	0		0	0	111.745001600008	111.844982600014
22165	0.0999896000139415	122	hunger	stimuli/non_foods\non-food_inanimate_table.jpg	1	1	1	non-food_inanimate_table	0	B	0	0	217	0		0	0	111.894985200022	111.994974800036
22202.5	0.0999611999723129	123	hunger	stimuli/foods\cinnamon_sroll.jpg	1	1	1	cinnamon_sroll	1	S	13	0	31	0		0	0	112.045024100051	112.144985300023
22240	0.0999711999902502	124	hunger	stimuli/foods\chilli.jpg	1	1	1	chilli	1	L	8	0	25	0		0	0	112.194996800041	112.294968000031
22277.5	0.0999942000489682	125	hunger	stimuli/non_foods\non-food_inanimate_gloves.jpg	1	1	1	non-food_inanimate_gloves	0	T	14	0	183	0		0	0	112.344988500001	112.44498270005
22315	0.0999770000344142	126	hunger	stimuli/foods\lime.jpg	1	1	1	lime	1	H	5	0	76	0		0	0	112.494994900015	112.594971900049
22352.5	0.0999742999556474	127	hunger	stimuli/non_foods\non-food_animate_frog.jpg	1	1	1	non-food_animate_frog	0	C	1	0	113	0		0	0	112.644996900053	112.744971200009
22390	0.099989700014703	128	hunger	stimuli/foods\chocolate_pudding.jpg	1	1	1	chocolate_pudding	1	M	9	0	29	0		0	0	112.794983500033	112.894973200047
22427.5	0.0999674999620765	129	hunger	stimuli/non_foods\non-food_inanimate_tree.jpg	1	1	1	non-food_inanimate_tree	0	Z	18	0	223	0		0	0	112.944982300047	113.044949800009
22465	0.100003600004129	130	hunger	stimuli/non_foods\non-food_animate_porcupine.jpg	1	1	1	non-food_animate_porcupine	0	W	16	0	138	0		0	0	113.094963700045	113.194967300049
22502.5	0.0999908999656327	131	hunger	stimuli/foods\cooked_ham.jpg	1	1	1	cooked_ham	1	T	14	0	35	0		0	0	113.244975000038	113.344965900003
22540	0.0999815000104718	132	hunger	stimuli/non_foods\non-food_animate_parrot.jpg	1	1	1	non-food_animate_parrot	0	V	15	0	133	0		0	0	113.394982400001	113.494963900011
22577.5	0.100000700040255	133	hunger	stimuli/non_foods\non-food_inanimate_soccer_ball.jpg	1	1	1	non-food_inanimate_soccer_ball	0	S	13	0	210	0		0	0	113.544972700009	113.644973400049
22615	0.0999668000149541	134	hunger	stimuli/foods\frankfurter_and_provolone_salad.jpg	1	1	1	frankfurter_and_provolone_salad	1	X	17	0	49	0		0	0	113.694993900019	113.794960700034
22652.5	0.099978199985344	135	hunger	stimuli/non_foods\non-food_inanimate_toilet.jpg	1	1	1	non-food_inanimate_toilet	0	Z	18	0	220	0		0	0	113.84498600004	113.944964200025
22690	0.0999868999933824	136	hunger	stimuli/non_foods\non-food_animate_ladybug.jpg	1	1	1	non-food_animate_ladybug	0	K	7	0	124	0		0	0	113.994974100031	114.094961000024
22727.5	0.0999814000097103	137	hunger	stimuli/foods\lemon_meringue_pie.jpg	1	1	1	lemon_meringue_pie	1	P	11	0	73	0		0	0	114.144971600035	114.244953000045
22765	0.0999735000077635	138	hunger	stimuli/non_foods\non-food_animate_owl.jpg	1	1	1	non-food_animate_owl	0	X	17	0	132	0		0	0	114.294991500035	114.394965000043
22802.5	0.0999607000267133	139	hunger	stimuli/non_foods\non-food_animate_dachshund.jpg	1	1	1	non-food_animate_dachshund	0	K	7	0	104	0		0	0	114.444995200029	114.544955900055
23802.5	0.0999807000043802	140	hunger	stimuli/foods\cinnamon.jpg	1	2	1	cinnamon	1	P	11	0	30	0		0	0	118.444967100048	118.544947800052
23840	0.0999630999867804	141	hunger	stimuli/non_foods\non-food_inanimate_highlighter.jpg	1	2	1	non-food_inanimate_highlighter	0	J	6	0	189	0		0	0	118.594962000032	118.694925100019
23877.5	0.0999937999877147	142	hunger	stimuli/non_foods\non-food_animate_seal.jpg	1	2	1	non-food_animate_seal	0	N	10	0	146	0		0	0	118.744942200021	118.844936000009
23915	0.0999709000461735	143	hunger	stimuli/non_foods\non-food_animate_kangaroo.jpg	1	2	1	non-food_animate_kangaroo	0	V	15	0	122	0		0	0	118.894952100003	118.994923000049
23952.5	0.100016599986702	144	hunger	stimuli/non_foods\non-food_inanimate_cactus_pot_plant.jpg	1	2	1	non-food_inanimate_cactus_pot_plant	0	M	9	0	169	0		0	0	119.044940600055	119.144957200042
23990	0.0999824999598786	145	hunger	stimuli/non_foods\non-food_animate_hummingbird.jpg	1	2	1	non-food_animate_hummingbird	0	S	13	0	120	0		0	0	119.194951400044	119.294933900004
24027.5	0.0999666000134312	146	hunger	stimuli/foods\museli_bars.jpg	1	2	1	museli_bars	1	P	11	0	84	0		0	0	119.344947600039	119.444914200052
24065	0.0999834000249393	147	hunger	stimuli/non_foods\non-food_animate_skunk.jpg	1	2	1	non-food_animate_skunk	0	N	10	0	147	0		0	0	119.494942700025	119.59492610005
24102.5	0.0999870999949053	148	hunger	stimuli/non_foods\non-food_animate_clown.jpg	1	2	1	non-food_animate_clown	0	V	15	0	102	0		0	0	119.64494290005	119.744930000044
24140	0.0999776999815367	149	hunger	stimuli/foods\cracker.jpg	1	2	1	cracker	1	B	0	0	38	0		0	0	119.794938900042	119.894916600024
24177.5	0.0999815000104718	150	hunger	stimuli/non_foods\non-food_animate_slug.jpg	1	2	1	non-food_animate_slug	0	H	5	0	148	0		0	0	119.944934800034	120.044916300045
24215	0.0999805000028573	151	hunger	stimuli/non_foods\non-food_animate_green_bug.jpg	1	2	1	non-food_animate_green_bug	0	C	1	0	118	0		0	0	120.094933300046	120.194913800049
24252.5	0.10000850004144	152	hunger	stimuli/foods\mushroom.jpg	1	2	1	mushroom	1	V	15	0	85	0		0	0	120.244925200008	120.344933700049
24290	0.0999653000035323	153	hunger	stimuli/foods\grapefruits.jpg	1	2	1	grapefruits	1	S	13	0	59	0		0	0	120.394952700008	120.494918000011
24327.5	0.099981100007426	154	hunger	stimuli/non_foods\non-food_inanimate_lighter.jpg	1	2	1	non-food_inanimate_lighter	0	Z	18	0	193	0		0	0	120.544927700015	120.644908800023
24365	0.0999788999906741	155	hunger	stimuli/foods\rice.jpg	1	2	1	rice	1	N	10	0	257	0		0	0	120.694936400047	120.794915300037
24402.5	0.0999887000070885	156	hunger	stimuli/foods\spring_onions.jpg	1	2	1	spring_onions	1	T	14	0	269	0		0	0	120.844923300028	120.944912000035
24440	0.0999966000090353	157	hunger	stimuli/foods\chestnut.jpg	1	2	1	chestnut	1	C	1	0	24	0		0	0	120.994925600011	121.09492220002
24477.5	0.0999846000340767	158	hunger	stimuli/foods\grilled_chicken_breast.jpg	1	2	1	grilled_chicken_breast	1	M	9	0	63	0		0	0	121.144923000014	121.244907600048
24515	0.0999896000139415	159	hunger	stimuli/foods\fruit_pie.jpg	1	2	1	fruit_pie	1	W	16	0	54	0		0	0	121.294919100008	121.394908700022
24552.5	0.0999909000238404	160	hunger	stimuli/foods\lollies.jpg	1	2	1	lollies	1	D	2	0	78	0		0	0	121.444918500027	121.544909400051
24590	0.0999879000009969	161	hunger	stimuli/non_foods\non-food_animate_elephant.jpg	1	2	1	non-food_animate_elephant	0	J	6	0	111	0		0	0	121.594919900002	121.694907800003
24627.5	0.0999907999648713	162	hunger	stimuli/foods\orange.jpg	1	2	1	orange	1	V	15	0	230	0		0	0	121.744922700047	121.844913500012
24665	0.0999980000196956	163	hunger	stimuli/foods\corncob.jpg	1	2	1	corncob	1	G	4	0	37	0		0	0	121.894916400022	121.994914400042
24702.5	0.100003300001845	164	hunger	stimuli/non_foods\non-food_animate_swan.jpg	1	2	1	non-food_animate_swan	0	B	0	0	152	0		0	0	122.044916400046	122.144919700047
24740	0.0999631000449881	165	hunger	stimuli/foods\carrot.jpg	1	2	1	carrot	1	G	4	0	19	0		0	0	122.194945900002	122.294909000047
24777.5	0.0999828999629244	166	hunger	stimuli/foods\pumpkin.jpg	1	2	1	pumpkin	1	P	11	0	250	0		0	0	122.34491850005	122.444901400013
24815	0.0999920000322163	167	hunger	stimuli/non_foods\non-food_animate_baby_crawling.jpg	1	2	1	non-food_animate_baby_crawling	0	V	15	0	92	0		0	0	122.494918700017	122.594910700049
24852.5	0.0999752000207081	168	hunger	stimuli/non_foods\non-food_inanimate_shell.jpg	1	2	1	non-food_inanimate_shell	0	C	1	0	206	0		0	0	122.644924700027	122.744899900048
24890	0.0999871999956667	169	hunger	stimuli/non_foods\non-food_animate_giraffe.jpg	1	2	1	non-food_animate_giraffe	0	J	6	0	115	0		0	0	122.794914600032	122.894901800028
24927.5	0.0999813000089489	170	hunger	stimuli/foods\rice_cake.jpg	1	2	1	rice_cake	1	E	20	1	258	0		0	0	122.944908000005	123.044889300014
24965	0.0999854999827221	171	hunger	stimuli/foods\bagel.jpg	1	2	1	bagel	1	B	0	0	6	0		0	0	123.094919000054	123.194904500037
25002.5	0.099985100037884	172	hunger	stimuli/non_foods\non-food_inanimate_buds.jpg	1	2	1	non-food_inanimate_buds	0	G	4	0	166	0		0	0	123.244909300003	123.344894400041
25040	0.0999887000070885	173	hunger	stimuli/foods\pork_and_rice.jpg	1	2	1	pork_and_rice	1	V	15	0	245	0		0	0	123.394907700014	123.494896400021
25077.5	0.0999914000276476	174	hunger	stimuli/foods\salami.jpg	1	2	1	salami	1	M	9	0	263	0		0	0	123.544904300012	123.644895700039
25115	0.099988299945835	175	hunger	stimuli/foods\donut.jpg	1	2	1	donut	1	H	5	0	44	1	a	0.841853699996136	1	123.694906900055	123.794895200001
25152.5	0.0999759000260383	176	hunger	stimuli/non_foods\non-food_animate_millipede.jpg	1	2	1	non-food_animate_millipede	0	C	1	0	129	0		0	0	123.844915100024	123.94489100005
25190	0.0999635999905877	177	hunger	stimuli/foods\mandarin.jpg	1	2	1	mandarin	1	X	17	0	79	0		0	0	123.994926200015	124.094889800006
25227.5	0.0999984000227414	178	hunger	stimuli/foods\toasted_bread_with_tomatoes.jpg	1	2	1	toasted_bread_with_tomatoes	1	M	9	0	275	0		0	0	124.144900700019	124.244899100042
25265	0.0999982000212185	179	hunger	stimuli/foods\fennel.jpg	1	2	1	fennel	1	P	11	0	47	0		0	0	124.29489910003	124.394897300052
25302.5	0.100004300009459	180	hunger	stimuli/non_foods\non-food_inanimate_speakers.jpg	1	2	1	non-food_inanimate_speakers	0	D	2	0	212	0		0	0	124.444882200041	124.544886500051
25340	0.0999821999575943	181	hunger	stimuli/foods\brownie.jpg	1	2	1	brownie	1	S	13	0	14	0		0	0	124.594903600053	124.694885800011
25377.5	0.0999854999827221	182	hunger	stimuli/foods\gnocchi.jpg	1	2	1	gnocchi	1	N	10	0	58	0		0	0	124.744898300036	124.844883800019
25415	0.0999863000470214	183	hunger	stimuli/non_foods\non-food_animate_cheetah.jpg	1	2	1	non-food_animate_cheetah	0	L	8	0	100	0		0	0	124.8948982	124.994884500047
25452.5	0.100008599983994	184	hunger	stimuli/non_foods\non-food_inanimate_hammer.jpg	1	2	1	non-food_inanimate_hammer	0	M	9	0	186	0		0	0	125.044893100043	125.144901700027
25490	0.0999975000158884	185	hunger	stimuli/non_foods\non-food_animate_raccoon.jpg	1	2	1	non-food_animate_raccoon	0	X	17	0	139	0		0	0	125.194904600037	125.294902100053
25527.5	0.0999727000016719	186	hunger	stimuli/non_foods\non-food_animate_iguana.jpg	1	2	1	non-food_animate_iguana	0	L	8	0	121	0		0	0	125.344907700026	125.444880400028
25565	0.0999829999636859	187	hunger	stimuli/non_foods\non-food_inanimate_desk.jpg	1	2	1	non-food_inanimate_desk	0	K	7	0	178	0		0	0	125.494893100054	125.594876100018
25602.5	0.0999687000294216	188	hunger	stimuli/foods\ginger_root.jpg	1	2	1	ginger_root	1	G	4	0	57	0		0	0	125.644908000017	125.744876700046
25640	0.0999634999898262	189	hunger	stimuli/foods\omelette.jpg	1	2	1	omelette	1	H	5	0	228	0		0	0	125.794923000038	125.894886500027
25677.5	0.0999733999487944	190	hunger	stimuli/foods\risotto_with_peas_and_asparagus_tips.jpg	1	2	1	risotto_with_peas_and_asparagus_tips	1	D	2	0	259	0		0	0	125.944898800051	126.0448722
25715	0.0999270000029355	191	hunger	stimuli/foods\fries.jpg	1	2	1	fries	1	F	3	0	52	0		0	0	126.094948900049	126.194875900052
25752.5	0.0999867000500672	192	hunger	stimuli/non_foods\non-food_inanimate_hay.jpg	1	2	1	non-food_inanimate_hay	0	K	7	0	187	0		0	0	126.244886	126.34487270005
25790	0.0999927000375465	193	hunger	stimuli/non_foods\non-food_inanimate_canoe.jpg	1	2	1	non-food_inanimate_canoe	0	G	4	0	170	0		0	0	126.394891200005	126.494883900043
25827.5	0.100003200001083	194	hunger	stimuli/foods\prawn.jpg	1	2	1	prawn	1	F	3	0	249	0		0	0	126.544880600006	126.644883800007
25865	0.0999937999877147	195	hunger	stimuli/foods\pasta_carbonara.jpg	1	2	1	pasta_carbonara	1	R	12	0	236	0		0	0	126.694876200054	126.794870000042
25902.5	0.0999640999943949	196	hunger	stimuli/foods\lettuce.jpg	1	2	1	lettuce	1	C	1	0	75	0		0	0	126.844916500035	126.944880600029
25940	0.0999840999720618	197	hunger	stimuli/foods\pineapple.jpg	1	2	1	pineapple	1	H	5	0	243	0		0	0	126.994893300056	127.094877400028
25977.5	0.0999879000009969	198	hunger	stimuli/foods\papaya.jpg	1	2	1	papaya	1	X	17	0	235	0		0	0	127.144878500025	127.244866400026
26015	0.0999882000032812	199	hunger	stimuli/foods\risotto_with_zucchini.jpg	1	2	1	risotto_with_zucchini	1	P	11	0	260	0		0	0	127.294888900011	127.394877100014
26052.5	0.0999749999609776	200	hunger	stimuli/foods\nectarine.jpg	1	2	1	nectarine	1	U	23	1	87	0		0	0	127.444891800056	127.544866800017
26090	0.099983100022655	201	hunger	stimuli/non_foods\non-food_animate_mammoth.jpg	1	2	1	non-food_animate_mammoth	0	Z	18	0	128	0		0	0	127.59488270001	127.694865800033
26127.5	0.0999875999987125	202	hunger	stimuli/foods\radish.jpg	1	2	1	radish	1	F	3	0	251	0		0	0	127.744878300058	127.844865900057
26165	0.0999739000108093	203	hunger	stimuli/non_foods\non-food_animate_sea_turtle.jpg	1	2	1	non-food_animate_sea_turtle	0	K	7	0	144	1	a	0.541826899978332	1	127.894886100024	127.994860000035
26202.5	0.0999904999625869	204	hunger	stimuli/foods\lamb_chops.jpg	1	2	1	lamb_chops	1	D	2	0	70	0		0	0	128.044879700057	128.14487020002
26240	0.0999745999579318	205	hunger	stimuli/non_foods\non-food_inanimate_chair.jpg	1	2	1	non-food_inanimate_chair	0	J	6	0	172	0		0	0	128.194884000055	128.294858600013
26277.5	0.0999829000211321	206	hunger	stimuli/foods\pea_pod.jpg	1	2	1	pea_pod	1	S	13	0	237	0		0	0	128.344873800001	128.444856700022
26315	0.099983100022655	207	hunger	stimuli/foods\cannoli.jpg	1	2	1	cannoli	1	H	5	0	17	0		0	0	128.494871700008	128.594854800031
26352.5	0.0999744999571703	208	hunger	stimuli/non_foods\non-food_animate_lizard.jpg	1	2	1	non-food_animate_lizard	0	Z	18	0	126	0		0	0	128.644882200053	128.74485670001
26390	0.0999924000352621	209	hunger	stimuli/non_foods\non-food_inanimate_pine_cone.jpg	1	2	1	non-food_inanimate_pine_cone	0	P	11	0	200	0		0	0	128.794874100015	128.89486650005
26427.5	0.0999751000199467	210	hunger	stimuli/non_foods\non-food_animate_alligator.jpg	1	2	1	non-food_animate_alligator	0	V	15	0	90	0		0	0	128.94487810001	129.04485320003
26465	0.100001199985854	211	hunger	stimuli/foods\artichoke.jpg	1	2	1	artichoke	1	B	0	0	3	0		0	0	129.094877900032	129.194879100018
26502.5	0.0999440000159666	212	hunger	stimuli/non_foods\non-food_animate_seahorse.jpg	1	2	1	non-food_animate_seahorse	0	R	12	0	145	0		0	0	129.244911400019	129.344855400035
26540	0.0999868999933824	213	hunger	stimuli/non_foods\non-food_inanimate_scissors.jpg	1	2	1	non-food_inanimate_scissors	0	J	6	0	205	0		0	0	129.394862700021	129.494849600014
26577.5	0.099992600036785	214	hunger	stimuli/foods\tomato.jpg	1	2	1	tomato	1	N	10	0	276	0		0	0	129.544864900003	129.64485750004
26615	0.0999927999801002	215	hunger	stimuli/non_foods\non-food_animate_student_female.jpg	1	2	1	non-food_animate_student_female	0	D	2	0	151	0		0	0	129.694864800025	129.794857600005
26652.5	0.0999890000093728	216	hunger	stimuli/non_foods\non-food_animate_dolphin.jpg	1	2	1	non-food_animate_dolphin	0	J	6	0	106	0		0	0	129.844869600027	129.944858600036
26690	0.099988600006327	217	hunger	stimuli/non_foods\non-food_animate_snail.jpg	1	2	1	non-food_animate_snail	0	W	16	0	149	0		0	0	129.994860700041	130.094849300047
26727.5	0.099987100053113	218	hunger	stimuli/foods\minestrone_soup.jpg	1	2	1	minestrone_soup	1	K	7	0	82	0		0	0	130.144860100001	130.244847200054
26765	0.0999986000242643	219	hunger	stimuli/foods\honey.jpg	1	2	1	honey	1	C	1	0	66	0		0	0	130.294858800014	130.394857400039
26802.5	0.099973600008525	220	hunger	stimuli/foods\pear.jpg	1	2	1	pear	1	B	0	0	239	0		0	0	130.444881100033	130.544854700041
26840	0.0999846999766305	221	hunger	stimuli/non_foods\non-food_animate_squirrel.jpg	1	2	1	non-food_animate_squirrel	0	T	14	0	150	0		0	0	130.594855600037	130.694840300013
26877.5	0.0999983999645337	222	hunger	stimuli/non_foods\non-food_inanimate_waterlily.jpg	1	2	1	non-food_inanimate_waterlily	0	P	11	0	226	0		0	0	130.744854100049	130.844852500013
26915	0.100002099992707	223	hunger	stimuli/non_foods\non-food_animate_mouse.jpg	1	2	1	non-food_animate_mouse	0	X	17	0	131	0		0	0	130.89485630003	130.994858400023
26952.5	0.0999656000058167	224	hunger	stimuli/foods\lasagna.jpg	1	2	1	lasagna	1	C	1	0	71	0		0	0	131.044877100037	131.144842700043
26990	0.0999844000325538	225	hunger	stimuli/foods\eggplant.jpg	1	2	1	eggplant	1	G	4	0	46	0		0	0	131.194855700014	131.294840100047
27027.5	0.0999856000416912	226	hunger	stimuli/foods\raisins.jpg	1	2	1	raisins	1	S	13	0	252	0		0	0	131.344852000009	131.444837600051
27065	0.0999962000059895	227	hunger	stimuli/non_foods\non-food_inanimate_bed.jpg	1	2	1	non-food_inanimate_bed	0	M	9	0	160	0		0	0	131.494851200026	131.594847400032
27102.5	0.0999823000165634	228	hunger	stimuli/non_foods\non-food_inanimate_stapler.jpg	1	2	1	non-food_inanimate_stapler	0	F	3	0	213	0		0	0	131.644854000013	131.744836300029
27140	0.0999895000131801	229	hunger	stimuli/foods\fruit_flan.jpg	1	2	1	fruit_flan	1	L	8	0	53	0		0	0	131.794847000041	131.894836500054
27177.5	0.0999971000128426	230	hunger	stimuli/foods\garlic.jpg	1	2	1	garlic	1	R	12	0	56	0		0	0	131.9448462	132.044843300013
27215	0.099982799962163	231	hunger	stimuli/non_foods\non-food_animate_chicken.jpg	1	2	1	non-food_animate_chicken	0	V	15	0	101	0		0	0	132.094850300055	132.194833100017
27252.5	0.100007899978664	232	hunger	stimuli/foods\lentils.jpg	1	2	1	lentils	1	F	3	0	74	0		0	0	132.244847700058	132.344855600037
27290	0.0999909999663942	233	hunger	stimuli/non_foods\non-food_inanimate_briefcase.jpg	1	2	1	non-food_inanimate_briefcase	0	B	0	0	163	0		0	0	132.394850100041	132.494841100008
27327.5	0.0999884000048041	234	hunger	stimuli/non_foods\non-food_inanimate_bicycle.jpg	1	2	1	non-food_inanimate_bicycle	0	C	1	0	161	0		0	0	132.544842800009	132.644831200014
27365	0.0999913000268862	235	hunger	stimuli/foods\chocolate_chip_cookies.jpg	1	2	1	chocolate_chip_cookies	1	E	20	1	27	0		0	0	132.694840200013	132.794831500039
27402.5	0.0999338999972679	236	hunger	stimuli/non_foods\non-food_inanimate_bowling_ball.jpg	1	2	1	non-food_inanimate_bowling_ball	0	R	12	0	162	0		0	0	132.844885900035	132.944819800032
27439.75	0.100023800041527	237	hunger	stimuli/foods\mussels.jpg	1	2	1	mussels	1	G	4	0	86	0		0	0	132.994818700012	133.094842500053
27477.5	0.0999767999746837	238	hunger	stimuli/foods\oyster.jpg	1	2	1	oyster	1	W	16	0	233	1	a	0.541835600044578	1	133.144850200042	133.244827000017
27515	0.0999867999926209	239	hunger	stimuli/foods\cream_donuts.jpg	1	2	1	cream_donuts	1	P	11	0	39	0		0	0	133.294838100031	133.394824900024
27552.5	0.0999868999933824	240	hunger	stimuli/non_foods\non-food_animate_killer_whale.jpg	1	2	1	non-food_animate_killer_whale	0	W	16	0	123	0		0	0	133.444839600008	133.544826500001
27590	0.0999845000333153	241	hunger	stimuli/foods\coconut.jpg	1	2	1	coconut	1	J	6	0	33	0		0	0	133.594838300021	133.694822800055
27627.5	0.0999999999767169	242	hunger	stimuli/non_foods\non-food_animate_llama.jpg	1	2	1	non-food_animate_llama	0	D	2	0	127	0		0	0	133.744832100056	133.844832100032
27665	0.0999831999652088	243	hunger	stimuli/non_foods\non-food_inanimate_wrench.jpg	1	2	1	non-food_inanimate_wrench	0	H	5	0	227	0		0	0	133.894844000053	133.994827200018
27702.5	0.0999861000454985	244	hunger	stimuli/foods\cucumber.jpg	1	2	1	cucumber	1	T	14	0	41	0		0	0	134.04484290001	134.144829000055
27740	0.0999991999706253	245	hunger	stimuli/foods\figs.jpg	1	2	1	figs	1	K	7	0	48	0		0	0	134.194830800057	134.294830000028
27777.5	0.0999826999614015	246	hunger	stimuli/non_foods\non-food_inanimate_folding_chair.jpg	1	2	1	non-food_inanimate_folding_chair	0	R	12	0	182	0		0	0	134.344835200056	134.444817900017
27815	0.0999894999549724	247	hunger	stimuli/non_foods\non-food_animate_caterpillar.jpg	1	2	1	non-food_animate_caterpillar	0	D	2	0	99	0		0	0	134.494831500051	134.594821000006
27852.5	0.0999641999951564	248	hunger	stimuli/foods\pomegranate.jpg	1	2	1	pomegranate	1	S	13	0	244	0		0	0	134.644849400036	134.744813600031
27890	0.0999835000257008	249	hunger	stimuli/foods\apple.jpg	1	2	1	apple	1	T	14	0	1	0		0	0	134.79482900002	134.894812500046
27927.5	0.0999939999892376	250	hunger	stimuli/non_foods\non-food_animate_penguin.jpg	1	2	1	non-food_animate_penguin	0	X	17	0	135	0		0	0	134.94482850004	135.044822500029
27965	0.0999722999986261	251	hunger	stimuli/foods\raw_ham.jpg	1	2	1	raw_ham	1	M	9	0	253	0		0	0	135.094845100015	135.194817400014
28002.5	0.0999959000037052	252	hunger	stimuli/foods\dates.jpg	1	2	1	dates	1	S	13	0	43	0		0	0	135.244825400005	135.344821300008
28040	0.0999814000097103	253	hunger	stimuli/foods\waffle.jpg	1	2	1	waffle	1	H	5	0	278	0		0	0	135.394826200034	135.494807600044
28077.5	0.0999869999941438	254	hunger	stimuli/foods\capsicum.jpg	1	2	1	capsicum	1	L	8	0	18	0		0	0	135.544823500037	135.644810500031
28115	0.0999947000527754	255	hunger	stimuli/foods\cabbage.jpg	1	2	1	cabbage	1	F	3	0	16	0		0	0	135.694823400001	135.794818100054
28152.5	0.0999879999435507	256	hunger	stimuli/foods\onion.jpg	1	2	1	onion	1	R	12	0	229	0		0	0	135.844820200058	135.944808200002
28190	0.100005100015551	257	hunger	stimuli/non_foods\non-food_inanimate_construction_helment.jpg	1	2	1	non-food_inanimate_construction_helment	0	H	5	0	175	0		0	0	135.994822200038	136.094827300054
28227.5	0.0999764999723993	258	hunger	stimuli/foods\wafer.jpg	1	2	1	wafer	1	D	2	0	277	0		0	0	136.144829200057	136.244805700029
28265	0.0999794999952428	259	hunger	stimuli/non_foods\non-food_inanimate_orchid.jpg	1	2	1	non-food_inanimate_orchid	0	J	6	0	198	0		0	0	136.294826100057	136.394805600052
28302.5	0.0999526999657974	260	hunger	stimuli/non_foods\non-food_animate_bee.jpg	1	2	1	non-food_animate_bee	0	H	5	0	95	0		0	0	136.444851800043	136.544804500008
28340	0.0999863999895751	261	hunger	stimuli/foods\ice_cream.jpg	1	2	1	ice_cream	1	S	13	0	68	0		0	0	136.594815000019	136.694801400008
28377.5	0.0999890000093728	262	hunger	stimuli/foods\kiwi.jpg	1	2	1	kiwi	1	L	8	0	69	0		0	0	136.744814600039	136.844803600048
28415	0.0999830000218935	263	hunger	stimuli/non_foods\non-food_animate_young_girl.jpg	1	2	1	non-food_animate_young_girl	0	B	0	0	157	0		0	0	136.894814200001	136.994797200023
28452.5	0.0999821000150405	264	hunger	stimuli/foods\watermelon.jpg	1	2	1	watermelon	1	W	16	0	279	0		0	0	137.044816600042	137.144798700057
28490	0.0999985000235029	265	hunger	stimuli/non_foods\non-food_inanimate_watering_can.jpg	1	2	1	non-food_inanimate_watering_can	0	J	6	0	225	0		0	0	137.194811200025	137.294809700048
28527.5	0.0999810000066645	266	hunger	stimuli/foods\brie.jpg	1	2	1	brie	1	B	0	0	12	0		0	0	137.344822900021	137.444803900027
28565	0.0999713999917731	267	hunger	stimuli/non_foods\non-food_animate_woman.jpg	1	2	1	non-food_animate_woman	0	N	10	0	154	0		0	0	137.494821000029	137.594792400021
28602.5	0.0999891000101343	268	hunger	stimuli/foods\asparagus.jpg	1	2	1	asparagus	1	B	0	0	4	0		0	0	137.644807300007	137.744796400017
28640	0.0999887000070885	269	hunger	stimuli/non_foods\non-food_inanimate_bamboo.jpg	1	2	1	non-food_inanimate_bamboo	0	C	1	0	159	0		0	0	137.794806900027	137.894795600034
28677.5	0.0999738000100479	270	hunger	stimuli/foods\oven-roasted_tomatoes.jpg	1	2	1	oven-roasted_tomatoes	1	B	0	0	232	0		0	0	137.944818500022	138.044792300032
28715	0.09997049998492	271	hunger	stimuli/foods\taco.jpg	1	2	1	taco	1	H	5	0	274	0		0	0	138.094823000021	138.194793500006
28752.5	0.0999767999746837	272	hunger	stimuli/foods\hazelnuts.jpg	1	2	1	hazelnuts	1	B	0	0	65	0		0	0	138.244814400037	138.344791200012
28790	0.0999927000375465	273	hunger	stimuli/non_foods\non-food_inanimate_nettle.jpg	1	2	1	non-food_inanimate_nettle	0	W	16	0	197	0		0	0	138.394799600006	138.494792300044
28827.5	0.099983100022655	274	hunger	stimuli/non_foods\non-food_animate_fox.jpg	1	2	1	non-food_animate_fox	0	D	2	0	112	0		0	0	138.544815200032	138.644798300054
28865	0.0999767000321299	275	hunger	stimuli/non_foods\non-food_inanimate_button.jpg	1	2	1	non-food_inanimate_button	0	M	9	0	168	0		0	0	138.694810300018	138.79478700005
28902.5	0.0999867999926209	276	hunger	stimuli/non_foods\non-food_inanimate_rack.jpg	1	2	1	non-food_inanimate_rack	0	T	14	0	202	0		0	0	138.844802600041	138.944789400033
28940	0.0999879000009969	277	hunger	stimuli/non_foods\non-food_inanimate_skirt.jpg	1	2	1	non-food_inanimate_skirt	0	R	12	0	209	0		0	0	138.994798800035	139.094786700036
28977.5	0.0999891999526881	278	hunger	stimuli/foods\linguine_with_clams.jpg	1	2	1	linguine_with_clams	1	L	8	0	77	0		0	0	139.144798100053	139.244787300006
29015	0.0999639999936335	279	hunger	stimuli/non_foods\non-food_inanimate_bucket.jpg	1	2	1	non-food_inanimate_bucket	0	D	2	0	165	0		0	0	139.294816800044	139.394780800038
29844	0.0999783999868669	280	hunger	stimuli/foods\lemon.jpg	1	3	1	lemon	1	N	10	0	72	0		0	0	142.611452200043	142.711430600029
29881.5	0.0999845999758691	281	hunger	stimuli/non_foods\non-food_inanimate_bed.jpg	1	3	1	non-food_inanimate_bed	0	H	5	0	160	0		0	0	142.761442100047	142.861426700023
29919	0.0999870999949053	282	hunger	stimuli/non_foods\non-food_animate_raccoon.jpg	1	3	1	non-food_animate_raccoon	0	W	16	0	139	0		0	0	142.911442000011	143.011429100006
29956.5	0.0999775000382215	283	hunger	stimuli/non_foods\non-food_animate_chicken.jpg	1	3	1	non-food_animate_chicken	0	G	4	0	101	0		0	0	143.061447200016	143.161424700054
29994	0.100018900004216	284	hunger	stimuli/non_foods\non-food_animate_bee.jpg	1	3	1	non-food_animate_bee	0	C	1	0	95	0		0	0	143.211436500016	143.31145540002
30031.5	0.0999813000089489	285	hunger	stimuli/foods\omelette.jpg	1	3	1	omelette	1	S	13	0	228	0		0	0	143.361440000008	143.461421300017
30069	0.0999936999869533	286	hunger	stimuli/non_foods\non-food_inanimate_hammer.jpg	1	3	1	non-food_inanimate_hammer	0	N	10	0	186	0		0	0	143.511438000016	143.611431700003
30106.5	0.0999872999964282	287	hunger	stimuli/foods\risotto_with_peas_and_asparagus_tips.jpg	1	3	1	risotto_with_peas_and_asparagus_tips	1	S	13	0	259	0		0	0	143.661435000016	143.761422300013
30144	0.0999692000332288	288	hunger	stimuli/non_foods\non-food_animate_elephant.jpg	1	3	1	non-food_animate_elephant	0	H	5	0	111	0		0	0	143.811453600007	143.91142280004
30181.5	0.0999737000092864	289	hunger	stimuli/non_foods\non-food_inanimate_rope.jpg	1	3	1	non-food_inanimate_rope	0	V	15	0	204	0		0	0	143.961443800014	144.061417500023
30219	0.0999867999926209	290	hunger	stimuli/non_foods\non-food_animate_woman.jpg	1	3	1	non-food_animate_woman	0	T	14	0	154	0		0	0	144.111430800054	144.211417600047
30256.5	0.0999836000264622	291	hunger	stimuli/foods\croissant.jpg	1	3	1	croissant	1	Z	18	0	40	0		0	0	144.261431700026	144.361415300053
30294	0.0999891000101343	292	hunger	stimuli/non_foods\non-food_animate_cat.jpg	1	3	1	non-food_animate_cat	0	B	0	0	98	0		0	0	144.411429400032	144.511418500042
30331.5	0.0999844000325538	293	hunger	stimuli/foods\cherry.jpg	1	3	1	cherry	1	W	16	0	23	0		0	0	144.561430200003	144.661414600036
30369	0.0999899999587797	294	hunger	stimuli/foods\lamb_chops.jpg	1	3	1	lamb_chops	1	X	17	0	70	0		0	0	144.711426100053	144.811416100012
30406.5	0.0999910000246018	295	hunger	stimuli/foods\orange.jpg	1	3	1	orange	1	S	13	0	230	0		0	0	144.861424400005	144.96141540003
30444	0.0999703000416048	296	hunger	stimuli/foods\radish.jpg	1	3	1	radish	1	M	9	0	251	0		0	0	145.011436700006	145.111407000048
30481.5	0.0999855999834836	297	hunger	stimuli/foods\lasagna.jpg	1	3	1	lasagna	1	P	11	0	71	0		0	0	145.161427400017	145.261413
30519	0.0999644999974407	298	hunger	stimuli/non_foods\non-food_animate_hummingbird.jpg	1	3	1	non-food_animate_hummingbird	0	U	23	1	120	0		0	0	145.311436000047	145.411400500045
30556.5	0.100000099977478	299	hunger	stimuli/non_foods\non-food_animate_cow.jpg	1	3	1	non-food_animate_cow	0	T	14	0	103	0		0	0	145.461411400058	145.561411500035
30594	0.0999513000133447	300	hunger	stimuli/foods\prawn.jpg	1	3	1	prawn	1	P	11	0	249	0		0	0	145.611457400024	145.711408700037
30631.5	0.0999767999746837	301	hunger	stimuli/foods\banana.jpg	1	3	1	banana	1	W	16	0	9	0		0	0	145.761427300051	145.861404100026
30669	0.0999864000477828	302	hunger	stimuli/non_foods\non-food_animate_monkey.jpg	1	3	1	non-food_animate_monkey	0	S	13	0	130	0		0	0	145.911418300006	146.011404700053
30706.5	0.099995199998375	303	hunger	stimuli/non_foods\non-food_animate_slug.jpg	1	3	1	non-food_animate_slug	0	R	12	0	148	0		0	0	146.061418100027	146.161413300026
30744	0.0999846999766305	304	hunger	stimuli/non_foods\non-food_inanimate_nest.jpg	1	3	1	non-food_inanimate_nest	0	V	15	0	196	0		0	0	146.211418500054	146.31140320003
30781.5	0.0999848999781534	305	hunger	stimuli/foods\oregano.jpg	1	3	1	oregano	1	P	11	0	231	0		0	0	146.361415600055	146.461400500033
30819	0.0999976000166498	306	hunger	stimuli/non_foods\non-food_inanimate_drum_set.jpg	1	3	1	non-food_inanimate_drum_set	0	X	17	0	179	0		0	0	146.511415400018	146.611413000035
30856.5	0.0999880000017583	307	hunger	stimuli/non_foods\non-food_animate_ant.jpg	1	3	1	non-food_animate_ant	0	F	3	0	91	0		0	0	146.661413700029	146.761401700031
30894	0.0999929999816231	308	hunger	stimuli/foods\coconut.jpg	1	3	1	coconut	1	D	2	0	33	0		0	0	146.81140950002	146.911402500002
30931.5	0.0999841000302695	309	hunger	stimuli/non_foods\non-food_inanimate_bamboo.jpg	1	3	1	non-food_inanimate_bamboo	0	L	8	0	159	0		0	0	146.961412100005	147.061396200035
30969	0.0999892000108957	310	hunger	stimuli/non_foods\non-food_inanimate_lighter.jpg	1	3	1	non-food_inanimate_lighter	0	G	4	0	193	0		0	0	147.11141100002	147.211400200031
31006.5	0.099995199998375	311	hunger	stimuli/foods\raw_sausage.jpg	1	3	1	raw_sausage	1	C	1	0	254	0		0	0	147.261409200029	147.361404400028
31044	0.099979099992197	312	hunger	stimuli/non_foods\non-food_inanimate_grass.jpg	1	3	1	non-food_inanimate_grass	0	W	16	0	184	0		0	0	147.41141390003	147.511393000023
31081.5	0.10003610001877	313	hunger	stimuli/non_foods\non-food_inanimate_skateboard.jpg	1	3	1	non-food_inanimate_skateboard	0	D	2	0	208	0		0	0	147.561403400032	147.661439500051
31119	0.0999923999770544	314	hunger	stimuli/non_foods\non-food_animate_student_female.jpg	1	3	1	non-food_animate_student_female	0	W	16	0	151	0		0	0	147.711403100053	147.81139550003
31156.5	0.0999979000189342	315	hunger	stimuli/foods\fruit_salad.jpg	1	3	1	fruit_salad	1	Z	18	0	55	0		0	0	147.861403000017	147.961400900036
31194	0.099973600008525	316	hunger	stimuli/foods\apricot.jpg	1	3	1	apricot	1	S	13	0	2	0		0	0	148.011415300018	148.111388900026
31231.5	0.0999847000348382	317	hunger	stimuli/foods\carrot.jpg	1	3	1	carrot	1	F	3	0	19	0		0	0	148.161402900005	148.26138760004
31269	0.0999838000279851	318	hunger	stimuli/non_foods\non-food_inanimate_padlock.jpg	1	3	1	non-food_inanimate_padlock	0	B	0	0	199	0		0	0	148.311402900028	148.411386700056
31306.5	0.0999895999557339	319	hunger	stimuli/foods\chocolate_pudding.jpg	1	3	1	chocolate_pudding	1	A	19	1	29	0		0	0	148.461402100045	148.561391700001
31344	0.0999818000127561	320	hunger	stimuli/foods\honey.jpg	1	3	1	honey	1	B	0	0	66	0		0	0	148.611402600014	148.711384400027
31381.5	0.0999957000021823	321	hunger	stimuli/non_foods\non-food_animate_camel.jpg	1	3	1	non-food_animate_camel	0	P	11	0	97	0		0	0	148.761399400013	148.861395100015
31419	0.0999756999663077	322	hunger	stimuli/non_foods\non-food_inanimate_short_sleeved_shirt.jpg	1	3	1	non-food_inanimate_short_sleeved_shirt	0	C	1	0	207	1	a	0.541834399977233	1	148.911409400054	149.011385100021
31456.5	0.100023699982557	323	hunger	stimuli/foods\peach.jpg	1	3	1	peach	1	B	0	0	238	0		0	0	149.061395100027	149.161418800009
31494	0.0999794999952428	324	hunger	stimuli/non_foods\non-food_animate_deer.jpg	1	3	1	non-food_animate_deer	0	N	10	0	105	0		0	0	149.21140010003	149.311379600025
31531.5	0.0999838000279851	325	hunger	stimuli/non_foods\non-food_animate_dachshund.jpg	1	3	1	non-food_animate_dachshund	0	C	1	0	104	0		0	0	149.36139440001	149.461378200038
31569	0.099992600036785	326	hunger	stimuli/non_foods\non-food_animate_lion.jpg	1	3	1	non-food_animate_lion	0	B	0	0	125	0		0	0	149.511391200009	149.611383800046
31606.5	0.099979099992197	327	hunger	stimuli/foods\fried_zucchini.jpg	1	3	1	fried_zucchini	1	J	6	0	51	0		0	0	149.661400800047	149.761379900039
31644	0.0999829000211321	328	hunger	stimuli/non_foods\non-food_inanimate_broom.jpg	1	3	1	non-food_inanimate_broom	0	B	0	0	164	0		0	0	149.811392100004	149.911375000025
31681.5	0.0999914999702014	329	hunger	stimuli/non_foods\non-food_inanimate_construction_helment.jpg	1	3	1	non-food_inanimate_construction_helment	0	W	16	0	175	0		0	0	149.961386600044	150.061378100014
31719	0.0999832000234164	330	hunger	stimuli/non_foods\non-food_animate_pigeon.jpg	1	3	1	non-food_animate_pigeon	0	S	13	0	136	0		0	0	150.111393700005	150.211376900028
31756.5	0.0999917999724858	331	hunger	stimuli/foods\red_beans.jpg	1	3	1	red_beans	1	K	7	0	255	0		0	0	150.261387900042	150.361379700014
31794	0.0999675000202842	332	hunger	stimuli/non_foods\non-food_animate_german_shepherd.jpg	1	3	1	non-food_animate_german_shepherd	0	H	5	0	114	0		0	0	150.411404700018	150.511372200039
31831.5	0.0999881000025198	333	hunger	stimuli/non_foods\non-food_animate_kangaroo.jpg	1	3	1	non-food_animate_kangaroo	0	S	13	0	122	0		0	0	150.561385600013	150.661373700015
31869	0.0999915000284091	334	hunger	stimuli/non_foods\non-food_animate_mouse.jpg	1	3	1	non-food_animate_mouse	0	D	2	0	131	0		0	0	150.711383800022	150.811375300051
31906.5	0.0999907000223175	335	hunger	stimuli/non_foods\non-food_inanimate_canoe.jpg	1	3	1	non-food_inanimate_canoe	0	T	14	0	170	0		0	0	150.861397700035	150.961388400057
31944	0.0999651000020094	336	hunger	stimuli/non_foods\non-food_animate_peacock.jpg	1	3	1	non-food_animate_peacock	0	V	15	0	134	0		0	0	151.011406500009	151.111371600011
31981.5	0.0999859999865294	337	hunger	stimuli/non_foods\non-food_inanimate_sun_flower.jpg	1	3	1	non-food_inanimate_sun_flower	0	Z	18	0	216	0		0	0	151.161381800019	151.261367800005
32019	0.0999887000070885	338	hunger	stimuli/non_foods\non-food_inanimate_wrench.jpg	1	3	1	non-food_inanimate_wrench	0	T	14	0	227	0		0	0	151.311382400047	151.411371100054
32056.5	0.0999879000009969	339	hunger	stimuli/foods\cooked_ham.jpg	1	3	1	cooked_ham	1	B	0	0	35	0		0	0	151.461381500005	151.561369400006
32094	0.0999891999526881	340	hunger	stimuli/non_foods\non-food_animate_baby_crawling.jpg	1	3	1	non-food_animate_baby_crawling	0	D	2	0	92	0		0	0	151.611377400055	151.711366600008
32131.5	0.0999948999960907	341	hunger	stimuli/non_foods\non-food_inanimate_towel.jpg	1	3	1	non-food_inanimate_towel	0	H	5	0	221	0		0	0	151.761380200041	151.861375100038
32169	0.0999867999926209	342	hunger	stimuli/non_foods\non-food_inanimate_desk.jpg	1	3	1	non-food_inanimate_desk	0	V	15	0	178	0		0	0	151.911389300018	152.01137610001
32206.5	0.0999771000351757	343	hunger	stimuli/non_foods\non-food_animate_yellow_bug.jpg	1	3	1	non-food_animate_yellow_bug	0	S	13	0	155	0		0	0	152.061386900023	152.161364000058
32244	0.0999874999979511	344	hunger	stimuli/non_foods\non-food_inanimate_socks.jpg	1	3	1	non-food_inanimate_socks	0	H	5	0	211	0		0	0	152.211376700026	152.311364200024
32281.5	0.0999857999850065	345	hunger	stimuli/foods\hazelnuts.jpg	1	3	1	hazelnuts	1	M	9	0	65	0		0	0	152.361377700057	152.461363500042
32319	0.0999838000279851	346	hunger	stimuli/non_foods\non-food_animate_rhino.jpg	1	3	1	non-food_animate_rhino	0	K	7	0	141	0		0	0	152.511376000009	152.611359800037
32356.5	0.100004700012505	347	hunger	stimuli/foods\mussels.jpg	1	3	1	mussels	1	W	16	0	86	0		0	0	152.661380000005	152.761384700018
32394	0.0999627999844961	348	hunger	stimuli/foods\nectarine.jpg	1	3	1	nectarine	1	Z	18	0	87	0		0	0	152.811395700031	152.911358500016
32431.5	0.0999869999941438	349	hunger	stimuli/foods\pickles.jpg	1	3	1	pickles	1	J	6	0	242	0		0	0	152.961370700039	153.061357700033
32469	0.0999821000150405	350	hunger	stimuli/non_foods\non-food_inanimate_tulip.jpg	1	3	1	non-food_inanimate_tulip	0	X	17	0	224	0		0	0	153.111365400022	153.211347500037
32506.5	0.099978199985344	351	hunger	stimuli/foods\smoked_ham.jpg	1	3	1	smoked_ham	1	C	1	0	266	0		0	0	153.261371900036	153.361350100022
32544	0.09999139996944	352	hunger	stimuli/non_foods\non-food_inanimate_cap.jpg	1	3	1	non-food_inanimate_cap	0	V	15	0	171	0		0	0	153.411363600055	153.511355000024
32581.5	0.0999793999944814	353	hunger	stimuli/non_foods\non-food_inanimate_speakers.jpg	1	3	1	non-food_inanimate_speakers	0	U	23	1	212	0		0	0	153.561378400016	153.661357800011
32619	0.0999882000032812	354	hunger	stimuli/foods\mandarin.jpg	1	3	1	mandarin	1	L	8	0	79	0		0	0	153.711366100004	153.811354300007
32656.5	0.099989700014703	355	hunger	stimuli/non_foods\non-food_inanimate_leaf.jpg	1	3	1	non-food_inanimate_leaf	0	Z	18	0	192	0		0	0	153.861362900003	153.961352600018
32694	0.0999834000249393	356	hunger	stimuli/foods\lollies.jpg	1	3	1	lollies	1	R	12	0	78	1	a	0.541829199995846	1	154.011375000002	154.111358400027
32731.5	0.100009100046009	357	hunger	stimuli/foods\egg.jpg	1	3	1	egg	1	V	15	0	45	0		0	0	154.161357300007	154.261366400053
32769	0.0999814999522641	358	hunger	stimuli/foods\almonds.jpg	1	3	1	almonds	1	S	13	0	0	0		0	0	154.311375700054	154.411357200006
32806.5	0.0999767999746837	359	hunger	stimuli/non_foods\non-food_animate_grasshopper.jpg	1	3	1	non-food_animate_grasshopper	0	R	12	0	117	0		0	0	154.461370000034	154.561346800008
32844	0.0999524000217207	360	hunger	stimuli/non_foods\non-food_animate_lizard.jpg	1	3	1	non-food_animate_lizard	0	H	5	0	126	0		0	0	154.611403100018	154.71135550004
32881.5	0.0999844000325538	361	hunger	stimuli/foods\salmon.jpg	1	3	1	salmon	1	V	15	0	264	0		0	0	154.761361500015	154.861345900048
32919	0.0999935999861918	362	hunger	stimuli/foods\potato_chips.jpg	1	3	1	potato_chips	1	T	14	0	247	0		0	0	154.911359300022	155.011352900008
32956.5	0.099987699999474	363	hunger	stimuli/non_foods\non-food_animate_clown.jpg	1	3	1	non-food_animate_clown	0	F	3	0	102	0		0	0	155.061365700036	155.161353400035
32994	0.0999912000261247	364	hunger	stimuli/non_foods\non-food_inanimate_clover.jpg	1	3	1	non-food_inanimate_clover	0	L	8	0	174	0		0	0	155.211350400001	155.311341600027
33031.5	0.0999851999804378	365	hunger	stimuli/non_foods\non-food_inanimate_cactus_pot_plant.jpg	1	3	1	non-food_inanimate_cactus_pot_plant	0	K	7	0	169	0		0	0	155.361354700057	155.461339900037
33069	0.0999841000302695	366	hunger	stimuli/foods\frankfurter_and_provolone_salad.jpg	1	3	1	frankfurter_and_provolone_salad	1	W	16	0	49	0		0	0	155.511355100025	155.611339200055
33106.5	0.0999847000348382	367	hunger	stimuli/non_foods\non-food_inanimate_stoplight.jpg	1	3	1	non-food_inanimate_stoplight	0	X	17	0	214	0		0	0	155.661351800023	155.761336500058
33144	0.0999864000477828	368	hunger	stimuli/foods\cracker.jpg	1	3	1	cracker	1	M	9	0	38	0		0	0	155.811354200006	155.911340600054
33181.5	0.0999846999766305	369	hunger	stimuli/foods\tomato.jpg	1	3	1	tomato	1	B	0	0	276	0		0	0	155.961350000056	156.061334700033
33219	0.0999955000006594	370	hunger	stimuli/foods\spaghetti_with_meat_sauce.jpg	1	3	1	spaghetti_with_meat_sauce	1	T	14	0	267	0		0	0	156.111350800027	156.211346300028
33256.5	0.0999994000303559	371	hunger	stimuli/foods\avocado.jpg	1	3	1	avocado	1	J	6	0	5	0		0	0	156.26136080001	156.361360200041
33294	0.100004800013267	372	hunger	stimuli/non_foods\non-food_inanimate_nettle.jpg	1	3	1	non-food_inanimate_nettle	0	H	5	0	197	0		0	0	156.411326900008	156.511331700021
33331.5	0.0999853000394069	373	hunger	stimuli/non_foods\non-food_animate_caterpillar.jpg	1	3	1	non-food_animate_caterpillar	0	F	3	0	99	0		0	0	156.561346900009	156.661332200048
33369	0.0999701999826357	374	hunger	stimuli/foods\cupcake.jpg	1	3	1	cupcake	1	J	6	0	42	0		0	0	156.711340800044	156.811311000027
33406.5	0.0999898000154644	375	hunger	stimuli/foods\peas.jpg	1	3	1	peas	1	X	17	0	240	0		0	0	156.861343600031	156.961333400046
33444	0.0999872999964282	376	hunger	stimuli/non_foods\non-food_inanimate_briefcase.jpg	1	3	1	non-food_inanimate_briefcase	0	P	11	0	163	0		0	0	157.01135450002	157.111341800017
33481.5	0.0999989999691024	377	hunger	stimuli/foods\stew_with_potatoes_and_carrots.jpg	1	3	1	stew_with_potatoes_and_carrots	1	H	5	0	271	0		0	0	157.161340700055	157.261339700024
33519	0.0999772999784909	378	hunger	stimuli/non_foods\non-food_animate_eagle.jpg	1	3	1	non-food_animate_eagle	0	B	0	0	110	0		0	0	157.311352700053	157.411330000032
33556.5	0.0999864999903366	379	hunger	stimuli/foods\capsicum.jpg	1	3	1	capsicum	1	P	11	0	18	0		0	0	157.461341200047	157.561327700038
33594	0.0999815000104718	380	hunger	stimuli/foods\lime.jpg	1	3	1	lime	1	L	8	0	76	0		0	0	157.611341400014	157.711322900024
33631.5	0.0999777999822982	381	hunger	stimuli/non_foods\non-food_animate_millipede.jpg	1	3	1	non-food_animate_millipede	0	D	2	0	129	0		0	0	157.761358300049	157.861336100032
33669	0.100010299996939	382	hunger	stimuli/foods\wafer.jpg	1	3	1	wafer	1	H	5	0	277	0		0	0	157.91133480001	158.011345100007
33706.5	0.100003900006413	383	hunger	stimuli/non_foods\non-food_animate_seal.jpg	1	3	1	non-food_animate_seal	0	L	8	0	146	0		0	0	158.061357700033	158.16136160004
33744	0.0999809999484569	384	hunger	stimuli/non_foods\non-food_animate_fox.jpg	1	3	1	non-food_animate_fox	0	Z	18	0	112	0		0	0	158.211334700056	158.311315700004
33781.5	0.0999746999586932	385	hunger	stimuli/non_foods\non-food_animate_swan.jpg	1	3	1	non-food_animate_swan	0	B	0	0	152	0		0	0	158.361345400044	158.461320100003
33819	0.100002899998799	386	hunger	stimuli/non_foods\non-food_animate_Asian_man.jpg	1	3	1	non-food_animate_Asian_man	0	W	16	0	88	0		0	0	158.511332600028	158.611335500027
33856.5	0.0999836000264622	387	hunger	stimuli/foods\ice_cream.jpg	1	3	1	ice_cream	1	D	2	0	68	0		0	0	158.661333700002	158.761317300028
33894	0.0999854999827221	388	hunger	stimuli/non_foods\non-food_inanimate_orchid.jpg	1	3	1	non-food_inanimate_orchid	0	N	10	0	198	0		0	0	158.811330100056	158.911315600039
33931.5	0.0999870999949053	389	hunger	stimuli/foods\taco.jpg	1	3	1	taco	1	M	9	0	274	0		0	0	158.961330700025	159.06131780002
33969	0.099990600021556	390	hunger	stimuli/foods\spinach.jpg	1	3	1	spinach	1	N	10	0	268	0		0	0	159.111325800011	159.211316400033
34006.5	0.0999910999671556	391	hunger	stimuli/non_foods\non-food_animate_parrot.jpg	1	3	1	non-food_animate_parrot	0	P	11	0	133	0		0	0	159.261326700042	159.361317800009
34044	0.0999892000108957	392	hunger	stimuli/foods\fried_calamari.jpg	1	3	1	fried_calamari	1	V	15	0	50	0		0	0	159.411327400012	159.511316600023
34081.5	0.0999866999918595	393	hunger	stimuli/foods\spring_onions.jpg	1	3	1	spring_onions	1	R	12	0	269	0		0	0	159.561325100018	159.66131180001
34119	0.100020400015637	394	hunger	stimuli/foods\eggplant.jpg	1	3	1	eggplant	1	S	13	0	46	0		0	0	159.711323900032	159.811344300047
34156.5	0.0999592000152916	395	hunger	stimuli/foods\toasted_bread_with_tomatoes.jpg	1	3	1	toasted_bread_with_tomatoes	1	W	16	0	275	0		0	0	159.861348100007	159.961307300022
34194	0.0999989999691024	396	hunger	stimuli/foods\mortadella.jpg	1	3	1	mortadella	1	F	3	0	83	0		0	0	160.011320000049	160.111319000018
34231.5	0.0999844000325538	397	hunger	stimuli/foods\brussel_sprouts.jpg	1	3	1	brussel_sprouts	1	Z	18	0	15	0		0	0	160.161334700009	160.261319100042
34269	0.0999891000101343	398	hunger	stimuli/non_foods\non-food_animate_sea_turtle.jpg	1	3	1	non-food_animate_sea_turtle	0	V	15	0	144	0		0	0	160.311318400025	160.411307500035
34306.5	0.0999848000355996	399	hunger	stimuli/foods\oyster.jpg	1	3	1	oyster	1	K	7	0	233	0		0	0	160.461322200019	160.561307000055
34344	0.0999855999834836	400	hunger	stimuli/foods\oven-roasted_tomatoes.jpg	1	3	1	oven-roasted_tomatoes	1	X	17	0	232	0		0	0	160.611329400039	160.711315000022
34381.5	0.0999757999670692	401	hunger	stimuli/foods\grapefruits.jpg	1	3	1	grapefruits	1	L	8	0	59	0		0	0	160.761328000051	160.861303800019
34419	0.100001200044062	402	hunger	stimuli/non_foods\non-food_animate_dolphin.jpg	1	3	1	non-food_animate_dolphin	0	K	7	0	106	0		0	0	160.9113182	161.011319400044
34456.5	0.0999480999889784	403	hunger	stimuli/foods\blackberry.jpg	1	3	1	blackberry	1	R	12	0	11	0		0	0	161.061332200014	161.161280300003
34494	0.099986599991098	404	hunger	stimuli/non_foods\non-food_inanimate_soccer_ball.jpg	1	3	1	non-food_inanimate_soccer_ball	0	S	13	0	210	0		0	0	161.211324200034	161.311310800025
34531.5	0.0999755999655463	405	hunger	stimuli/foods\garlic.jpg	1	3	1	garlic	1	K	7	0	56	0		0	0	161.361323800054	161.46129940002
34569	0.100006499968003	406	hunger	stimuli/foods\waffle.jpg	1	3	1	waffle	1	R	12	0	278	0		0	0	161.511311600043	161.611318100011
34606.5	0.0999634999898262	407	hunger	stimuli/foods\pasta_carbonara.jpg	1	3	1	pasta_carbonara	1	G	4	0	236	0		0	0	161.661336300022	161.761299800011
34644	0.0999879000009969	408	hunger	stimuli/foods\fruit_flan.jpg	1	3	1	fruit_flan	1	M	9	0	53	0		0	0	161.811308600008	161.911296500009
34681.5	0.0999849999789149	409	hunger	stimuli/non_foods\non-food_inanimate_fire_extinguisher.jpg	1	3	1	non-food_inanimate_fire_extinguisher	0	K	7	0	181	0		0	0	161.961310000042	162.061295000021
34719	0.0999827000196092	410	hunger	stimuli/foods\artichoke.jpg	1	3	1	artichoke	1	X	17	0	3	0		0	0	162.111311400018	162.211294100038
34756.5	0.0999853999819607	411	hunger	stimuli/non_foods\non-food_inanimate_fern.jpg	1	3	1	non-food_inanimate_fern	0	P	11	0	180	0		0	0	162.261309400026	162.361294800008
34794	0.099990600021556	412	hunger	stimuli/non_foods\non-food_animate_Causasian_man.jpg	1	3	1	non-food_animate_Causasian_man	0	K	7	0	89	0		0	0	162.411305600021	162.511296200042
34831.5	0.0999716999940574	413	hunger	stimuli/foods\green_beans.jpg	1	3	1	green_beans	1	W	16	0	61	0		0	0	162.561318600026	162.66129030002
34869	0.0999827000196092	414	hunger	stimuli/foods\pumpkin.jpg	1	3	1	pumpkin	1	L	8	0	250	0		0	0	162.711307200021	162.811289900041
34906.5	0.0999926999793388	415	hunger	stimuli/foods\donut.jpg	1	3	1	donut	1	K	7	0	44	0		0	0	162.861307500047	162.961300200026
34944	0.0999854999827221	416	hunger	stimuli/non_foods\non-food_animate_skunk.jpg	1	3	1	non-food_animate_skunk	0	R	12	0	147	0		0	0	163.011301300023	163.111286800005
34981.5	0.0999908000230789	417	hunger	stimuli/foods\baked_lamb_with_potatoes.jpg	1	3	1	baked_lamb_with_potatoes	1	W	16	0	8	0		0	0	163.1613029	163.261293700023
35019	0.099974500015378	418	hunger	stimuli/non_foods\non-food_animate_butterfly.jpg	1	3	1	non-food_animate_butterfly	0	P	11	0	96	0		0	0	163.311311700032	163.411286200047
35056.5	0.099966699955985	419	hunger	stimuli/non_foods\non-food_inanimate_cupboard.jpg	1	3	1	non-food_inanimate_cupboard	0	N	10	0	177	0		0	0	163.461319600057	163.561286300013
35860.75	0.0999738000100479	420	hunger	stimuli/foods\pork_and_rice.jpg	1	4	1	pork_and_rice	1	D	2	0	245	0		0	0	166.677955500025	166.777929300035
35898.25	0.0999755000229925	421	hunger	stimuli/non_foods\non-food_animate_cheetah.jpg	1	4	1	non-food_animate_cheetah	0	V	15	0	100	0		0	0	166.827950400009	166.927925900032
35935.75	0.0999831999652088	422	hunger	stimuli/foods\rice.jpg	1	4	1	rice	1	K	7	0	257	0		0	0	166.977959200041	167.077942400007
35973.25	0.100007699977141	423	hunger	stimuli/foods\risotto_with_zucchini.jpg	1	4	1	risotto_with_zucchini	1	J	6	0	260	0		0	0	167.127942300052	167.22795000003
36010.75	0.0999940999899991	424	hunger	stimuli/non_foods\non-food_inanimate_tree.jpg	1	4	1	non-food_inanimate_tree	0	B	0	0	223	0		0	0	167.27794520004	167.37793930003
36048.25	0.0999828999629244	425	hunger	stimuli/non_foods\non-food_animate_killer_whale.jpg	1	4	1	non-food_animate_killer_whale	0	H	5	0	123	0		0	0	167.427951400052	167.527934300015
36085.75	0.099985100037884	426	hunger	stimuli/foods\dates.jpg	1	4	1	dates	1	T	14	0	43	0		0	0	167.577941700001	167.677926800039
36123.25	0.100014199968427	427	hunger	stimuli/foods\chocolate_bar.jpg	1	4	1	chocolate_bar	1	F	3	0	26	0		0	0	167.727950500033	167.827964700002
36160.75	0.0999344000010751	428	hunger	stimuli/non_foods\non-food_inanimate_folding_chair.jpg	1	4	1	non-food_inanimate_folding_chair	0	M	9	0	182	0		0	0	167.877987300046	167.977921700047
36198.25	0.0999825999606401	429	hunger	stimuli/non_foods\non-food_inanimate_ring.jpg	1	4	1	non-food_inanimate_ring	0	N	10	0	203	0		0	0	168.027938500047	168.127921100007
36235.75	0.0999771999777295	430	hunger	stimuli/foods\onion.jpg	1	4	1	onion	1	K	7	0	229	0		0	0	168.177948000026	168.277925200004
36273.25	0.0999841000302695	431	hunger	stimuli/foods\kiwi.jpg	1	4	1	kiwi	1	B	0	0	69	0		0	0	168.327935300011	168.427919400041
36310.75	0.099997200013604	432	hunger	stimuli/foods\rockmelon.jpg	1	4	1	rockmelon	1	P	11	0	262	0		0	0	168.47793210001	168.577929300023
36348.25	0.0999831999652088	433	hunger	stimuli/foods\chocolate_pralines.jpg	1	4	1	chocolate_pralines	1	C	1	0	28	0		0	0	168.627932800038	168.727916000003
36385.75	0.0999874999979511	434	hunger	stimuli/foods\mushroom.jpg	1	4	1	mushroom	1	J	6	0	85	0		0	0	168.777929000033	168.877916500031
36423.25	0.0999863999895751	435	hunger	stimuli/foods\cauliflower.jpg	1	4	1	cauliflower	1	F	3	0	20	0		0	0	168.92793190002	169.027918300009
36460.75	0.0999733000062406	436	hunger	stimuli/non_foods\non-food_inanimate_tent.jpg	1	4	1	non-food_inanimate_tent	0	S	13	0	219	0		0	0	169.077929000021	169.177902300027
36498.25	0.100003800005652	437	hunger	stimuli/foods\baked_cod_with_carrots_and_green_beans.jpg	1	4	1	baked_cod_with_carrots_and_green_beans	1	K	7	0	7	0		0	0	169.227921500045	169.327925300051
36535.75	0.0999931000405923	438	hunger	stimuli/non_foods\non-food_animate_alligator.jpg	1	4	1	non-food_animate_alligator	0	Z	18	0	90	0		0	0	169.377920300001	169.477913400042
36573.25	0.0999900999595411	439	hunger	stimuli/foods\grilled_chicken_breast.jpg	1	4	1	grilled_chicken_breast	1	S	13	0	63	0		0	0	169.527923000045	169.627913100005
36610.75	0.0999309999751858	440	hunger	stimuli/foods\gnocchi.jpg	1	4	1	gnocchi	1	W	16	0	58	0		0	0	169.677989600052	169.777920600027
36648.25	0.099985100037884	441	hunger	stimuli/foods\pineapple.jpg	1	4	1	pineapple	1	C	1	0	243	0		0	0	169.8279339	169.927919000038
36685.75	0.10000019997824	442	hunger	stimuli/non_foods\non-food_inanimate_protractor.jpg	1	4	1	non-food_inanimate_protractor	0	H	5	0	201	0		0	0	169.977921000042	170.07792120002
36723.25	0.0999867999926209	443	hunger	stimuli/foods\strawberry.jpg	1	4	1	strawberry	1	K	7	0	272	0		0	0	170.127919400053	170.227906200045
36760.75	0.0999874999979511	444	hunger	stimuli/non_foods\non-food_animate_duck.jpg	1	4	1	non-food_animate_duck	0	P	11	0	109	0		0	0	170.277920900029	170.377908400027
36798.25	0.0999822000158019	445	hunger	stimuli/non_foods\non-food_animate_mammoth.jpg	1	4	1	non-food_animate_mammoth	0	F	3	0	128	0		0	0	170.42792560003	170.527907800046
36835.75	0.0999854000401683	446	hunger	stimuli/foods\steak.jpg	1	4	1	steak	1	R	12	0	270	0		0	0	170.577920800017	170.677906200057
36873.25	0.100000499980524	447	hunger	stimuli/non_foods\non-food_animate_sea_lion.jpg	1	4	1	non-food_animate_sea_lion	0	T	14	0	143	0		0	0	170.727913800045	170.827914300025
36910.75	0.0999826999614015	448	hunger	stimuli/foods\cucumber.jpg	1	4	1	cucumber	1	Z	18	0	41	1	a	0	0	170.877918300044	170.977901000006
36948.25	0.0999837999697775	449	hunger	stimuli/non_foods\non-food_animate_giraffe.jpg	1	4	1	non-food_animate_giraffe	0	C	1	0	115	0		0	0	171.027915500046	171.127899300016
36985.75	0.0999884000048041	450	hunger	stimuli/non_foods\non-food_inanimate_buds.jpg	1	4	1	non-food_inanimate_buds	0	Z	18	0	166	0		0	0	171.17791790003	171.277906300034
37023.25	0.100000800041016	451	hunger	stimuli/non_foods\non-food_animate_horse.jpg	1	4	1	non-food_animate_horse	0	D	2	0	119	0		0	0	171.327896200004	171.427897000045
37060.75	0.0999848999781534	452	hunger	stimuli/foods\swordfish.jpg	1	4	1	swordfish	1	L	8	0	273	0		0	0	171.477927400032	171.57791230001
37098.25	0.0999657000065781	453	hunger	stimuli/non_foods\non-food_inanimate_bicycle.jpg	1	4	1	non-food_inanimate_bicycle	0	P	11	0	161	0		0	0	171.62792670005	171.727892400057
37135.75	0.0999861999880522	454	hunger	stimuli/foods\apple.jpg	1	4	1	apple	1	Z	18	0	1	0		0	0	171.777913200029	171.877899400017
37173.25	0.100000600039493	455	hunger	stimuli/non_foods\non-food_animate_donkey.jpg	1	4	1	non-food_animate_donkey	0	T	14	0	107	0		0	0	171.927907100006	172.027907700045
37210.75	0.0999832999659702	456	hunger	stimuli/foods\hotdog.jpg	1	4	1	hotdog	1	S	13	0	67	0		0	0	172.077923500037	172.177906800003
37248.25	0.0999755000229925	457	hunger	stimuli/foods\minestrone_soup.jpg	1	4	1	minestrone_soup	1	B	0	0	82	0		0	0	172.227917400014	172.327892900037
37285.75	0.0999842999735847	458	hunger	stimuli/non_foods\non-food_animate_ram.jpg	1	4	1	non-food_animate_ram	0	S	13	0	140	0		0	0	172.377909100032	172.477893400006
37323.25	0.0999743999564089	459	hunger	stimuli/foods\pomegranate.jpg	1	4	1	pomegranate	1	J	6	0	244	0		0	0	172.527915800049	172.627890200005
37360.75	0.0999974999576807	460	hunger	stimuli/foods\pear.jpg	1	4	1	pear	1	V	15	0	239	0		0	0	172.677905800054	172.777903300012
37398.25	0.0999766999739222	461	hunger	stimuli/foods\salami.jpg	1	4	1	salami	1	J	6	0	263	0		0	0	172.827916000038	172.927892700012
37435.75	0.0999908999656327	462	hunger	stimuli/foods\brownie.jpg	1	4	1	brownie	1	S	13	0	14	0		0	0	172.977905600041	173.077896500006
37473.25	0.0999823000165634	463	hunger	stimuli/foods\rice_cake.jpg	1	4	1	rice_cake	1	G	4	0	258	0		0	0	173.127917100035	173.227899400052
37510.75	0.0999792999937199	464	hunger	stimuli/non_foods\non-food_inanimate_headphones.jpg	1	4	1	non-food_inanimate_headphones	0	H	5	0	188	0		0	0	173.277907500044	173.377886800037
37548.25	0.0999944999930449	465	hunger	stimuli/non_foods\non-food_animate_porcupine.jpg	1	4	1	non-food_animate_porcupine	0	D	2	0	138	0		0	0	173.427902200026	173.527896700019
37585.75	0.0999844000325538	466	hunger	stimuli/non_foods\non-food_animate_gorilla.jpg	1	4	1	non-food_animate_gorilla	0	B	0	0	116	0		0	0	173.577904900012	173.677889300045
37623.25	0.0999823999591172	467	hunger	stimuli/non_foods\non-food_inanimate_waterlily.jpg	1	4	1	non-food_inanimate_waterlily	0	Z	18	0	226	0		0	0	173.727899100049	173.827881500009
37660.75	0.0999875999987125	468	hunger	stimuli/non_foods\non-food_animate_dragonfly.jpg	1	4	1	non-food_animate_dragonfly	0	X	17	0	108	0		0	0	173.877896700054	173.977884300053
37698.25	0.0999806000036187	469	hunger	stimuli/non_foods\non-food_animate_iguana.jpg	1	4	1	non-food_animate_iguana	0	T	14	0	121	0		0	0	174.027897500026	174.127878100029
37735.75	0.0999831999652088	470	hunger	stimuli/non_foods\non-food_animate_ladybug.jpg	1	4	1	non-food_animate_ladybug	0	M	9	0	124	0		0	0	174.177896100038	174.277879300003
37773.25	0.0999716999940574	471	hunger	stimuli/non_foods\non-food_inanimate_watering_can.jpg	1	4	1	non-food_inanimate_watering_can	0	T	14	0	225	0		0	0	174.327920500014	174.427892200009
37810.75	0.0999887000070885	472	hunger	stimuli/non_foods\non-food_animate_green_bug.jpg	1	4	1	non-food_animate_green_bug	0	S	13	0	118	0		0	0	174.477890500042	174.577879200049
37848.25	0.099987699999474	473	hunger	stimuli/foods\broccoli.jpg	1	4	1	broccoli	1	C	1	0	13	0		0	0	174.627892500022	174.727880200022
37885.75	0.0999912000261247	474	hunger	stimuli/foods\celery.jpg	1	4	1	celery	1	Z	18	0	21	0		0	0	174.77790310001	174.877894300036
37923.25	0.0999626999837346	475	hunger	stimuli/non_foods\non-food_inanimate_pine_cone.jpg	1	4	1	non-food_inanimate_pine_cone	0	B	0	0	200	0		0	0	174.927912200044	175.027874900028
37960.75	0.0999848999781534	476	hunger	stimuli/non_foods\non-food_inanimate_teddy_bear.jpg	1	4	1	non-food_inanimate_teddy_bear	0	M	9	0	218	0		0	0	175.077892500034	175.177877400012
37998.25	0.0999888000078499	477	hunger	stimuli/non_foods\non-food_animate_owl.jpg	1	4	1	non-food_animate_owl	0	F	3	0	132	0		0	0	175.227882800042	175.32787160005
38035.75	0.0999880000017583	478	hunger	stimuli/non_foods\non-food_inanimate_guitar.jpg	1	4	1	non-food_inanimate_guitar	0	C	1	0	185	0		0	0	175.377882600005	175.477870600007
38073.25	0.0999867999926209	479	hunger	stimuli/foods\chilli.jpg	1	4	1	chilli	1	T	14	0	25	0		0	0	175.527895600011	175.627882400004
38110.75	0.0999846999766305	480	hunger	stimuli/non_foods\non-food_inanimate_chair.jpg	1	4	1	non-food_inanimate_chair	0	W	16	0	172	0		0	0	175.677886700025	175.777871400001
38148.25	0.099987699999474	481	hunger	stimuli/non_foods\non-food_inanimate_stapler.jpg	1	4	1	non-food_inanimate_stapler	0	M	9	0	213	0		0	0	175.827882100013	175.927869800013
38185.75	0.099986000044737	482	hunger	stimuli/non_foods\non-food_inanimate_jeans.jpg	1	4	1	non-food_inanimate_jeans	0	P	11	0	191	0		0	0	175.977885700006	176.07787170005
38223.25	0.0999639000510797	483	hunger	stimuli/non_foods\non-food_animate_llama.jpg	1	4	1	non-food_animate_llama	0	V	15	0	127	0		0	0	176.127905200003	176.227869100054
38260.75	0.099983699969016	484	hunger	stimuli/foods\bagel.jpg	1	4	1	bagel	1	W	16	0	6	0		0	0	176.277884600044	176.377868300013
38298.25	0.0999888000078499	485	hunger	stimuli/foods\brie.jpg	1	4	1	brie	1	G	4	0	12	0		0	0	176.427877700015	176.527866500022
38335.75	0.100002300052438	486	hunger	stimuli/foods\coffee_beans.jpg	1	4	1	coffee_beans	1	X	17	0	34	0		0	0	176.577880500001	176.677882800053
38373.25	0.0999398999847472	487	hunger	stimuli/foods\mango.jpg	1	4	1	mango	1	C	1	0	80	0		0	0	176.72792080004	176.827860700025
38410.75	0.0999850999796763	488	hunger	stimuli/non_foods\non-food_animate_young_girl.jpg	1	4	1	non-food_animate_young_girl	0	K	7	0	157	0		0	0	176.877877400024	176.977862500004
38448.25	0.0999895000131801	489	hunger	stimuli/foods\cooked_prawn.jpg	1	4	1	cooked_prawn	1	V	15	0	36	0		0	0	177.027872700011	177.127862200025
38485.75	0.0999861999880522	490	hunger	stimuli/foods\red_cabbage.jpg	1	4	1	red_cabbage	1	H	5	0	256	0		0	0	177.177888200036	177.277874400024
38523.25	0.0999717999948189	491	hunger	stimuli/foods\beetroots.jpg	1	4	1	beetroots	1	P	11	0	10	0		0	0	177.327883700025	177.42785550002
38560.75	0.099984000029508	492	hunger	stimuli/non_foods\non-food_inanimate_chandelier.jpg	1	4	1	non-food_inanimate_chandelier	0	G	4	0	173	0		0	0	177.477885300003	177.577869300032
38598.25	0.0999723999993876	493	hunger	stimuli/foods\cannoli.jpg	1	4	1	cannoli	1	S	13	0	17	0		0	0	177.627883800014	177.727856200014
38635.75	0.0999871999956667	494	hunger	stimuli/non_foods\non-food_inanimate_nailpolish.jpg	1	4	1	non-food_inanimate_nailpolish	0	V	15	0	195	0		0	0	177.777872200008	177.877859400003
38673.25	0.0999718999955803	495	hunger	stimuli/foods\fennel.jpg	1	4	1	fennel	1	F	3	0	47	0		0	0	177.927880400035	178.027852300031
38710.75	0.0999861999880522	496	hunger	stimuli/foods\clams.jpg	1	4	1	clams	1	B	0	0	32	0		0	0	178.077868600027	178.177854800015
38748.25	0.0999709000461735	497	hunger	stimuli/foods\hamburger.jpg	1	4	1	hamburger	1	H	5	0	64	0		0	0	178.227885800006	178.327856700053
38785.75	0.100007699977141	498	hunger	stimuli/foods\papaya.jpg	1	4	1	papaya	1	C	1	0	235	0		0	0	178.377865700051	178.477873400028
38823.25	0.099971599993296	499	hunger	stimuli/non_foods\non-food_inanimate_highlighter.jpg	1	4	1	non-food_inanimate_highlighter	0	K	7	0	189	0		0	0	178.527891100035	178.627862700028
38860.75	0.0999741000123322	500	hunger	stimuli/foods\pea_pod.jpg	1	4	1	pea_pod	1	H	5	0	237	0		0	0	178.677876300004	178.777850400016
38898.25	0.0999852999811992	501	hunger	stimuli/foods\figs.jpg	1	4	1	figs	1	L	8	0	48	0		0	0	178.82786400005	178.927849300031
38935.75	0.0999833000241779	502	hunger	stimuli/foods\cereal.jpg	1	4	1	cereal	1	J	6	0	22	0		0	0	178.977865900029	179.077849200054
38973.25	0.0999817000119947	503	hunger	stimuli/non_foods\non-food_animate_baby_sitting.jpg	1	4	1	non-food_animate_baby_sitting	0	W	16	0	93	0		0	0	179.127862500027	179.227844200039
39010.75	0.0999884000048041	504	hunger	stimuli/non_foods\non-food_animate_frog.jpg	1	4	1	non-food_animate_frog	0	D	2	0	113	0		0	0	179.277861100039	179.377849500044
39048.25	0.099982799962163	505	hunger	stimuli/foods\lemon_meringue_pie.jpg	1	4	1	lemon_meringue_pie	1	N	10	0	73	0		0	0	179.427860000054	179.527842800017
39085.75	0.0999848000355996	506	hunger	stimuli/non_foods\non-food_inanimate_suitcase.jpg	1	4	1	non-food_inanimate_suitcase	0	I	21	1	215	0		0	0	179.577858900011	179.677843700047
39123.25	0.0999750000191852	507	hunger	stimuli/foods\ginger_root.jpg	1	4	1	ginger_root	1	Z	18	0	57	0		0	0	179.727872800024	179.827847800043
39160.75	0.0999858999857679	508	hunger	stimuli/foods\chocolate_chip_cookies.jpg	1	4	1	chocolate_chip_cookies	1	T	14	0	27	0		0	0	179.877857300045	179.977843200031
39198.25	0.100001600047108	509	hunger	stimuli/non_foods\non-food_inanimate_couch.jpg	1	4	1	non-food_inanimate_couch	0	H	5	0	176	0		0	0	180.027856900007	180.127858500055
39235.75	0.0999802000005729	510	hunger	stimuli/foods\potato_and_green_bean_salad.jpg	1	4	1	potato_and_green_bean_salad	1	B	0	0	246	1	a	0.593192000000272	1	180.177865100035	180.277845300036
39273.25	0.0999645999982022	511	hunger	stimuli/foods\green_olives.jpg	1	4	1	green_olives	1	F	3	0	62	0		0	0	180.327873300004	180.427837900002
39310.75	0.0999918999732472	512	hunger	stimuli/non_foods\non-food_inanimate_scissors.jpg	1	4	1	non-food_inanimate_scissors	0	R	12	0	205	0		0	0	180.477851500036	180.577843400009
39348.25	0.0999737000092864	513	hunger	stimuli/foods\savory_pie.jpg	1	4	1	savory_pie	1	F	3	0	265	0		0	0	180.627863300033	180.727837000042
39385.75	0.0999870999949053	514	hunger	stimuli/non_foods\non-food_animate_runner.jpg	1	4	1	non-food_animate_runner	0	W	16	0	142	0		0	0	180.777851800027	180.877838900022
39423.25	0.0999864999903366	515	hunger	stimuli/non_foods\non-food_animate_snail.jpg	1	4	1	non-food_animate_snail	0	J	6	0	149	0		0	0	180.927862100012	181.027848600002
39460.75	0.0999709999887273	516	hunger	stimuli/foods\cinnamon_sroll.jpg	1	4	1	cinnamon_sroll	1	Z	18	0	31	0		0	0	181.077860800026	181.177831800014
39498.25	0.0999879000009969	517	hunger	stimuli/foods\lettuce.jpg	1	4	1	lettuce	1	M	9	0	75	0		0	0	181.227856800018	181.327844700019
39535.75	0.0999533000285737	518	hunger	stimuli/foods\raisins.jpg	1	4	1	raisins	1	K	7	0	252	0		0	0	181.377883100009	181.477836400038
39573.25	0.0999916999717243	519	hunger	stimuli/non_foods\non-food_inanimate_toilet.jpg	1	4	1	non-food_inanimate_toilet	0	H	5	0	220	0		0	0	181.527845600038	181.62783730001
39610.75	0.0999933000421152	520	hunger	stimuli/foods\cream_donuts.jpg	1	4	1	cream_donuts	1	T	14	0	39	0		0	0	181.677846100007	181.777839400049
39648.25	0.0999742000130937	521	hunger	stimuli/non_foods\non-food_inanimate_hay.jpg	1	4	1	non-food_inanimate_hay	0	Z	18	0	187	0		0	0	181.827854000032	181.927828200045
39685.75	0.0999710999894887	522	hunger	stimuli/foods\roasted_chicken.jpg	1	4	1	roasted_chicken	1	N	10	0	261	0		0	0	181.977857300022	182.077828400012
39723.25	0.09997049998492	523	hunger	stimuli/non_foods\non-food_animate_young_boy.jpg	1	4	1	non-food_animate_young_boy	0	D	2	0	156	0		0	0	182.127858700056	182.227829200041
39760.75	0.0999846000340767	524	hunger	stimuli/foods\fruit_pie.jpg	1	4	1	fruit_pie	1	T	14	0	54	0		0	0	182.277841200004	182.377825800038
39798.25	0.099995199998375	525	hunger	stimuli/non_foods\non-food_inanimate_bowling_ball.jpg	1	4	1	non-food_inanimate_bowling_ball	0	J	6	0	162	0		0	0	182.427842200035	182.527837400034
39835.75	0.0999869999941438	526	hunger	stimuli/non_foods\non-food_animate_polar_bear.jpg	1	4	1	non-food_animate_polar_bear	0	S	13	0	137	0		0	0	182.577850900008	182.677837900002
39873.25	0.0999834999674931	527	hunger	stimuli/foods\fries.jpg	1	4	1	fries	1	Z	18	0	52	0		0	0	182.727838300052	182.82782180002
39910.75	0.100002099992707	528	hunger	stimuli/foods\grapes.jpg	1	4	1	grapes	1	J	6	0	60	0		0	0	182.87783360004	182.977835700032
39948.25	0.099969900038559	529	hunger	stimuli/non_foods\non-food_animate_bat.jpg	1	4	1	non-food_animate_bat	0	D	2	0	94	0		0	0	183.0278483	183.127818200039
39985.75	0.100004700012505	530	hunger	stimuli/non_foods\non-food_inanimate_gloves.jpg	1	4	1	non-food_inanimate_gloves	0	C	1	0	183	0		0	0	183.177857300034	183.277862000046
40023.25	0.0999821000150405	531	hunger	stimuli/non_foods\non-food_inanimate_skirt.jpg	1	4	1	non-food_inanimate_skirt	0	X	17	0	209	0		0	0	183.32784610003	183.427828200045
40060.75	0.099985100037884	532	hunger	stimuli/non_foods\non-food_inanimate_bush.jpg	1	4	1	non-food_inanimate_bush	0	R	12	0	167	0		0	0	183.477833600016	183.577818700054
40098.25	0.0999961000052281	533	hunger	stimuli/foods\chestnut.jpg	1	4	1	chestnut	1	A	19	1	24	0		0	0	183.62783230003	183.727828400035
40135.75	0.0999720000545494	534	hunger	stimuli/foods\corncob.jpg	1	4	1	corncob	1	B	0	0	37	0		0	0	183.7778483	183.877820300055
40173.25	0.0999787000473589	535	hunger	stimuli/foods\cabbage.jpg	1	4	1	cabbage	1	K	7	0	16	0		0	0	183.92783890001	184.027817600057
40210.75	0.100013299961574	536	hunger	stimuli/foods\raw_ham.jpg	1	4	1	raw_ham	1	D	2	0	253	1	a	0.541899400006514	1	184.077840600046	184.177853900008
40248.25	0.0999859999865294	537	hunger	stimuli/foods\potatoes.jpg	1	4	1	potatoes	1	R	12	0	248	1	a	0.703444199985825	1	184.227828500036	184.327814500022
40285.75	0.100002399994992	538	hunger	stimuli/non_foods\non-food_inanimate_toy_airplane.jpg	1	4	1	non-food_inanimate_toy_airplane	0	L	8	0	222	0		0	0	184.377810300037	184.477812700032
40323.25	0.0999804000020958	539	hunger	stimuli/foods\meatballs.jpg	1	4	1	meatballs	1	V	15	0	81	0		0	0	184.527829500032	184.627809900034
40360.75	0.0999974000151269	540	hunger	stimuli/non_foods\non-food_animate_penguin.jpg	1	4	1	non-food_animate_penguin	0	R	12	0	135	0		0	0	184.677822800004	184.777820200019
40398.25	0.0999860999872908	541	hunger	stimuli/foods\pancakes.jpg	1	4	1	pancakes	1	D	2	0	234	0		0	0	184.827836400014	184.927822500002
40435.75	0.0999728000024334	542	hunger	stimuli/foods\watermelon.jpg	1	4	1	watermelon	1	F	3	0	279	0		0	0	184.977833600016	185.077806400019
40473.25	0.0999896000139415	543	hunger	stimuli/non_foods\non-food_animate_squirrel.jpg	1	4	1	non-food_animate_squirrel	0	V	15	0	150	0		0	0	185.127824200026	185.22781380004
40510.75	0.0999778999830596	544	hunger	stimuli/non_foods\non-food_inanimate_moss.jpg	1	4	1	non-food_inanimate_moss	0	W	16	0	194	0		0	0	185.277832500055	185.377810400038
40548.25	0.0999918999732472	545	hunger	stimuli/foods\asparagus.jpg	1	4	1	asparagus	1	D	2	0	4	0		0	0	185.427820800047	185.52781270002
40585.75	0.0999862999888137	546	hunger	stimuli/non_foods\non-food_inanimate_bucket.jpg	1	4	1	non-food_inanimate_bucket	0	X	17	0	165	0		0	0	185.577832300041	185.67781860003
40623.25	0.0999690999742597	547	hunger	stimuli/foods\lentils.jpg	1	4	1	lentils	1	W	16	0	74	0		0	0	185.727828300034	185.827797400008
40660.75	0.0999949999968521	548	hunger	stimuli/non_foods\non-food_inanimate_shell.jpg	1	4	1	non-food_inanimate_shell	0	Z	18	0	206	0		0	0	185.877817700035	185.977812700032
40698.25	0.0999854000401683	549	hunger	stimuli/non_foods\non-food_animate_seahorse.jpg	1	4	1	non-food_animate_seahorse	0	H	5	0	145	0		0	0	186.027827700018	186.127813100058
40735.75	0.0999789999914356	550	hunger	stimuli/non_foods\non-food_inanimate_horn.jpg	1	4	1	non-food_inanimate_horn	0	T	14	0	190	0		0	0	186.177824800019	186.277803800011
40773.25	0.100001100043301	551	hunger	stimuli/non_foods\non-food_inanimate_button.jpg	1	4	1	non-food_inanimate_button	0	X	17	0	168	0		0	0	186.327812200005	186.427813300048
40810.75	0.0999731000047177	552	hunger	stimuli/foods\pepperoni_pizza.jpg	1	4	1	pepperoni_pizza	1	L	8	0	241	0		0	0	186.477825800015	186.57779890002
40848.25	0.10000299999956	553	hunger	stimuli/foods\linguine_with_clams.jpg	1	4	1	linguine_with_clams	1	C	1	0	77	0		0	0	186.627813000057	186.727816000057
40885.75	0.0999934999854304	554	hunger	stimuli/foods\cinnamon.jpg	1	4	1	cinnamon	1	P	11	0	30	0		0	0	186.777814600035	186.87780810002
40923.25	0.0999701000400819	555	hunger	stimuli/non_foods\non-food_inanimate_table.jpg	1	4	1	non-food_inanimate_table	0	W	16	0	217	0		0	0	186.927822700003	187.027792800043
40960.75	0.0999881000025198	556	hunger	stimuli/non_foods\non-food_animate_tortoise.jpg	1	4	1	non-food_animate_tortoise	0	J	6	0	153	0		0	0	187.077812300005	187.177800400008
40998.25	0.0999870999949053	557	hunger	stimuli/non_foods\non-food_inanimate_rack.jpg	1	4	1	non-food_inanimate_rack	0	H	5	0	202	0		0	0	187.227820500033	187.327807600028
41035.75	0.10002940002596	558	hunger	stimuli/foods\museli_bars.jpg	1	4	1	museli_bars	1	K	7	0	84	0		0	0	187.37782340002	187.477852800046
41073.25	0.099985699984245	559	hunger	stimuli/non_foods\non-food_inanimate_alarm_clock.jpg	1	4	1	non-food_inanimate_alarm_clock	0	L	8	0	158	0		0	0	187.527806000027	187.627791700012
41835.75	0.0999776999815367	560	hunger	stimuli/non_foods\non-food_animate_lion.jpg	1	5	1	non-food_animate_lion	0	F	3	0	125	0		0	0	190.577794100042	190.677771800023
41873.25	0.0999982999637723	561	hunger	stimuli/non_foods\non-food_animate_baby_crawling.jpg	1	5	1	non-food_animate_baby_crawling	0	D	2	0	92	0		0	0	190.727784300048	190.827782600012
41910.75	0.0999677000218071	562	hunger	stimuli/non_foods\non-food_inanimate_grass.jpg	1	5	1	non-food_inanimate_grass	0	B	0	0	184	0		0	0	190.877810200036	190.977777900058
41948.25	0.0999839999713004	563	hunger	stimuli/foods\cauliflower.jpg	1	5	1	cauliflower	1	Z	18	0	20	0		0	0	191.027793600049	191.127777600021
41985.75	0.0999879000009969	564	hunger	stimuli/non_foods\non-food_animate_yellow_bug.jpg	1	5	1	non-food_animate_yellow_bug	0	C	1	0	155	0		0	0	191.177793100011	191.277781000012
42023.25	0.0999996000318788	565	hunger	stimuli/non_foods\non-food_animate_sea_turtle.jpg	1	5	1	non-food_animate_sea_turtle	0	N	10	0	144	0		0	0	191.327789500006	191.427789100038
42060.75	0.0999902000185102	566	hunger	stimuli/foods\mushroom.jpg	1	5	1	mushroom	1	Z	18	0	85	0		0	0	191.477805000031	191.57779520005
42098.25	0.0999694000347517	567	hunger	stimuli/non_foods\non-food_inanimate_horn.jpg	1	5	1	non-food_inanimate_horn	0	M	9	0	190	0		0	0	191.627791600011	191.727761000046
42135.75	0.0999894000124186	568	hunger	stimuli/foods\minestrone_soup.jpg	1	5	1	minestrone_soup	1	B	0	0	82	0		0	0	191.77778080001	191.877770200022
42173.25	0.099979099992197	569	hunger	stimuli/non_foods\non-food_inanimate_chandelier.jpg	1	5	1	non-food_inanimate_chandelier	0	P	11	0	173	0		0	0	191.927780900034	192.027760000026
42210.75	0.0999890000093728	570	hunger	stimuli/non_foods\non-food_inanimate_rope.jpg	1	5	1	non-food_inanimate_rope	0	Z	18	0	204	0		0	0	192.077778400038	192.177767400048
42248.25	0.0999833999667317	571	hunger	stimuli/foods\swordfish.jpg	1	5	1	swordfish	1	O	22	1	273	0		0	0	192.227776500047	192.327759900014
42285.75	0.0999806000036187	572	hunger	stimuli/non_foods\non-food_inanimate_teddy_bear.jpg	1	5	1	non-food_inanimate_teddy_bear	0	D	2	0	218	0		0	0	192.377783000004	192.477763600007
42323.25	0.0999846000340767	573	hunger	stimuli/non_foods\non-food_animate_hummingbird.jpg	1	5	1	non-food_animate_hummingbird	0	B	0	0	120	0		0	0	192.52777310001	192.627757700044
42360.75	0.0999842999735847	574	hunger	stimuli/non_foods\non-food_inanimate_stoplight.jpg	1	5	1	non-food_inanimate_stoplight	0	F	3	0	214	1	a	0.541829800000414	1	192.677775500051	192.777759800025
42398.25	0.0999864999903366	575	hunger	stimuli/foods\pancakes.jpg	1	5	1	pancakes	1	S	13	0	234	0		0	0	192.827773300058	192.927759800048
42435.75	0.0999843000317924	576	hunger	stimuli/foods\spring_onions.jpg	1	5	1	spring_onions	1	R	12	0	269	0		0	0	192.977772300015	193.077756600047
42473.25	0.100013900024351	577	hunger	stimuli/foods\mortadella.jpg	1	5	1	mortadella	1	B	0	0	83	0		0	0	193.127767800004	193.227781700029
42510.75	0.0999603000236675	578	hunger	stimuli/non_foods\non-food_inanimate_suitcase.jpg	1	5	1	non-food_inanimate_suitcase	0	X	17	0	215	0		0	0	193.277796600014	193.377756900038
42548.25	0.0999807000043802	579	hunger	stimuli/non_foods\non-food_inanimate_canoe.jpg	1	5	1	non-food_inanimate_canoe	0	V	15	0	170	0		0	0	193.427769200003	193.527749900008
42585.75	0.0999872999964282	580	hunger	stimuli/non_foods\non-food_animate_Asian_man.jpg	1	5	1	non-food_animate_Asian_man	0	J	6	0	88	0		0	0	193.577769500029	193.677756800025
42623.25	0.0999858999857679	581	hunger	stimuli/foods\honey.jpg	1	5	1	honey	1	R	12	0	66	0		0	0	193.727764600015	193.827750500001
42660.75	0.0999999999767169	582	hunger	stimuli/foods\lemon.jpg	1	5	1	lemon	1	M	9	0	72	0		0	0	193.87776360003	193.977763600007
42698.25	0.0999814000097103	583	hunger	stimuli/non_foods\non-food_inanimate_cactus_pot_plant.jpg	1	5	1	non-food_inanimate_cactus_pot_plant	0	J	6	0	169	0		0	0	194.027777400042	194.127758800052
42735.75	0.0999789999914356	584	hunger	stimuli/non_foods\non-food_inanimate_highlighter.jpg	1	5	1	non-food_inanimate_highlighter	0	H	5	0	189	0		0	0	194.17777270003	194.277751700021
42773.25	0.0999939999892376	585	hunger	stimuli/foods\onion.jpg	1	5	1	onion	1	S	13	0	229	0		0	0	194.32776460005	194.427758600039
42810.75	0.0999819000135176	586	hunger	stimuli/non_foods\non-food_inanimate_protractor.jpg	1	5	1	non-food_inanimate_protractor	0	C	1	0	201	0		0	0	194.477765200019	194.577747100033
42848.25	0.0999869999941438	587	hunger	stimuli/foods\cannoli.jpg	1	5	1	cannoli	1	G	4	0	17	0		0	0	194.627759200055	194.727746200049
42885.75	0.0999936999869533	588	hunger	stimuli/foods\figs.jpg	1	5	1	figs	1	C	1	0	48	0		0	0	194.777760900033	194.87775460002
42923.25	0.0999979000189342	589	hunger	stimuli/foods\ginger_root.jpg	1	5	1	ginger_root	1	V	15	0	57	0		0	0	194.927757500031	195.02775540005
42960.75	0.0999281000113115	590	hunger	stimuli/foods\fried_calamari.jpg	1	5	1	fried_calamari	1	J	6	0	50	0		0	0	195.077842400002	195.177770500013
42998.25	0.0999905000207946	591	hunger	stimuli/foods\cinnamon.jpg	1	5	1	cinnamon	1	G	4	0	30	0		0	0	195.227772500017	195.327763000038
43035.75	0.0999537999741733	592	hunger	stimuli/non_foods\non-food_animate_caterpillar.jpg	1	5	1	non-food_animate_caterpillar	0	W	16	0	99	0		0	0	195.377763300028	195.477717100002
43073.25	0.0999697999795899	593	hunger	stimuli/foods\egg.jpg	1	5	1	egg	1	J	6	0	45	0		0	0	195.527769100037	195.627738900017
43110.75	0.100014200026635	594	hunger	stimuli/non_foods\non-food_inanimate_nettle.jpg	1	5	1	non-food_inanimate_nettle	0	L	8	0	197	0		0	0	195.677734400029	195.777748600056
43148.25	0.0999789999914356	595	hunger	stimuli/foods\tomato.jpg	1	5	1	tomato	1	D	2	0	276	0		0	0	195.82775170001	195.927730700001
43185.75	0.100046900042798	596	hunger	stimuli/non_foods\non-food_inanimate_button.jpg	1	5	1	non-food_inanimate_button	0	S	13	0	168	0		0	0	195.977725000004	196.077771900047
43223.25	0.0999698999803513	597	hunger	stimuli/non_foods\non-food_animate_student_female.jpg	1	5	1	non-food_animate_student_female	0	F	3	0	151	0		0	0	196.12778010004	196.22775000002
43260.75	0.0999888000078499	598	hunger	stimuli/non_foods\non-food_animate_elephant.jpg	1	5	1	non-food_animate_elephant	0	B	0	0	111	0		0	0	196.277751200018	196.377740000025
43298.25	0.0999962000059895	599	hunger	stimuli/foods\cooked_ham.jpg	1	5	1	cooked_ham	1	R	12	0	35	0		0	0	196.427749900031	196.527746100037
43335.75	0.099985699984245	600	hunger	stimuli/foods\oven-roasted_tomatoes.jpg	1	5	1	oven-roasted_tomatoes	1	X	17	0	232	0		0	0	196.577749000047	196.677734700032
43373.25	0.100010800000746	601	hunger	stimuli/foods\nectarine.jpg	1	5	1	nectarine	1	B	0	0	87	0		0	0	196.727757400018	196.827768200019
43410.75	0.099981100007426	602	hunger	stimuli/foods\coconut.jpg	1	5	1	coconut	1	C	1	0	33	0		0	0	196.877761200012	196.97774230002
43448.25	0.0999843999743462	603	hunger	stimuli/non_foods\non-food_inanimate_bicycle.jpg	1	5	1	non-food_inanimate_bicycle	0	G	4	0	161	0		0	0	197.027746600041	197.127731000015
43485.75	0.0999893000116572	604	hunger	stimuli/foods\omelette.jpg	1	5	1	omelette	1	T	14	0	228	0		0	0	197.177743300039	197.277732600051
43523.25	0.0999803000013344	605	hunger	stimuli/foods\steak.jpg	1	5	1	steak	1	J	6	0	270	0		0	0	197.327743700007	197.427724000008
43560.75	0.0999921999755315	606	hunger	stimuli/non_foods\non-food_animate_donkey.jpg	1	5	1	non-food_animate_donkey	0	L	8	0	107	0		0	0	197.477735700028	197.577727900003
43598.25	0.0999945999938063	607	hunger	stimuli/foods\brie.jpg	1	5	1	brie	1	X	17	0	12	0		0	0	197.627742600045	197.727737200039
43635.75	0.0999763999716379	608	hunger	stimuli/non_foods\non-food_inanimate_broom.jpg	1	5	1	non-food_inanimate_broom	0	P	11	0	164	0		0	0	197.777747900051	197.877724300022
43673.25	0.0999721999978647	609	hunger	stimuli/foods\cucumber.jpg	1	5	1	cucumber	1	N	10	0	41	0		0	0	197.927764400025	198.027736600023
43710.75	0.0999841000302695	610	hunger	stimuli/non_foods\non-food_animate_mouse.jpg	1	5	1	non-food_animate_mouse	0	B	0	0	131	0		0	0	198.077750900004	198.177735000034
43748.25	0.0999858999857679	611	hunger	stimuli/non_foods\non-food_animate_seahorse.jpg	1	5	1	non-food_animate_seahorse	0	S	13	0	145	0		0	0	198.22773740004	198.327723300026
43785.75	0.0999890999519266	612	hunger	stimuli/non_foods\non-food_animate_iguana.jpg	1	5	1	non-food_animate_iguana	0	J	6	0	121	0		0	0	198.377736600058	198.47772570001
43823.25	0.0999721999978647	613	hunger	stimuli/foods\frankfurter_and_provolone_salad.jpg	1	5	1	frankfurter_and_provolone_salad	1	L	8	0	49	0		0	0	198.527747700049	198.627719900047
43860.75	0.0999825000180863	614	hunger	stimuli/foods\rice.jpg	1	5	1	rice	1	C	1	0	257	0		0	0	198.677748000016	198.777730500035
43898.25	0.0999706999864429	615	hunger	stimuli/foods\beetroots.jpg	1	5	1	beetroots	1	F	3	0	10	0		0	0	198.827746200026	198.927716900012
43935.75	0.0999849999789149	616	hunger	stimuli/foods\potatoes.jpg	1	5	1	potatoes	1	N	10	0	248	0		0	0	198.977736200031	199.07772120001
43973.25	0.0999869999941438	617	hunger	stimuli/foods\pasta_carbonara.jpg	1	5	1	pasta_carbonara	1	T	14	0	236	0		0	0	199.127728200052	199.227715200046
44010.75	0.0999873999971896	618	hunger	stimuli/non_foods\non-food_inanimate_bowling_ball.jpg	1	5	1	non-food_inanimate_bowling_ball	0	L	8	0	162	0		0	0	199.277732100047	199.377719500044
44048.25	0.100001499988139	619	hunger	stimuli/foods\gnocchi.jpg	1	5	1	gnocchi	1	P	11	0	58	0		0	0	199.42772680003	199.527728300018
44085.75	0.0999737000092864	620	hunger	stimuli/foods\red_cabbage.jpg	1	5	1	red_cabbage	1	F	3	0	256	0		0	0	199.577740300039	199.677714000049
44123.25	0.0999718999955803	621	hunger	stimuli/foods\chocolate_pudding.jpg	1	5	1	chocolate_pudding	1	W	16	0	29	0		0	0	199.72773860005	199.827710500045
44160.75	0.099982000014279	622	hunger	stimuli/foods\broccoli.jpg	1	5	1	broccoli	1	X	17	0	13	0		0	0	199.877739200019	199.977721200034
44198.25	0.0999903000192717	623	hunger	stimuli/foods\lime.jpg	1	5	1	lime	1	T	14	0	76	0		0	0	200.027726	200.12771630002
44235.75	0.100002799998038	624	hunger	stimuli/foods\lasagna.jpg	1	5	1	lasagna	1	V	15	0	71	0		0	0	200.177725800022	200.27772860002
44273.25	0.0999367000185885	625	hunger	stimuli/non_foods\non-food_inanimate_short_sleeved_shirt.jpg	1	5	1	non-food_inanimate_short_sleeved_shirt	0	N	10	0	207	0		0	0	200.327766600007	200.427703300025
44310.75	0.0999884000048041	626	hunger	stimuli/foods\garlic.jpg	1	5	1	garlic	1	T	14	0	56	0		0	0	200.477723100048	200.577711500053
44348.25	0.0999903999618255	627	hunger	stimuli/non_foods\non-food_animate_penguin.jpg	1	5	1	non-food_animate_penguin	0	N	10	0	135	0		0	0	200.627719500044	200.727709900006
44385.75	0.0999749999609776	628	hunger	stimuli/foods\meatballs.jpg	1	5	1	meatballs	1	R	12	0	81	0		0	0	200.777731500042	200.877706500003
44423.25	0.0999770000344142	629	hunger	stimuli/non_foods\non-food_inanimate_tent.jpg	1	5	1	non-food_inanimate_tent	0	G	4	0	219	0		0	0	200.927723400004	201.027700400038
44460.75	0.0999928000383079	630	hunger	stimuli/foods\hotdog.jpg	1	5	1	hotdog	1	P	11	0	67	0		0	0	201.077721700014	201.177714500052
44498.25	0.0999808000051416	631	hunger	stimuli/foods\fries.jpg	1	5	1	fries	1	N	10	0	52	0		0	0	201.227718200011	201.327699000016
44535.75	0.0999902000185102	632	hunger	stimuli/non_foods\non-food_inanimate_desk.jpg	1	5	1	non-food_inanimate_desk	0	X	17	0	178	0		0	0	201.377716600022	201.47770680004
44573.25	0.0999723999993876	633	hunger	stimuli/non_foods\non-food_animate_millipede.jpg	1	5	1	non-food_animate_millipede	0	L	8	0	129	0		0	0	201.52773890004	201.62771130004
44610.75	0.0999832000234164	634	hunger	stimuli/foods\watermelon.jpg	1	5	1	watermelon	1	H	5	0	279	0		0	0	201.677718500025	201.777701700048
44648.25	0.0999953999998979	635	hunger	stimuli/non_foods\non-food_inanimate_drum_set.jpg	1	5	1	non-food_inanimate_drum_set	0	V	15	0	179	0		0	0	201.827716000029	201.927711400029
44685.75	0.0999873999971896	636	hunger	stimuli/foods\fennel.jpg	1	5	1	fennel	1	H	5	0	47	0		0	0	201.97772570001	202.077713100007
44723.25	0.0999664000119083	637	hunger	stimuli/non_foods\non-food_animate_dolphin.jpg	1	5	1	non-food_animate_dolphin	0	T	14	0	106	0		0	0	202.127730700013	202.227697100025
44760.75	0.0999861999880522	638	hunger	stimuli/foods\prawn.jpg	1	5	1	prawn	1	B	0	0	249	0		0	0	202.277720300015	202.377706500003
44798.25	0.0999731000047177	639	hunger	stimuli/foods\celery.jpg	1	5	1	celery	1	L	8	0	21	0		0	0	202.427718400024	202.527691500029
44835.75	0.0999803000013344	640	hunger	stimuli/non_foods\non-food_inanimate_socks.jpg	1	5	1	non-food_inanimate_socks	0	T	14	0	211	0		0	0	202.577721400012	202.677701700013
44873.25	0.0999848999781534	641	hunger	stimuli/foods\pumpkin.jpg	1	5	1	pumpkin	1	C	1	0	250	0		0	0	202.727706400037	202.827691300015
44910.75	0.0999869999941438	642	hunger	stimuli/non_foods\non-food_animate_tortoise.jpg	1	5	1	non-food_animate_tortoise	0	B	0	0	153	0		0	0	202.877708100015	202.977695100009
44948.25	0.0999848999781534	643	hunger	stimuli/foods\peas.jpg	1	5	1	peas	1	V	15	0	240	0		0	0	203.02771720005	203.127702100028
44985.75	0.099976500030607	644	hunger	stimuli/non_foods\non-food_inanimate_pine_cone.jpg	1	5	1	non-food_inanimate_pine_cone	0	H	5	0	200	0		0	0	203.17771660001	203.277693100041
45023.25	0.0999903999618255	645	hunger	stimuli/foods\pineapple.jpg	1	5	1	pineapple	1	W	16	0	243	0		0	0	203.327703100047	203.427693500009
45060.75	0.0999854999827221	646	hunger	stimuli/non_foods\non-food_inanimate_chair.jpg	1	5	1	non-food_inanimate_chair	0	C	1	0	172	0		0	0	203.477706500038	203.577692000021
45098.25	0.0999827000196092	647	hunger	stimuli/non_foods\non-food_inanimate_lighter.jpg	1	5	1	non-food_inanimate_lighter	0	B	0	0	193	0		0	0	203.627700300014	203.727683000034
45135.75	0.100007899978664	648	hunger	stimuli/foods\pickles.jpg	1	5	1	pickles	1	P	11	0	242	0		0	0	203.777715500037	203.877723400015
45173.25	0.0999596000183374	649	hunger	stimuli/non_foods\non-food_animate_baby_sitting.jpg	1	5	1	non-food_animate_baby_sitting	0	M	9	0	93	0		0	0	203.92772550002	204.027685100038
