onset	duration	eventnumber	hunger_condition	stimfilename	blockno	trialno	is_faststream	stim	food_idx	letter	letter_idx	istarget	image_number	response	keypressed	rt	correct	time_stimon	time_stimoff
12418.25	0.0999729999984993	0	satiated	stimuli/foods\cabbage.jpg	1	1	1	cabbage	1	B	0	0	16	0		0	0	50.4094774000005	50.509450399999
12455.75	0.100037899999734	1	satiated	stimuli/foods\lollies.jpg	1	1	1	lollies	1	W	16	0	78	0		0	0	50.5594708999997	50.6595087999995
12493.25	0.0999778999994305	2	satiated	stimuli/non_foods\non-food_inanimate_towel.jpg	1	1	1	non-food_inanimate_towel	0	J	6	0	221	0		0	0	50.7094717	50.8094495999994
12530.75	0.0999850999996852	3	satiated	stimuli/non_foods\non-food_inanimate_stoplight.jpg	1	1	1	non-food_inanimate_stoplight	0	M	9	0	214	0		0	0	50.8594627000002	50.9594477999999
12568.25	0.0999496000004001	4	satiated	stimuli/non_foods\non-food_animate_hummingbird.jpg	1	1	1	non-food_animate_hummingbird	0	H	5	0	120	0		0	0	51.0094845000003	51.1094341000007
12605.75	0.099990999999136	5	satiated	stimuli/foods\cinnamon.jpg	1	1	1	cinnamon	1	W	16	0	30	0		0	0	51.1594648999999	51.259455899999
12643.25	0.0999812000009115	6	satiated	stimuli/foods\lasagna.jpg	1	1	1	lasagna	1	T	14	0	71	0		0	0	51.3094471999993	51.4094284000003
12680.75	0.100006999999096	7	satiated	stimuli/foods\cherry.jpg	1	1	1	cherry	1	H	5	0	23	0		0	0	51.4594446999999	51.559451699999
12718.25	0.099973600001249	8	satiated	stimuli/non_foods\non-food_inanimate_bicycle.jpg	1	1	1	non-food_inanimate_bicycle	0	R	12	0	161	0		0	0	51.6094603999991	51.7094340000003
12755.75	0.0999719999999797	9	satiated	stimuli/non_foods\non-food_animate_dragonfly.jpg	1	1	1	non-food_animate_dragonfly	0	B	0	0	108	0		0	0	51.7594704000003	51.8594424000003
12793.25	0.0999835000002349	10	satiated	stimuli/non_foods\non-food_animate_horse.jpg	1	1	1	non-food_animate_horse	0	L	8	0	119	0		0	0	51.9094540999995	52.0094375999997
12830.75	0.0999819999997271	11	satiated	stimuli/foods\red_cabbage.jpg	1	1	1	red_cabbage	1	B	0	0	256	0		0	0	52.0594531999996	52.1594351999993
12868.25	0.0999864000004891	12	satiated	stimuli/foods\hamburger.jpg	1	1	1	hamburger	1	X	17	0	64	0		0	0	52.2094502	52.3094366000005
12905.75	0.0997086000006675	13	satiated	stimuli/foods\cinnamon_sroll.jpg	1	1	1	cinnamon_sroll	1	B	0	0	31	0		0	0	52.3597264	52.4594350000007
12943.25	0.0999826999996003	14	satiated	stimuli/non_foods\non-food_animate_pigeon.jpg	1	1	1	non-food_animate_pigeon	0	M	9	0	136	0		0	0	52.5094410000002	52.6094236999998
12980.75	0.0999991999997292	15	satiated	stimuli/non_foods\non-food_inanimate_watering_can.jpg	1	1	1	non-food_inanimate_watering_can	0	C	1	0	225	0		0	0	52.6594382000003	52.7594374
13018.25	0.09998110000015	16	satiated	stimuli/non_foods\non-food_inanimate_orchid.jpg	1	1	1	non-food_inanimate_orchid	0	L	8	0	198	0		0	0	52.8094481999997	52.9094292999998
13055.75	0.0999706999991758	17	satiated	stimuli/non_foods\non-food_inanimate_skateboard.jpg	1	1	1	non-food_inanimate_skateboard	0	B	0	0	208	0		0	0	52.9594495000001	53.0594201999993
13093.25	0.0999823999991349	18	satiated	stimuli/non_foods\non-food_animate_giraffe.jpg	1	1	1	non-food_animate_giraffe	0	M	9	0	115	0		0	0	53.1094326000002	53.2094149999994
13130.75	0.0999878999991779	19	satiated	stimuli/foods\salmon.jpg	1	1	1	salmon	1	C	1	0	264	0		0	0	53.2594346000005	53.3594224999997
13168.25	0.0999640999998519	20	satiated	stimuli/non_foods\non-food_inanimate_ring.jpg	1	1	1	non-food_inanimate_ring	0	N	10	0	203	0		0	0	53.4094621999993	53.5094262999992
13205.75	0.0999890999992203	21	satiated	stimuli/non_foods\non-food_animate_mammoth.jpg	1	1	1	non-food_animate_mammoth	0	F	3	0	128	0		0	0	53.5594357999998	53.6594248999991
13243.25	0.0999750999999378	22	satiated	stimuli/non_foods\non-food_animate_millipede.jpg	1	1	1	non-food_animate_millipede	0	H	5	0	129	0		0	0	53.7094486000005	53.8094237000005
13280.75	0.0999819000007847	23	satiated	stimuli/foods\pea_pod.jpg	1	1	1	pea_pod	1	D	2	0	237	0		0	0	53.8594400999991	53.9594219999999
13318.25	0.0999891000010393	24	satiated	stimuli/foods\baked_lamb_with_potatoes.jpg	1	1	1	baked_lamb_with_potatoes	1	H	5	0	8	0		0	0	54.0094346999995	54.1094238000005
13355.75	0.100010199999815	25	satiated	stimuli/foods\fried_zucchini.jpg	1	1	1	fried_zucchini	1	W	16	0	51	0		0	0	54.1594081999992	54.259418399999
13393.25	0.0999820999986696	26	satiated	stimuli/foods\almonds.jpg	1	1	1	almonds	1	X	17	0	0	0		0	0	54.3094359000006	54.4094179999993
13430.75	0.0999806999989232	27	satiated	stimuli/foods\pomegranate.jpg	1	1	1	pomegranate	1	K	7	0	244	0		0	0	54.4594579000004	54.5594385999993
13468.25	0.0999988999992638	28	satiated	stimuli/non_foods\non-food_animate_cow.jpg	1	1	1	non-food_animate_cow	0	E	20	1	103	0		0	0	54.6094176000006	54.7094164999999
13505.75	0.0999945999992633	29	satiated	stimuli/non_foods\non-food_animate_runner.jpg	1	1	1	non-food_animate_runner	0	S	13	0	142	0		0	0	54.7594210000007	54.8594155999999
13543.25	0.0999609999998938	30	satiated	stimuli/foods\fruit_flan.jpg	1	1	1	fruit_flan	1	W	16	0	53	1	a	0.391844899999342	1	54.9094291999991	55.009390199999
13580.75	0.100008199999138	31	satiated	stimuli/non_foods\non-food_animate_polar_bear.jpg	1	1	1	non-food_animate_polar_bear	0	F	3	0	137	0		0	0	55.0594051000007	55.1594132999999
13618.25	0.0999912999996013	32	satiated	stimuli/non_foods\non-food_inanimate_bamboo.jpg	1	1	1	non-food_inanimate_bamboo	0	W	16	0	159	0		0	0	55.2094139000001	55.3094051999997
13655.75	0.0999805999999808	33	satiated	stimuli/non_foods\non-food_animate_camel.jpg	1	1	1	non-food_animate_camel	0	Z	18	0	97	0		0	0	55.3594200000007	55.4594006000007
13693.25	0.0999849999989237	34	satiated	stimuli/non_foods\non-food_animate_caterpillar.jpg	1	1	1	non-food_animate_caterpillar	0	D	2	0	99	0		0	0	55.5094097000001	55.609394699999
13730.75	0.0999744999990071	35	satiated	stimuli/non_foods\non-food_inanimate_wrench.jpg	1	1	1	non-food_inanimate_wrench	0	C	1	0	227	0		0	0	55.6594239000005	55.7593983999996
13768.25	0.0999848999999813	36	satiated	stimuli/non_foods\non-food_animate_dolphin.jpg	1	1	1	non-food_animate_dolphin	0	L	8	0	106	0		0	0	55.8094091999992	55.9093940999992
13805.75	0.100003899999138	37	satiated	stimuli/foods\chestnut.jpg	1	1	1	chestnut	1	J	6	0	24	0		0	0	55.9593951000006	56.0593989999998
13843.25	0.0999960999997711	38	satiated	stimuli/foods\wafer.jpg	1	1	1	wafer	1	K	7	0	277	0		0	0	56.1094066000005	56.2094027000003
13880.75	0.0999682000001485	39	satiated	stimuli/non_foods\non-food_inanimate_moss.jpg	1	1	1	non-food_inanimate_moss	0	J	6	0	194	0		0	0	56.2594306999999	56.3593989000001
13918.25	0.0999701000000641	40	satiated	stimuli/foods\ginger_root.jpg	1	1	1	ginger_root	1	C	1	0	57	0		0	0	56.4094119999991	56.5093820999991
13955.75	0.0999922999999399	41	satiated	stimuli/foods\ice_cream.jpg	1	1	1	ice_cream	1	Z	18	0	68	0		0	0	56.5594070000006	56.6593993000006
13993.25	0.0999615000000631	42	satiated	stimuli/foods\fruit_salad.jpg	1	1	1	fruit_salad	1	R	12	0	55	0		0	0	56.7094347999991	56.8093962999992
14030.75	0.0999836999999388	43	satiated	stimuli/foods\salami.jpg	1	1	1	salami	1	F	3	0	263	0		0	0	56.8594114000007	56.9593951000006
14068.25	0.100014600000577	44	satiated	stimuli/non_foods\non-food_animate_student_female.jpg	1	1	1	non-food_animate_student_female	0	W	16	0	151	0		0	0	57.0093775999994	57.1093922
14105.75	0.099985499999093	45	satiated	stimuli/non_foods\non-food_inanimate_buds.jpg	1	1	1	non-food_inanimate_buds	0	L	8	0	166	0		0	0	57.1594058999999	57.259391399999
14143.25	0.0999804999992193	46	satiated	stimuli/foods\coffee_beans.jpg	1	1	1	coffee_beans	1	Z	18	0	34	0		0	0	57.3094070000006	57.4093874999999
14180.75	0.0999864000004891	47	satiated	stimuli/foods\cream_donuts.jpg	1	1	1	cream_donuts	1	J	6	0	39	0		0	0	57.4594027000003	57.5593891000008
14218.25	0.0999820999986696	48	satiated	stimuli/non_foods\non-food_inanimate_cactus_pot_plant.jpg	1	1	1	non-food_inanimate_cactus_pot_plant	0	S	13	0	169	0		0	0	57.6094018000003	57.709383899999
14255.75	0.0999818000000232	49	satiated	stimuli/non_foods\non-food_inanimate_cupboard.jpg	1	1	1	non-food_inanimate_cupboard	0	W	16	0	177	0		0	0	57.7594045000005	57.8593863000006
14293.25	0.099946500000442	50	satiated	stimuli/foods\oregano.jpg	1	1	1	oregano	1	S	13	0	231	0		0	0	57.909436599999	58.0093830999995
14330.75	0.0999867000009544	51	satiated	stimuli/foods\watermelon.jpg	1	1	1	watermelon	1	F	3	0	279	0		0	0	58.059397699999	58.1593843999999
14368.25	0.0999851000015042	52	satiated	stimuli/foods\banana.jpg	1	1	1	banana	1	R	12	0	9	0		0	0	58.209395599999	58.3093807000005
14405.75	0.0999823000001925	53	satiated	stimuli/foods\capsicum.jpg	1	1	1	capsicum	1	S	13	0	18	0		0	0	58.3593956999994	58.4593779999996
14443.25	0.0999881999996433	54	satiated	stimuli/non_foods\non-food_animate_llama.jpg	1	1	1	non-food_animate_llama	0	H	5	0	127	0		0	0	58.5093950999999	58.6093832999995
14480.75	0.0999857999995584	55	satiated	stimuli/foods\bagel.jpg	1	1	1	bagel	1	B	0	0	6	0		0	0	58.6593921000003	58.7593778999999
14518.25	0.0999885999990511	56	satiated	stimuli/non_foods\non-food_animate_duck.jpg	1	1	1	non-food_animate_duck	0	X	17	0	109	0		0	0	58.8093879000007	58.9093764999998
14555.75	0.0999896000012086	57	satiated	stimuli/foods\red_beans.jpg	1	1	1	red_beans	1	S	13	0	255	0		0	0	58.9593898999992	59.0593795000004
14593.25	0.0999830999990081	58	satiated	stimuli/foods\gnocchi.jpg	1	1	1	gnocchi	1	N	10	0	58	0		0	0	59.1093889000003	59.2093719999993
14630.75	0.0999891000010393	59	satiated	stimuli/foods\pork_and_rice.jpg	1	1	1	pork_and_rice	1	R	12	0	245	0		0	0	59.2593890999997	59.3593782000007
14668.25	0.09998220000125	60	satiated	stimuli/foods\brownie.jpg	1	1	1	brownie	1	L	8	0	14	0		0	0	59.409388099999	59.5093703000002
14705.75	0.100017799999478	61	satiated	stimuli/non_foods\non-food_animate_yellow_bug.jpg	1	1	1	non-food_animate_yellow_bug	0	K	7	0	155	0		0	0	59.5593857000003	59.6594034999998
14743.25	0.0999880999988818	62	satiated	stimuli/foods\croissant.jpg	1	1	1	croissant	1	S	13	0	40	0		0	0	59.7093803000007	59.8093683999996
14780.75	0.0999830999990081	63	satiated	stimuli/non_foods\non-food_inanimate_construction_helment.jpg	1	1	1	non-food_inanimate_construction_helment	0	N	10	0	175	0		0	0	59.8593829000001	59.9593659999991
14818.25	0.0999867999998969	64	satiated	stimuli/non_foods\non-food_inanimate_table.jpg	1	1	1	non-food_inanimate_table	0	T	14	0	217	0		0	0	60.0093825999993	60.1093693999992
14855.75	0.0999834000012925	65	satiated	stimuli/non_foods\non-food_animate_green_bug.jpg	1	1	1	non-food_animate_green_bug	0	K	7	0	118	0		0	0	60.1593804999993	60.2593639000006
14893.25	0.0999671000008675	66	satiated	stimuli/foods\steak.jpg	1	1	1	steak	1	C	1	0	270	0		0	0	60.3093767999999	60.4093439000007
14930.75	0.0999804000002769	67	satiated	stimuli/non_foods\non-food_inanimate_tree.jpg	1	1	1	non-food_inanimate_tree	0	Z	18	0	223	0		0	0	60.4593748999996	60.5593552999999
14968.25	0.0999902000003203	68	satiated	stimuli/non_foods\non-food_animate_mouse.jpg	1	1	1	non-food_animate_mouse	0	P	11	0	131	0		0	0	60.6093631000003	60.7093533000007
15005.75	0.099983300000531	69	satiated	stimuli/non_foods\non-food_inanimate_grass.jpg	1	1	1	non-food_inanimate_grass	0	H	5	0	184	0		0	0	60.7593667000001	60.8593500000006
15043.25	0.0999812000009115	70	satiated	stimuli/foods\baked_cod_with_carrots_and_green_beans.jpg	1	1	1	baked_cod_with_carrots_and_green_beans	1	C	1	0	7	0		0	0	60.9093632999993	61.0093445000002
15080.75	0.0999833999994735	71	satiated	stimuli/non_foods\non-food_animate_young_boy.jpg	1	1	1	non-food_animate_young_boy	0	P	11	0	156	0		0	0	61.0593663	61.1593496999994
15118.25	0.100000799999179	72	satiated	stimuli/foods\grilled_chicken_breast.jpg	1	1	1	grilled_chicken_breast	1	F	3	0	63	0		0	0	61.2093518000001	61.3093525999993
15155.75	0.0999891999999818	73	satiated	stimuli/non_foods\non-food_inanimate_drum_set.jpg	1	1	1	non-food_inanimate_drum_set	0	X	17	0	179	0		0	0	61.3593836	61.4593728
15193.25	0.0999436000001879	74	satiated	stimuli/non_foods\non-food_inanimate_bowling_ball.jpg	1	1	1	non-food_inanimate_bowling_ball	0	B	0	0	162	0		0	0	61.5094078000002	61.6093514000004
15230.75	0.0999874000008276	75	satiated	stimuli/foods\artichoke.jpg	1	1	1	artichoke	1	P	11	0	3	0		0	0	61.6593661999996	61.7593536000004
15268.25	0.0999823999991349	76	satiated	stimuli/non_foods\non-food_animate_swan.jpg	1	1	1	non-food_animate_swan	0	F	3	0	152	0		0	0	61.8093640000006	61.9093463999998
15305.75	0.0999866999991355	77	satiated	stimuli/non_foods\non-food_animate_squirrel.jpg	1	1	1	non-food_animate_squirrel	0	V	15	0	150	1	a	0	0	61.9593617999999	62.059348499999
15343.25	0.0999818000000232	78	satiated	stimuli/foods\tomato.jpg	1	1	1	tomato	1	B	0	0	276	0		0	0	62.1093643000004	62.2093461000004
15380.75	0.0999683000009099	79	satiated	stimuli/foods\celery.jpg	1	1	1	celery	1	P	11	0	21	0		0	0	62.2593598999993	62.3593282000002
15418.25	0.100009800000407	80	satiated	stimuli/non_foods\non-food_inanimate_padlock.jpg	1	1	1	non-food_inanimate_padlock	0	W	16	0	199	0		0	0	62.4093357999991	62.5093455999995
15455.75	0.0999477000004845	81	satiated	stimuli/non_foods\non-food_inanimate_leaf.jpg	1	1	1	non-food_inanimate_leaf	0	L	8	0	192	0		0	0	62.5593962000003	62.6593439000007
15493.25	0.0999977999999828	82	satiated	stimuli/foods\potatoes.jpg	1	1	1	potatoes	1	V	15	0	248	0		0	0	62.7093468999992	62.8093446999992
15530.75	0.099982199999431	83	satiated	stimuli/foods\toasted_bread_with_tomatoes.jpg	1	1	1	toasted_bread_with_tomatoes	1	P	11	0	275	0		0	0	62.8593559000001	62.9593380999995
15568.25	0.0999839999985852	84	satiated	stimuli/non_foods\non-food_inanimate_broom.jpg	1	1	1	non-food_inanimate_broom	0	Z	18	0	164	0		0	0	63.0093548000004	63.109338799999
15605.75	0.100027300000875	85	satiated	stimuli/foods\mandarin.jpg	1	1	1	mandarin	1	N	10	0	79	0		0	0	63.1593623999997	63.2593897000006
15643.25	0.0999570000003587	86	satiated	stimuli/non_foods\non-food_inanimate_briefcase.jpg	1	1	1	non-food_inanimate_briefcase	0	U	23	1	163	0		0	0	63.3093792	63.4093362000003
15680.75	0.0999881999996433	87	satiated	stimuli/non_foods\non-food_animate_grasshopper.jpg	1	1	1	non-food_animate_grasshopper	0	M	9	0	117	0		0	0	63.4593483999997	63.5593365999994
15718.25	0.0999682000001485	88	satiated	stimuli/foods\pasta_carbonara.jpg	1	1	1	pasta_carbonara	1	X	17	0	236	0		0	0	63.6093492	63.7093174000001
15755.75	0.0999801000016305	89	satiated	stimuli/non_foods\non-food_animate_sea_lion.jpg	1	1	1	non-food_animate_sea_lion	0	L	8	0	143	0		0	0	63.7593519999991	63.8593321000008
15793.25	0.0999869000006584	90	satiated	stimuli/foods\savory_pie.jpg	1	1	1	savory_pie	1	V	15	0	265	0		0	0	63.9093456999999	64.0093326000006
15830.75	0.09998220000125	91	satiated	stimuli/foods\stew_with_potatoes_and_carrots.jpg	1	1	1	stew_with_potatoes_and_carrots	1	J	6	0	271	0		0	0	64.0593470999993	64.1593293000005
15868.25	0.0999867999998969	92	satiated	stimuli/non_foods\non-food_animate_peacock.jpg	1	1	1	non-food_animate_peacock	0	N	10	0	134	0		0	0	64.2093421999998	64.3093289999997
15905.75	0.0999606999994285	93	satiated	stimuli/foods\mussels.jpg	1	1	1	mussels	1	F	3	0	86	0		0	0	64.3593679000005	64.4593285999999
15943.25	0.0999872000011237	94	satiated	stimuli/foods\rice_cake.jpg	1	1	1	rice_cake	1	G	4	0	258	0		0	0	64.5093388999994	64.6093261000005
15980.75	0.0999661999994714	95	satiated	stimuli/foods\omelette.jpg	1	1	1	omelette	1	J	6	0	228	0		0	0	64.6593439999997	64.7593101999992
16018.25	0.0999879999999393	96	satiated	stimuli/foods\pineapple.jpg	1	1	1	pineapple	1	W	16	0	243	0		0	0	64.8093382000006	64.9093262000006
16055.75	0.0999935999989248	97	satiated	stimuli/non_foods\non-food_inanimate_scissors.jpg	1	1	1	non-food_inanimate_scissors	0	T	14	0	205	0		0	0	64.9593416000007	65.0593351999996
16093.25	0.09997470000053	98	satiated	stimuli/non_foods\non-food_inanimate_bucket.jpg	1	1	1	non-food_inanimate_bucket	0	X	17	0	165	0		0	0	65.1093455999999	65.2093203000004
16130.75	0.099984399999812	99	satiated	stimuli/foods\cooked_prawn.jpg	1	1	1	cooked_prawn	1	T	14	0	36	0		0	0	65.2593328000003	65.3593172000001
16168.25	0.0999847000002774	100	satiated	stimuli/non_foods\non-food_inanimate_jeans.jpg	1	1	1	non-food_inanimate_jeans	0	L	8	0	191	0		0	0	65.4093319000003	65.5093166000006
16205.75	0.0999823999991349	101	satiated	stimuli/foods\coconut.jpg	1	1	1	coconut	1	G	4	0	33	0		0	0	65.5593331	65.6593154999991
16243.25	0.0999897999990935	102	satiated	stimuli/foods\carrot.jpg	1	1	1	carrot	1	B	0	0	19	0		0	0	65.7093234000004	65.8093131999995
16280.75	0.0999871000003623	103	satiated	stimuli/foods\beetroots.jpg	1	1	1	beetroots	1	X	17	0	10	0		0	0	65.8593290999997	65.9593162000001
16318.25	0.100005000000237	104	satiated	stimuli/non_foods\non-food_animate_dachshund.jpg	1	1	1	non-food_animate_dachshund	0	N	10	0	104	0		0	0	66.009325699999	66.1093306999992
16355.75	0.0999726999998529	105	satiated	stimuli/foods\lettuce.jpg	1	1	1	lettuce	1	B	0	0	75	0		0	0	66.1593372000007	66.2593099000005
16393.25	0.0999836999999388	106	satiated	stimuli/foods\minestrone_soup.jpg	1	1	1	minestrone_soup	1	G	4	0	82	0		0	0	66.3093260999995	66.4093097999994
16430.75	0.0999823000001925	107	satiated	stimuli/foods\garlic.jpg	1	1	1	garlic	1	D	2	0	56	0		0	0	66.4593258999994	66.5593081999996
16468.25	0.0999862999997276	108	satiated	stimuli/non_foods\non-food_animate_cat.jpg	1	1	1	non-food_animate_cat	0	N	10	0	98	0		0	0	66.6093191	66.7093053999997
16505.75	0.0999783999995998	109	satiated	stimuli/non_foods\non-food_animate_penguin.jpg	1	1	1	non-food_animate_penguin	0	R	12	0	135	0		0	0	66.7593288999997	66.8593072999993
16543.25	0.0999861999989662	110	satiated	stimuli/non_foods\non-food_inanimate_socks.jpg	1	1	1	non-food_inanimate_socks	0	T	14	0	211	0		0	0	66.9093169000007	67.0093030999997
16580.75	0.0999896000012086	111	satiated	stimuli/foods\raw_sausage.jpg	1	1	1	raw_sausage	1	N	10	0	254	0		0	0	67.0593157999992	67.1593054000004
16618.25	0.0999781999998959	112	satiated	stimuli/non_foods\non-food_inanimate_hammer.jpg	1	1	1	non-food_inanimate_hammer	0	M	9	0	186	0		0	0	67.2093218999998	67.3093000999997
16655.75	0.099983299998712	113	satiated	stimuli/foods\cracker.jpg	1	1	1	cracker	1	J	6	0	38	0		0	0	67.3593137000007	67.4592969999994
16693.25	0.0999831999997696	114	satiated	stimuli/non_foods\non-food_inanimate_toy_airplane.jpg	1	1	1	non-food_inanimate_toy_airplane	0	F	3	0	222	0		0	0	67.5093161000004	67.6092993000002
16730.75	0.0999852999993891	115	satiated	stimuli/foods\papaya.jpg	1	1	1	papaya	1	W	16	0	235	0		0	0	67.6593099000002	67.7592951999995
16768.25	0.100008999999773	116	satiated	stimuli/non_foods\non-food_animate_bat.jpg	1	1	1	non-food_animate_bat	0	G	4	0	94	0		0	0	67.8093105000007	67.9093195000005
16805.75	0.0999663000002329	117	satiated	stimuli/foods\swordfish.jpg	1	1	1	swordfish	1	L	8	0	273	0		0	0	67.9593186999991	68.0592849999994
16843.25	0.100041800000326	118	satiated	stimuli/non_foods\non-food_animate_owl.jpg	1	1	1	non-food_animate_owl	0	H	5	0	132	0		0	0	68.1092976	68.2093394000003
16880.75	0.099972500000149	119	satiated	stimuli/foods\potato_and_green_bean_salad.jpg	1	1	1	potato_and_green_bean_salad	1	T	14	0	246	0		0	0	68.2593123000006	68.3592848000008
16918.25	0.0999854000001505	120	satiated	stimuli/non_foods\non-food_animate_Asian_man.jpg	1	1	1	non-food_animate_Asian_man	0	V	15	0	88	0		0	0	68.4092956000004	68.5092810000006
16955.75	0.0999383999987913	121	satiated	stimuli/non_foods\non-food_animate_butterfly.jpg	1	1	1	non-food_animate_butterfly	0	S	13	0	96	0		0	0	68.5593358000006	68.6592741999993
16993.25	0.0999602000010782	122	satiated	stimuli/foods\rice.jpg	1	1	1	rice	1	M	9	0	257	0		0	0	68.7093122999995	68.8092725000006
17030.75	0.0999826000006578	123	satiated	stimuli/foods\grapes.jpg	1	1	1	grapes	1	D	2	0	60	0		0	0	68.8592939999999	68.9592766000005
17068.25	0.0999846000013349	124	satiated	stimuli/non_foods\non-food_inanimate_lighter.jpg	1	1	1	non-food_inanimate_lighter	0	N	10	0	193	0		0	0	69.0092874999991	69.1092721000005
17105.75	0.0999942999987979	125	satiated	stimuli/non_foods\non-food_animate_lizard.jpg	1	1	1	non-food_animate_lizard	0	J	6	0	126	0		0	0	69.1592899000007	69.2592841999995
17143.25	0.0999886999998125	126	satiated	stimuli/foods\green_olives.jpg	1	1	1	green_olives	1	B	0	0	62	0		0	0	69.3092956	69.4092842999999
17180.75	0.099980000000869	127	satiated	stimuli/foods\lemon.jpg	1	1	1	lemon	1	L	8	0	72	0		0	0	69.4592964999993	69.5592765000001
17218.25	0.099997400000575	128	satiated	stimuli/foods\apple.jpg	1	1	1	apple	1	H	5	0	1	0		0	0	69.6092855999996	69.7092830000001
17255.75	0.0999608000001899	129	satiated	stimuli/non_foods\non-food_inanimate_teddy_bear.jpg	1	1	1	non-food_inanimate_teddy_bear	0	J	6	0	218	0		0	0	69.7593094000003	69.8592702000005
17293.25	0.0999971000001096	130	satiated	stimuli/foods\mushroom.jpg	1	1	1	mushroom	1	W	16	0	85	0		0	0	69.9092698999993	70.0092669999995
17330.75	0.0999831000008271	131	satiated	stimuli/non_foods\non-food_inanimate_protractor.jpg	1	1	1	non-food_inanimate_protractor	0	D	2	0	201	0		0	0	70.0592825999993	70.1592657000001
17368.25	0.100005499998588	132	satiated	stimuli/foods\fruit_pie.jpg	1	1	1	fruit_pie	1	X	17	0	54	0		0	0	70.2092785000004	70.309283999999
17405.75	0.0999582000004011	133	satiated	stimuli/foods\lamb_chops.jpg	1	1	1	lamb_chops	1	M	9	0	70	0		0	0	70.3593062	70.4592644000004
17443.25	0.0999857999995584	134	satiated	stimuli/foods\nectarine.jpg	1	1	1	nectarine	1	W	16	0	87	0		0	0	70.5092767000006	70.6092625000001
17480.75	0.100000000000364	135	satiated	stimuli/foods\pancakes.jpg	1	1	1	pancakes	1	D	2	0	234	0		0	0	70.6592719	70.7592719000004
17518.25	0.0999848999999813	136	satiated	stimuli/non_foods\non-food_animate_seahorse.jpg	1	1	1	non-food_animate_seahorse	0	F	3	0	145	0		0	0	70.8092830999994	70.9092679999994
17555.75	0.0999854000001505	137	satiated	stimuli/foods\egg.jpg	1	1	1	egg	1	P	11	0	45	0		0	0	70.9592830999991	71.0592684999992
17593.25	0.0999842999990506	138	satiated	stimuli/foods\oyster.jpg	1	1	1	oyster	1	B	0	0	233	0		0	0	71.1092828000001	71.2092670999991
17630.75	0.0999854000001505	139	satiated	stimuli/foods\lentils.jpg	1	1	1	lentils	1	F	3	0	74	0		0	0	71.2592786000005	71.3592640000006
18405.75	0.0999988000003214	140	satiated	stimuli/foods\lemon_meringue_pie.jpg	1	2	1	lemon_meringue_pie	1	T	14	0	73	0		0	0	74.3592626999998	74.4592615000001
18443.25	0.0999371999987488	141	satiated	stimuli/non_foods\non-food_inanimate_guitar.jpg	1	2	1	non-food_inanimate_guitar	0	R	12	0	185	0		0	0	74.5092982000006	74.6092353999993
18480.75	0.0999857000006159	142	satiated	stimuli/foods\lime.jpg	1	2	1	lime	1	W	16	0	76	0		0	0	74.6592519999995	74.7592377000001
18518.25	0.0999859999992623	143	satiated	stimuli/non_foods\non-food_inanimate_gloves.jpg	1	2	1	non-food_inanimate_gloves	0	K	7	0	183	0		0	0	74.8092495000001	74.9092354999993
18555.75	0.0999824999998964	144	satiated	stimuli/foods\pepperoni_pizza.jpg	1	2	1	pepperoni_pizza	1	W	16	0	241	0		0	0	74.9592484999994	75.0592309999993
18593.25	0.0999891000010393	145	satiated	stimuli/foods\prawn.jpg	1	2	1	prawn	1	V	15	0	249	0		0	0	75.1092439999993	75.2092331000003
18630.75	0.0999836999999388	146	satiated	stimuli/non_foods\non-food_inanimate_hay.jpg	1	2	1	non-food_inanimate_hay	0	T	14	0	187	0		0	0	75.2592468000003	75.3592305000002
18668.25	0.0999857999995584	147	satiated	stimuli/non_foods\non-food_animate_Causasian_man.jpg	1	2	1	non-food_animate_Causasian_man	0	H	5	0	89	0		0	0	75.4092421000005	75.5092279
18705.75	0.0999706000002334	148	satiated	stimuli/non_foods\non-food_inanimate_rack.jpg	1	2	1	non-food_inanimate_rack	0	F	3	0	202	0		0	0	75.5592567999993	75.6592273999995
18743.25	0.0999821000004886	149	satiated	stimuli/foods\cereal.jpg	1	2	1	cereal	1	B	0	0	22	0		0	0	75.7092427999996	75.8092249000001
18780.75	0.099987699999474	150	satiated	stimuli/foods\pickles.jpg	1	2	1	pickles	1	V	15	0	242	0		0	0	75.8592365000004	75.9592241999999
18818.25	0.0999812999998539	151	satiated	stimuli/foods\chilli.jpg	1	2	1	chilli	1	S	13	0	25	0		0	0	76.0092418999993	76.1092231999992
18855.75	0.0999740999995993	152	satiated	stimuli/non_foods\non-food_inanimate_button.jpg	1	2	1	non-food_inanimate_button	0	X	17	0	168	0		0	0	76.1592414999996	76.2592155999992
18893.25	0.0999659000008251	153	satiated	stimuli/foods\spring_onions.jpg	1	2	1	spring_onions	1	K	7	0	269	0		0	0	76.3092422999998	76.4092082000006
18930.75	0.0999854000001505	154	satiated	stimuli/foods\fries.jpg	1	2	1	fries	1	V	15	0	52	0		0	0	76.4592255999996	76.5592109999998
18968.25	0.0999879999999393	155	satiated	stimuli/non_foods\non-food_animate_baby_sitting.jpg	1	2	1	non-food_animate_baby_sitting	0	X	17	0	93	0		0	0	76.6092191000007	76.7092071000006
19005.75	0.0999850000007427	156	satiated	stimuli/foods\mango.jpg	1	2	1	mango	1	V	15	0	80	0		0	0	76.7592246999993	76.8592097000001
19043.25	0.0999862999997276	157	satiated	stimuli/non_foods\non-food_inanimate_couch.jpg	1	2	1	non-food_inanimate_couch	0	W	16	0	176	0		0	0	76.9092294000002	77.0092156999999
19080.75	0.0999854000001505	158	satiated	stimuli/non_foods\non-food_animate_frog.jpg	1	2	1	non-food_animate_frog	0	F	3	0	113	0		0	0	77.0592292000001	77.1592146000003
19118.25	0.0999845000005735	159	satiated	stimuli/non_foods\non-food_inanimate_shell.jpg	1	2	1	non-food_inanimate_shell	0	Z	18	0	206	0		0	0	77.2092291999998	77.3092137000003
19155.75	0.09998110000015	160	satiated	stimuli/foods\peas.jpg	1	2	1	peas	1	H	5	0	240	0		0	0	77.3592315999995	77.4592126999996
19193.25	0.0999714999998105	161	satiated	stimuli/foods\grapefruits.jpg	1	2	1	grapefruits	1	G	4	0	59	0		0	0	77.5092256999997	77.6091971999995
19230.75	0.0999807999996847	162	satiated	stimuli/non_foods\non-food_animate_lion.jpg	1	2	1	non-food_animate_lion	0	H	5	0	125	0		0	0	77.6592173999998	77.7591981999994
19268.25	0.0999831999997696	163	satiated	stimuli/foods\oven-roasted_tomatoes.jpg	1	2	1	oven-roasted_tomatoes	1	W	16	0	232	0		0	0	77.8092104999996	77.9091936999994
19305.75	0.0999479999991308	164	satiated	stimuli/foods\waffle.jpg	1	2	1	waffle	1	J	6	0	278	0		0	0	77.9592491000003	78.0591970999994
19343.25	0.0999773000003188	165	satiated	stimuli/foods\spinach.jpg	1	2	1	spinach	1	V	15	0	268	0		0	0	78.1092176999991	78.2091949999995
19380.75	0.0999847000002774	166	satiated	stimuli/non_foods\non-food_animate_elephant.jpg	1	2	1	non-food_animate_elephant	0	C	1	0	111	0		0	0	78.259207699999	78.3591923999993
19418.25	0.100007200000618	167	satiated	stimuli/non_foods\non-food_animate_cheetah.jpg	1	2	1	non-food_animate_cheetah	0	M	9	0	100	0		0	0	78.4091943999993	78.5092015999999
19455.75	0.0999873999990086	168	satiated	stimuli/foods\rockmelon.jpg	1	2	1	rockmelon	1	W	16	0	262	0		0	0	78.5592137000003	78.6592010999993
19493.25	0.0999886999998125	169	satiated	stimuli/foods\avocado.jpg	1	2	1	avocado	1	K	7	0	5	0		0	0	78.7092116999993	78.8092003999991
19530.75	0.0999799999990501	170	satiated	stimuli/foods\apricot.jpg	1	2	1	apricot	1	L	8	0	2	0		0	0	78.8592150000004	78.9591949999995
19568.25	0.0999842999990506	171	satiated	stimuli/non_foods\non-food_animate_chicken.jpg	1	2	1	non-food_animate_chicken	0	F	3	0	101	0		0	0	79.0092088000001	79.1091930999992
19605.75	0.0999850000007427	172	satiated	stimuli/foods\broccoli.jpg	1	2	1	broccoli	1	R	12	0	13	0		0	0	79.1592125999996	79.2591976000003
19643.25	0.0999871000003623	173	satiated	stimuli/non_foods\non-food_inanimate_sun_flower.jpg	1	2	1	non-food_inanimate_sun_flower	0	F	3	0	216	0		0	0	79.3092070999992	79.4091941999995
19680.75	0.099987699999474	174	satiated	stimuli/foods\pear.jpg	1	2	1	pear	1	W	16	0	239	0		0	0	79.4592059000006	79.5591936000001
19718.25	0.100004300000364	175	satiated	stimuli/foods\green_beans.jpg	1	2	1	green_beans	1	N	10	0	61	0		0	0	79.6092052000004	79.7092095000007
19755.75	0.0999873000000662	176	satiated	stimuli/non_foods\non-food_inanimate_nest.jpg	1	2	1	non-food_inanimate_nest	0	F	3	0	196	0		0	0	79.7592160000004	79.8592033000004
19793.25	0.0999850000007427	177	satiated	stimuli/non_foods\non-food_inanimate_tulip.jpg	1	2	1	non-food_inanimate_tulip	0	B	0	0	224	0		0	0	79.909205599999	80.0091905999998
19830.75	0.0999785000003612	178	satiated	stimuli/non_foods\non-food_inanimate_alarm_clock.jpg	1	2	1	non-food_inanimate_alarm_clock	0	J	6	0	158	0		0	0	80.0592020999993	80.1591805999997
19868.25	0.0999886000008701	179	satiated	stimuli/foods\hotdog.jpg	1	2	1	hotdog	1	G	4	0	67	0		0	0	80.2091975999992	80.3091862000001
19905.75	0.0999864999994315	180	satiated	stimuli/non_foods\non-food_animate_clown.jpg	1	2	1	non-food_animate_clown	0	B	0	0	102	0		0	0	80.3592016000002	80.4591880999997
19943.25	0.0999857999995584	181	satiated	stimuli/non_foods\non-food_inanimate_chair.jpg	1	2	1	non-food_inanimate_chair	0	T	14	0	172	0		0	0	80.5091962999995	80.6091820999991
19980.75	0.0999802999995154	182	satiated	stimuli/non_foods\non-food_animate_monkey.jpg	1	2	1	non-food_animate_monkey	0	G	4	0	130	0		0	0	80.6592032999997	80.7591835999992
20018.25	0.0999979999996867	183	satiated	stimuli/foods\linguine_with_clams.jpg	1	2	1	linguine_with_clams	1	Z	18	0	77	0		0	0	80.8091970000005	80.9091950000002
20055.75	0.0999868999988394	184	satiated	stimuli/non_foods\non-food_animate_german_shepherd.jpg	1	2	1	non-food_animate_german_shepherd	0	G	4	0	114	1	a	0	0	80.9591925000004	81.0591793999993
20093.25	0.0999866999991355	185	satiated	stimuli/foods\corncob.jpg	1	2	1	corncob	1	N	10	0	37	0		0	0	81.1091931999999	81.2091798999991
20130.75	0.0999826999996003	186	satiated	stimuli/non_foods\non-food_animate_bee.jpg	1	2	1	non-food_animate_bee	0	B	0	0	95	0		0	0	81.2591950000005	81.3591777000001
20168.25	0.0999959999990097	187	satiated	stimuli/non_foods\non-food_animate_tortoise.jpg	1	2	1	non-food_animate_tortoise	0	C	1	0	153	0		0	0	81.4091891000007	81.5091850999997
20205.75	0.0999720999989222	188	satiated	stimuli/non_foods\non-food_animate_kangaroo.jpg	1	2	1	non-food_animate_kangaroo	0	J	6	0	122	0		0	0	81.5592022000001	81.659174299999
20243.25	0.0999844999987545	189	satiated	stimuli/non_foods\non-food_inanimate_folding_chair.jpg	1	2	1	non-food_inanimate_folding_chair	0	D	2	0	182	0		0	0	81.7091875000006	81.8091719999993
20280.75	0.0999880999988818	190	satiated	stimuli/foods\onion.jpg	1	2	1	onion	1	N	10	0	229	0		0	0	81.8591868000003	81.9591748999992
20318.25	0.0999828999993042	191	satiated	stimuli/foods\cucumber.jpg	1	2	1	cucumber	1	G	4	0	41	0		0	0	82.0091744000001	82.1091572999994
20355.75	0.099975799999811	192	satiated	stimuli/non_foods\non-food_animate_iguana.jpg	1	2	1	non-food_animate_iguana	0	M	9	0	121	0		0	0	82.1591864000002	82.2591622
20393.25	0.0999834000012925	193	satiated	stimuli/non_foods\non-food_animate_slug.jpg	1	2	1	non-food_animate_slug	0	B	0	0	148	0		0	0	82.3091726999992	82.4091561000005
20430.75	0.0999840999993467	194	satiated	stimuli/non_foods\non-food_animate_raccoon.jpg	1	2	1	non-food_animate_raccoon	0	G	4	0	139	0		0	0	82.4591744999998	82.5591585999991
20468.25	0.0999747999994725	195	satiated	stimuli/foods\figs.jpg	1	2	1	figs	1	D	2	0	48	0		0	0	82.6091673999999	82.7091421999994
20505.75	0.0999816000003193	196	satiated	stimuli/non_foods\non-food_animate_donkey.jpg	1	2	1	non-food_animate_donkey	0	M	9	0	107	0		0	0	82.7591816999993	82.8591632999996
20543.25	0.0999839999985852	197	satiated	stimuli/non_foods\non-food_inanimate_nettle.jpg	1	2	1	non-food_inanimate_nettle	0	K	7	0	197	0		0	0	82.9091774000008	83.0091613999994
20580.75	0.0999830999990081	198	satiated	stimuli/non_foods\non-food_animate_gorilla.jpg	1	2	1	non-food_animate_gorilla	0	H	5	0	116	0		0	0	83.0591690000001	83.1591520999991
20618.25	0.10000890000083	199	satiated	stimuli/non_foods\non-food_inanimate_clover.jpg	1	2	1	non-food_inanimate_clover	0	T	14	0	174	0		0	0	83.2091617999995	83.3091707000003
20655.75	0.0999949999986711	200	satiated	stimuli/non_foods\non-food_inanimate_soccer_ball.jpg	1	2	1	non-food_inanimate_soccer_ball	0	B	0	0	210	0		0	0	83.3591651000006	83.4591600999993
20693.25	0.100002600000153	201	satiated	stimuli/non_foods\non-food_animate_deer.jpg	1	2	1	non-food_animate_deer	0	S	13	0	105	0		0	0	83.5091529000001	83.6091555000003
20730.75	0.0999826999996003	202	satiated	stimuli/non_foods\non-food_inanimate_canoe.jpg	1	2	1	non-food_inanimate_canoe	0	V	15	0	170	0		0	0	83.6591705999999	83.7591532999995
20768.25	0.099990999999136	203	satiated	stimuli/foods\fried_calamari.jpg	1	2	1	fried_calamari	1	K	7	0	50	0		0	0	83.8091647000001	83.9091556999992
20805.75	0.0999809000004461	204	satiated	stimuli/non_foods\non-food_inanimate_pine_cone.jpg	1	2	1	non-food_inanimate_pine_cone	0	G	4	0	200	0		0	0	83.9591689999997	84.0591499000002
20843.25	0.0999835999991774	205	satiated	stimuli/non_foods\non-food_animate_ant.jpg	1	2	1	non-food_animate_ant	0	D	2	0	91	0		0	0	84.1091655	84.2091490999992
20880.75	0.0999830000000657	206	satiated	stimuli/foods\raw_ham.jpg	1	2	1	raw_ham	1	B	0	0	253	0		0	0	84.2591656999994	84.3591486999994
20918.25	0.0999835000002349	207	satiated	stimuli/non_foods\non-food_inanimate_headphones.jpg	1	2	1	non-food_inanimate_headphones	0	Z	18	0	188	0		0	0	84.4091635000004	84.5091470000007
20955.75	0.0999831999997696	208	satiated	stimuli/foods\taco.jpg	1	2	1	taco	1	H	5	0	274	0		0	0	84.5591554000002	84.6591386
20993.25	0.100003399998968	209	satiated	stimuli/non_foods\non-food_animate_eagle.jpg	1	2	1	non-food_animate_eagle	0	I	21	1	110	0		0	0	84.7091409000004	84.8091442999994
21030.75	0.0999912999996013	210	satiated	stimuli/foods\cannoli.jpg	1	2	1	cannoli	1	S	13	0	17	0		0	0	84.8591589000007	84.9591502000003
21068.25	0.100006099999518	211	satiated	stimuli/foods\eggplant.jpg	1	2	1	eggplant	1	G	4	0	46	0		0	0	85.0091599000007	85.1091660000002
21105.75	0.0999623999996402	212	satiated	stimuli/foods\raisins.jpg	1	2	1	raisins	1	K	7	0	252	0		0	0	85.1591836000007	85.2591460000003
21143.25	0.0999653999988368	213	satiated	stimuli/non_foods\non-food_animate_ram.jpg	1	2	1	non-food_animate_ram	0	Z	18	0	140	0		0	0	85.3091576000006	85.4091229999995
21180.75	0.0999988999992638	214	satiated	stimuli/non_foods\non-food_animate_ladybug.jpg	1	2	1	non-food_animate_ladybug	0	L	8	0	124	0		0	0	85.4591392000002	85.5591380999995
21218.25	0.0999881999996433	215	satiated	stimuli/foods\asparagus.jpg	1	2	1	asparagus	1	R	12	0	4	0		0	0	85.6091507000001	85.7091388999997
21255.75	0.0999641999987944	216	satiated	stimuli/non_foods\non-food_animate_woman.jpg	1	2	1	non-food_animate_woman	0	X	17	0	154	0		0	0	85.7591525000007	85.8591166999995
21293.25	0.0999868999988394	217	satiated	stimuli/foods\chocolate_bar.jpg	1	2	1	chocolate_bar	1	F	3	0	26	0		0	0	85.9091482000003	86.0091350999992
21330.75	0.0999881999996433	218	satiated	stimuli/foods\peach.jpg	1	2	1	peach	1	C	1	0	238	0		0	0	86.0591454000005	86.1591336000001
21368.25	0.099967200001629	219	satiated	stimuli/non_foods\non-food_animate_rhino.jpg	1	2	1	non-food_animate_rhino	0	F	3	0	141	0		0	0	86.209165799999	86.3091330000007
21405.75	0.0999864999994315	220	satiated	stimuli/non_foods\non-food_inanimate_bed.jpg	1	2	1	non-food_inanimate_bed	0	R	12	0	160	0		0	0	86.3591428	86.4591292999994
21443.25	0.0999847000002774	221	satiated	stimuli/foods\museli_bars.jpg	1	2	1	museli_bars	1	X	17	0	84	0		0	0	86.5091444999998	86.6091292000001
21480.75	0.0999785000003612	222	satiated	stimuli/foods\meatballs.jpg	1	2	1	meatballs	1	G	4	0	81	0		0	0	86.6591465000001	86.7591250000005
21518.25	0.0999807999996847	223	satiated	stimuli/foods\brie.jpg	1	2	1	brie	1	R	12	0	12	0		0	0	86.8091337000005	86.9091145000002
21555.75	0.0999873999990086	224	satiated	stimuli/non_foods\non-food_inanimate_bush.jpg	1	2	1	non-food_inanimate_bush	0	M	9	0	167	0		0	0	86.9591406	87.059127999999
21593.25	0.0999864999994315	225	satiated	stimuli/non_foods\non-food_animate_parrot.jpg	1	2	1	non-food_animate_parrot	0	N	10	0	133	0		0	0	87.1091405000006	87.2091270000001
21630.75	0.0999857000006159	226	satiated	stimuli/non_foods\non-food_animate_young_girl.jpg	1	2	1	non-food_animate_young_girl	0	A	19	1	157	0		0	0	87.2591401999998	87.3591259000004
21668.25	0.0999991999997292	227	satiated	stimuli/foods\mortadella.jpg	1	2	1	mortadella	1	M	9	0	83	0		0	0	87.4091179999996	87.5091171999993
21705.75	0.0999867000009544	228	satiated	stimuli/foods\risotto_with_zucchini.jpg	1	2	1	risotto_with_zucchini	1	K	7	0	260	1	a	0.400151499999993	1	87.5591335999998	87.6591203000007
21743.25	0.0999886999998125	229	satiated	stimuli/non_foods\non-food_inanimate_highlighter.jpg	1	2	1	non-food_inanimate_highlighter	0	J	6	0	189	0		0	0	87.7091304999994	87.8091191999993
21780.75	0.0999824999998964	230	satiated	stimuli/foods\orange.jpg	1	2	1	orange	1	G	4	0	230	0		0	0	87.8591355999997	87.9591180999996
21818.25	0.0999880999988818	231	satiated	stimuli/foods\strawberry.jpg	1	2	1	strawberry	1	W	16	0	272	0		0	0	88.0091379000005	88.1091259999994
21855.75	0.0999866999991355	232	satiated	stimuli/foods\chocolate_pralines.jpg	1	2	1	chocolate_pralines	1	G	4	0	28	0		0	0	88.15913	88.2591166999991
21893.25	0.0999874000008276	233	satiated	stimuli/foods\frankfurter_and_provolone_salad.jpg	1	2	1	frankfurter_and_provolone_salad	1	T	14	0	49	0		0	0	88.309124899999	88.4091122999998
21930.75	0.0999889999984589	234	satiated	stimuli/foods\blackberry.jpg	1	2	1	blackberry	1	X	17	0	11	0		0	0	88.4591247000008	88.5591136999992
21968.25	0.100006300001041	235	satiated	stimuli/non_foods\non-food_inanimate_chandelier.jpg	1	2	1	non-food_inanimate_chandelier	0	N	10	0	173	0		0	0	88.6091338999995	88.7091402000005
22005.75	0.0999742000003607	236	satiated	stimuli/non_foods\non-food_inanimate_desk.jpg	1	2	1	non-food_inanimate_desk	0	C	1	0	178	0		0	0	88.7591346999998	88.8591089000001
22043.25	0.0999818000000232	237	satiated	stimuli/non_foods\non-food_inanimate_toilet.jpg	1	2	1	non-food_inanimate_toilet	0	F	3	0	220	0		0	0	88.9091248999994	89.0091066999994
22080.75	0.0999863999986701	238	satiated	stimuli/non_foods\non-food_inanimate_fern.jpg	1	2	1	non-food_inanimate_fern	0	Z	18	0	180	0		0	0	89.0591196000005	89.1591059999992
22118.25	0.0999874999997701	239	satiated	stimuli/non_foods\non-food_inanimate_suitcase.jpg	1	2	1	non-food_inanimate_suitcase	0	R	12	0	215	0		0	0	89.2091185999998	89.3091060999996
22155.75	0.100007099999857	240	satiated	stimuli/non_foods\non-food_inanimate_horn.jpg	1	2	1	non-food_inanimate_horn	0	P	11	0	190	0		0	0	89.3590984999992	89.459105599999
22193.25	0.0999873999990086	241	satiated	stimuli/foods\risotto_with_peas_and_asparagus_tips.jpg	1	2	1	risotto_with_peas_and_asparagus_tips	1	L	8	0	259	0		0	0	89.5091154000002	89.6091027999992
22230.75	0.0999861000000237	242	satiated	stimuli/non_foods\non-food_animate_seal.jpg	1	2	1	non-food_animate_seal	0	P	11	0	146	0		0	0	89.6591150999993	89.7591011999993
22268.25	0.09998110000015	243	satiated	stimuli/non_foods\non-food_inanimate_cap.jpg	1	2	1	non-food_inanimate_cap	0	H	5	0	171	0		0	0	89.8091168999999	89.9090980000001
22305.75	0.0999838999996427	244	satiated	stimuli/non_foods\non-food_animate_skunk.jpg	1	2	1	non-food_animate_skunk	0	K	7	0	147	0		0	0	89.9591125999996	90.0590964999992
22343.25	0.0999904000000242	245	satiated	stimuli/foods\dates.jpg	1	2	1	dates	1	G	4	0	43	0		0	0	90.1091128999997	90.2091032999997
22380.75	0.0999830000000657	246	satiated	stimuli/foods\hazelnuts.jpg	1	2	1	hazelnuts	1	X	17	0	65	0		0	0	90.2591116000003	90.3590946000004
22418.25	0.0999729999984993	247	satiated	stimuli/non_foods\non-food_animate_baby_crawling.jpg	1	2	1	non-food_animate_baby_crawling	0	C	1	0	92	0		0	0	90.4091129000008	90.5090858999993
22455.75	0.099980000000869	248	satiated	stimuli/non_foods\non-food_animate_alligator.jpg	1	2	1	non-food_animate_alligator	0	H	5	0	90	0		0	0	90.5591069999991	90.659087
22493.25	0.0999804000002769	249	satiated	stimuli/foods\pumpkin.jpg	1	2	1	pumpkin	1	M	9	0	250	0		0	0	90.7090994999999	90.8090799000001
22530.75	0.0999974999995175	250	satiated	stimuli/foods\roasted_chicken.jpg	1	2	1	roasted_chicken	1	N	10	0	261	0		0	0	90.8590956000007	90.9590931000002
22568.25	0.09998110000015	251	satiated	stimuli/non_foods\non-food_inanimate_rope.jpg	1	2	1	non-food_inanimate_rope	0	K	7	0	204	0		0	0	91.0091081999999	91.1090893000001
22605.75	0.0999723000004451	252	satiated	stimuli/foods\clams.jpg	1	2	1	clams	1	H	5	0	32	0		0	0	91.1591054	91.2590777000005
22643.25	0.0999950999994326	253	satiated	stimuli/non_foods\non-food_animate_killer_whale.jpg	1	2	1	non-food_animate_killer_whale	0	W	16	0	123	0		0	0	91.3090936999997	91.4090887999992
22680.75	0.100003699999434	254	satiated	stimuli/foods\chocolate_chip_cookies.jpg	1	2	1	chocolate_chip_cookies	1	M	9	0	27	0		0	0	91.4590988	91.5591024999994
22718.25	0.0999906999986706	255	satiated	stimuli/foods\brussel_sprouts.jpg	1	2	1	brussel_sprouts	1	N	10	0	15	0		0	0	91.6090968000008	91.7090874999994
22755.75	0.0999762999999803	256	satiated	stimuli/non_foods\non-food_inanimate_tent.jpg	1	2	1	non-food_inanimate_tent	0	T	14	0	219	0		0	0	91.7590970999991	91.859073399999
22793.25	0.0999854000001505	257	satiated	stimuli/foods\smoked_ham.jpg	1	2	1	smoked_ham	1	J	6	0	266	0		0	0	91.9090842000005	92.0090696000007
22830.75	0.0999924000007013	258	satiated	stimuli/non_foods\non-food_inanimate_short_sleeved_shirt.jpg	1	2	1	non-food_inanimate_short_sleeved_shirt	0	D	2	0	207	0		0	0	92.0590902999993	92.1590827
22868.25	0.0999776999997266	259	satiated	stimuli/foods\cauliflower.jpg	1	2	1	cauliflower	1	R	12	0	20	0		0	0	92.2090898000006	92.3090675000003
22905.75	0.0999934000010398	260	satiated	stimuli/foods\radish.jpg	1	2	1	radish	1	S	13	0	251	0		0	0	92.359085099999	92.4590785
22943.25	0.0999807000007422	261	satiated	stimuli/foods\honey.jpg	1	2	1	honey	1	B	0	0	66	0		0	0	92.5090937999994	92.6090745000001
22980.75	0.0999836999999388	262	satiated	stimuli/non_foods\non-food_animate_porcupine.jpg	1	2	1	non-food_animate_porcupine	0	D	2	0	138	0		0	0	92.6590925	92.7590762
23018.25	0.0999893999996857	263	satiated	stimuli/foods\cupcake.jpg	1	2	1	cupcake	1	H	5	0	42	0		0	0	92.8090783000007	92.9090677000004
23055.75	0.0999845000005735	264	satiated	stimuli/foods\cooked_ham.jpg	1	2	1	cooked_ham	1	G	4	0	35	0		0	0	92.9590776999994	93.0590622
23093.25	0.0999872000011237	265	satiated	stimuli/non_foods\non-food_animate_fox.jpg	1	2	1	non-food_animate_fox	0	N	10	0	112	0		0	0	93.1090729999996	93.2090602000007
23130.75	0.0999873000000662	266	satiated	stimuli/non_foods\non-food_animate_sea_turtle.jpg	1	2	1	non-food_animate_sea_turtle	0	H	5	0	144	0		0	0	93.2590762	93.3590635
23168.25	0.0999830000000657	267	satiated	stimuli/foods\fennel.jpg	1	2	1	fennel	1	X	17	0	47	0		0	0	93.4090725999995	93.5090555999996
23205.75	0.0999881000007008	268	satiated	stimuli/foods\spaghetti_with_meat_sauce.jpg	1	2	1	spaghetti_with_meat_sauce	1	T	14	0	267	0		0	0	93.5590738999999	93.6590620000006
23243	0.099995200000194	269	satiated	stimuli/non_foods\non-food_inanimate_fire_extinguisher.jpg	1	2	1	non-food_inanimate_fire_extinguisher	0	J	6	0	181	0		0	0	93.7090606999991	93.8090558999993
23280.75	0.099983300000531	270	satiated	stimuli/foods\chocolate_pudding.jpg	1	2	1	chocolate_pudding	1	P	11	0	29	0		0	0	93.8590719999993	93.9590552999998
23318.25	0.0999761999992188	271	satiated	stimuli/non_foods\non-food_inanimate_skirt.jpg	1	2	1	non-food_inanimate_skirt	0	F	3	0	209	0		0	0	94.009086	94.1090621999992
23355.75	0.0999824000009539	272	satiated	stimuli/non_foods\non-food_inanimate_speakers.jpg	1	2	1	non-food_inanimate_speakers	0	G	4	0	212	0		0	0	94.1590787999994	94.2590612000004
23393.25	0.0999856000016734	273	satiated	stimuli/non_foods\non-food_inanimate_nailpolish.jpg	1	2	1	non-food_inanimate_nailpolish	0	T	14	0	195	0		0	0	94.309076399999	94.4090620000006
23430.75	0.0999823000001925	274	satiated	stimuli/non_foods\non-food_animate_snail.jpg	1	2	1	non-food_animate_snail	0	F	3	0	149	0		0	0	94.4590678999994	94.5590501999995
23468	0.0999882999985857	275	satiated	stimuli/non_foods\non-food_inanimate_waterlily.jpg	1	2	1	non-food_inanimate_waterlily	0	S	13	0	226	0		0	0	94.6090571000004	94.709045399999
23505.75	0.0999983999990945	276	satiated	stimuli/non_foods\non-food_inanimate_stapler.jpg	1	2	1	non-food_inanimate_stapler	0	V	15	0	213	0		0	0	94.7590622000007	94.8590605999998
23543.25	0.0999852999993891	277	satiated	stimuli/foods\donut.jpg	1	2	1	donut	1	T	14	0	44	0		0	0	94.9090691000001	95.0090543999995
23580.75	0.0999874999997701	278	satiated	stimuli/foods\kiwi.jpg	1	2	1	kiwi	1	D	2	0	69	0		0	0	95.0590692999995	95.1590567999992
23618.25	0.099977999998373	279	satiated	stimuli/foods\potato_chips.jpg	1	2	1	potato_chips	1	T	14	0	247	0		0	0	95.2090590000007	95.3090369999991
24205.75	0.099980000000869	280	satiated	stimuli/non_foods\non-food_animate_young_girl.jpg	1	3	1	non-food_animate_young_girl	0	X	17	0	157	0		0	0	97.5590553999991	97.6590354
24243.25	0.099990800001251	281	satiated	stimuli/foods\pepperoni_pizza.jpg	1	3	1	pepperoni_pizza	1	S	13	0	241	0		0	0	97.7090475999994	97.8090384000006
24280.75	0.0999902000003203	282	satiated	stimuli/foods\pea_pod.jpg	1	3	1	pea_pod	1	C	1	0	237	0		0	0	97.8590624999997	97.9590527
24318.25	0.0999850000007427	283	satiated	stimuli/foods\banana.jpg	1	3	1	banana	1	K	7	0	9	0		0	0	98.0090414999995	98.1090265000003
24355.5	0.099979100001292	284	satiated	stimuli/foods\pickles.jpg	1	3	1	pickles	1	T	14	0	242	0		0	0	98.159040999999	98.2590201000003
24393	0.0999848000010388	285	satiated	stimuli/foods\mandarin.jpg	1	3	1	mandarin	1	G	4	0	79	0		0	0	98.3090324999994	98.4090173000004
24430.5	0.0999847000002774	286	satiated	stimuli/foods\red_beans.jpg	1	3	1	red_beans	1	S	13	0	255	0		0	0	98.4590310000003	98.5590157000006
24468.25	0.099987700001293	287	satiated	stimuli/foods\oyster.jpg	1	3	1	oyster	1	L	8	0	233	0		0	0	98.6090375999993	98.7090253000006
24505.75	0.0999855999998545	288	satiated	stimuli/non_foods\non-food_inanimate_cactus_pot_plant.jpg	1	3	1	non-food_inanimate_cactus_pot_plant	0	X	17	0	169	0		0	0	98.7590378999994	98.8590234999992
24543.25	0.100025300000198	289	satiated	stimuli/non_foods\non-food_animate_parrot.jpg	1	3	1	non-food_animate_parrot	0	R	12	0	133	0		0	0	98.9090204000004	99.0090457000006
24580.5	0.100008400000661	290	satiated	stimuli/foods\mushroom.jpg	1	3	1	mushroom	1	C	1	0	85	0		0	0	99.0590121999994	99.1590206000001
24618	0.0999867999998969	291	satiated	stimuli/foods\lamb_chops.jpg	1	3	1	lamb_chops	1	N	10	0	70	0		0	0	99.2090277000007	99.3090145000006
24655.75	0.0999869000006584	292	satiated	stimuli/non_foods\non-food_animate_butterfly.jpg	1	3	1	non-food_animate_butterfly	0	L	8	0	96	0		0	0	99.359031	99.4590179000006
24693	0.0999905999997281	293	satiated	stimuli/foods\ginger_root.jpg	1	3	1	ginger_root	1	D	2	0	57	0		0	0	99.5090278000007	99.6090184000004
24730.75	0.0999575000005279	294	satiated	stimuli/foods\papaya.jpg	1	3	1	papaya	1	R	12	0	235	0		0	0	99.6590698	99.7590273000005
24768	0.0999766999993881	295	satiated	stimuli/non_foods\non-food_animate_lizard.jpg	1	3	1	non-food_animate_lizard	0	W	16	0	126	0		0	0	99.8090303999998	99.9090070999991
24805.5	0.0999840999993467	296	satiated	stimuli/non_foods\non-food_animate_seal.jpg	1	3	1	non-food_animate_seal	0	L	8	0	146	0		0	0	99.9590250000001	100.059009099999
24843	0.0999898000009125	297	satiated	stimuli/non_foods\non-food_inanimate_stoplight.jpg	1	3	1	non-food_inanimate_stoplight	0	F	3	0	214	0		0	0	100.1090207	100.209010500001
24880.5	0.0999819000007847	298	satiated	stimuli/non_foods\non-food_animate_cheetah.jpg	1	3	1	non-food_animate_cheetah	0	Z	18	0	100	0		0	0	100.2590241	100.359006000001
24918	0.0999876000005315	299	satiated	stimuli/foods\chestnut.jpg	1	3	1	chestnut	1	S	13	0	24	0		0	0	100.409017599999	100.5090052
24955.5	0.099985499999093	300	satiated	stimuli/non_foods\non-food_inanimate_table.jpg	1	3	1	non-food_inanimate_table	0	M	9	0	217	0		0	0	100.559020000001	100.6590055
24993.25	0.0999623999996402	301	satiated	stimuli/non_foods\non-food_inanimate_scissors.jpg	1	3	1	non-food_inanimate_scissors	0	H	5	0	205	0		0	0	100.7090317	100.8089941
25030.5	0.0999842000001081	302	satiated	stimuli/non_foods\non-food_inanimate_folding_chair.jpg	1	3	1	non-food_inanimate_folding_chair	0	T	14	0	182	0		0	0	100.8590184	100.959002600001
25068	0.0999864999994315	303	satiated	stimuli/non_foods\non-food_animate_fox.jpg	1	3	1	non-food_animate_fox	0	W	16	0	112	0		0	0	101.0090181	101.109004599999
25105.5	0.0999852000004466	304	satiated	stimuli/foods\radish.jpg	1	3	1	radish	1	C	1	0	251	0		0	0	101.1590125	101.258997700001
25143	0.0999945000003208	305	satiated	stimuli/non_foods\non-food_inanimate_canoe.jpg	1	3	1	non-food_inanimate_canoe	0	J	6	0	170	0		0	0	101.3090192	101.4090137
25180.75	0.0999678999996831	306	satiated	stimuli/foods\cannoli.jpg	1	3	1	cannoli	1	S	13	0	17	0		0	0	101.4590307	101.5589986
25218	0.0999867999998969	307	satiated	stimuli/non_foods\non-food_animate_slug.jpg	1	3	1	non-food_animate_slug	0	W	16	0	148	0		0	0	101.6090093	101.7089961
25255.5	0.099983299998712	308	satiated	stimuli/non_foods\non-food_inanimate_suitcase.jpg	1	3	1	non-food_inanimate_suitcase	0	B	0	0	215	0		0	0	101.7590029	101.858986199999
25293	0.0999830999990081	309	satiated	stimuli/foods\cinnamon.jpg	1	3	1	cinnamon	1	X	17	0	30	0		0	0	101.9089982	102.0089813
25330.5	0.0999960000008286	310	satiated	stimuli/foods\lasagna.jpg	1	3	1	lasagna	1	A	19	1	71	0		0	0	102.058998299999	102.1589943
25368	0.0999816999992618	311	satiated	stimuli/foods\corncob.jpg	1	3	1	corncob	1	B	0	0	37	0		0	0	102.2090078	102.308989499999
25405.5	0.0999841000011656	312	satiated	stimuli/non_foods\non-food_animate_dolphin.jpg	1	3	1	non-food_animate_dolphin	0	C	1	0	106	0		0	0	102.359007499999	102.4589916
25443	0.0999831999997696	313	satiated	stimuli/foods\pancakes.jpg	1	3	1	pancakes	1	Z	18	0	234	0		0	0	102.509005800001	102.608989
25480.5	0.0999840000004042	314	satiated	stimuli/non_foods\non-food_animate_Asian_man.jpg	1	3	1	non-food_animate_Asian_man	0	S	13	0	88	1	a	0.691832100001193	1	102.6590039	102.758987900001
25518	0.0999946000010823	315	satiated	stimuli/non_foods\non-food_animate_mammoth.jpg	1	3	1	non-food_animate_mammoth	0	D	2	0	128	0		0	0	102.8089936	102.908988200001
25555.5	0.0999869999996008	316	satiated	stimuli/foods\cinnamon_sroll.jpg	1	3	1	cinnamon_sroll	1	P	11	0	31	0		0	0	102.9589913	103.0589783
25593	0.0999833999994735	317	satiated	stimuli/foods\lemon.jpg	1	3	1	lemon	1	G	4	0	72	0		0	0	103.1089932	103.208976599999
25630.5	0.0999792999991769	318	satiated	stimuli/non_foods\non-food_inanimate_socks.jpg	1	3	1	non-food_inanimate_socks	0	L	8	0	211	0		0	0	103.258995	103.358974299999
25668	0.0999830000000657	319	satiated	stimuli/non_foods\non-food_inanimate_buds.jpg	1	3	1	non-food_inanimate_buds	0	S	13	0	166	0		0	0	103.408985399999	103.5089684
25705.5	0.0999850000007427	320	satiated	stimuli/foods\dates.jpg	1	3	1	dates	1	B	0	0	43	0		0	0	103.558984499999	103.6589695
25743	0.0999685999995563	321	satiated	stimuli/non_foods\non-food_inanimate_waterlily.jpg	1	3	1	non-food_inanimate_waterlily	0	R	12	0	226	0		0	0	103.708992899999	103.808961499999
25780.5	0.0999897000001511	322	satiated	stimuli/non_foods\non-food_animate_kangaroo.jpg	1	3	1	non-food_animate_kangaroo	0	F	3	0	122	0		0	0	103.8589816	103.9589713
25818	0.0999888999995164	323	satiated	stimuli/foods\linguine_with_clams.jpg	1	3	1	linguine_with_clams	1	V	15	0	77	0		0	0	104.0089739	104.108962799999
25855.5	0.100004699999772	324	satiated	stimuli/foods\figs.jpg	1	3	1	figs	1	T	14	0	48	0		0	0	104.158969399999	104.258974099999
25893	0.0999850999996852	325	satiated	stimuli/non_foods\non-food_inanimate_toilet.jpg	1	3	1	non-food_inanimate_toilet	0	S	13	0	220	0		0	0	104.308986399999	104.408971499999
25930.5	0.0999756000001071	326	satiated	stimuli/non_foods\non-food_inanimate_construction_helment.jpg	1	3	1	non-food_inanimate_construction_helment	0	W	16	0	175	0		0	0	104.458994799999	104.558970399999
25968	0.0999738999998954	327	satiated	stimuli/non_foods\non-food_animate_polar_bear.jpg	1	3	1	non-food_animate_polar_bear	0	L	8	0	137	0		0	0	104.608984799999	104.708958699999
26005.5	0.0999957000003633	328	satiated	stimuli/non_foods\non-food_animate_chicken.jpg	1	3	1	non-food_animate_chicken	0	K	7	0	101	0		0	0	104.7589735	104.858969200001
26043	0.100010999998631	329	satiated	stimuli/foods\chocolate_chip_cookies.jpg	1	3	1	chocolate_chip_cookies	1	N	10	0	27	0		0	0	104.90897	105.008980999999
26080.5	0.0999609999998938	330	satiated	stimuli/non_foods\non-food_animate_eagle.jpg	1	3	1	non-food_animate_eagle	0	T	14	0	110	0		0	0	105.0590011	105.1589621
26118	0.0999756000001071	331	satiated	stimuli/non_foods\non-food_inanimate_teddy_bear.jpg	1	3	1	non-food_inanimate_teddy_bear	0	K	7	0	218	0		0	0	105.2089787	105.308954300001
26155.5	0.0999765999986266	332	satiated	stimuli/foods\lemon_meringue_pie.jpg	1	3	1	lemon_meringue_pie	1	M	9	0	73	0		0	0	105.358973500001	105.458950099999
26193	0.0999827999985428	333	satiated	stimuli/foods\pork_and_rice.jpg	1	3	1	pork_and_rice	1	B	0	0	245	0		0	0	105.5089647	105.608947499999
26230.5	0.099990800001251	334	satiated	stimuli/foods\salmon.jpg	1	3	1	salmon	1	I	21	1	264	0		0	0	105.658974599999	105.7589654
26268	0.0999799000001076	335	satiated	stimuli/foods\almonds.jpg	1	3	1	almonds	1	P	11	0	0	0		0	0	105.8089767	105.9089566
26305.5	0.0999944999985019	336	satiated	stimuli/non_foods\non-food_animate_lion.jpg	1	3	1	non-food_animate_lion	0	N	10	0	125	0		0	0	105.958974200001	106.058968699999
26343	0.099985500000912	337	satiated	stimuli/foods\grapes.jpg	1	3	1	grapes	1	T	14	0	60	0		0	0	106.108974499999	106.20896
26380.5	0.0999871000003623	338	satiated	stimuli/foods\chocolate_pralines.jpg	1	3	1	chocolate_pralines	1	H	5	0	28	0		0	0	106.2589696	106.3589567
26418	0.0999687999992602	339	satiated	stimuli/non_foods\non-food_inanimate_towel.jpg	1	3	1	non-food_inanimate_towel	0	V	15	0	221	0		0	0	106.408968600001	106.5089374
26455.5	0.0999904999989667	340	satiated	stimuli/foods\pear.jpg	1	3	1	pear	1	D	2	0	239	0		0	0	106.5589602	106.658950699999
26493	0.0999771999995573	341	satiated	stimuli/foods\risotto_with_peas_and_asparagus_tips.jpg	1	3	1	risotto_with_peas_and_asparagus_tips	1	W	16	0	259	0		0	0	106.708972500001	106.8089497
26530.5	0.0999884000011662	342	satiated	stimuli/foods\toasted_bread_with_tomatoes.jpg	1	3	1	toasted_bread_with_tomatoes	1	B	0	0	275	0		0	0	106.858957099999	106.9589455
26568	0.0999864999994315	343	satiated	stimuli/non_foods\non-food_inanimate_soccer_ball.jpg	1	3	1	non-food_inanimate_soccer_ball	0	L	8	0	210	0		0	0	107.0089489	107.1089354
26605.5	0.0999978999989253	344	satiated	stimuli/non_foods\non-food_inanimate_button.jpg	1	3	1	non-food_inanimate_button	0	F	3	0	168	0		0	0	107.158953300001	107.2589512
26643	0.0999836999999388	345	satiated	stimuli/non_foods\non-food_inanimate_short_sleeved_shirt.jpg	1	3	1	non-food_inanimate_short_sleeved_shirt	0	P	11	0	207	0		0	0	107.308962499999	107.408946199999
26680.5	0.100008200000957	346	satiated	stimuli/non_foods\non-food_inanimate_bicycle.jpg	1	3	1	non-food_inanimate_bicycle	0	B	0	0	161	0		0	0	107.458933599999	107.5589418
26718	0.0999897999990935	347	satiated	stimuli/foods\cabbage.jpg	1	3	1	cabbage	1	N	10	0	16	0		0	0	107.608958700001	107.7089485
26755.5	0.100019499999689	348	satiated	stimuli/non_foods\non-food_animate_killer_whale.jpg	1	3	1	non-food_animate_killer_whale	0	Z	18	0	123	0		0	0	107.758949200001	107.8589687
26793	0.0999886999998125	349	satiated	stimuli/non_foods\non-food_inanimate_pine_cone.jpg	1	3	1	non-food_inanimate_pine_cone	0	B	0	0	200	0		0	0	107.908957600001	108.0089463
26830.5	0.0999836999999388	350	satiated	stimuli/foods\garlic.jpg	1	3	1	garlic	1	F	3	0	56	0		0	0	108.0589573	108.158941
26868	0.0999848000010388	351	satiated	stimuli/non_foods\non-food_inanimate_nailpolish.jpg	1	3	1	non-food_inanimate_nailpolish	0	X	17	0	195	0		0	0	108.2089399	108.308924700001
26905.5	0.10000890000083	352	satiated	stimuli/foods\capsicum.jpg	1	3	1	capsicum	1	H	5	0	18	0		0	0	108.3589426	108.458951500001
26943	0.0999547999999777	353	satiated	stimuli/non_foods\non-food_animate_snail.jpg	1	3	1	non-food_animate_snail	0	P	11	0	149	0		0	0	108.5089826	108.6089374
26980.5	0.099987699999474	354	satiated	stimuli/foods\peach.jpg	1	3	1	peach	1	H	5	0	238	0		0	0	108.6589475	108.7589352
27018	0.0999829000011232	355	satiated	stimuli/foods\brownie.jpg	1	3	1	brownie	1	S	13	0	14	0		0	0	108.808949799999	108.9089327
27055.5	0.0999845999995159	356	satiated	stimuli/non_foods\non-food_inanimate_gloves.jpg	1	3	1	non-food_inanimate_gloves	0	Z	18	0	183	0		0	0	108.9589469	109.0589315
27093	0.0999707000009948	357	satiated	stimuli/foods\honey.jpg	1	3	1	honey	1	B	0	0	66	0		0	0	109.1089452	109.208915900001
27130.5	0.100009199999477	358	satiated	stimuli/foods\minestrone_soup.jpg	1	3	1	minestrone_soup	1	K	7	0	82	0		0	0	109.258920300001	109.3589295
27168	0.0999874000008276	359	satiated	stimuli/non_foods\non-food_animate_dachshund.jpg	1	3	1	non-food_animate_dachshund	0	H	5	0	104	0		0	0	109.408941899999	109.5089293
27205.5	0.0999878000002354	360	satiated	stimuli/non_foods\non-food_inanimate_speakers.jpg	1	3	1	non-food_inanimate_speakers	0	F	3	0	212	0		0	0	109.5589382	109.658926
27243	0.0999867999998969	361	satiated	stimuli/non_foods\non-food_inanimate_skateboard.jpg	1	3	1	non-food_inanimate_skateboard	0	X	17	0	208	0		0	0	109.7089387	109.8089255
27280.5	0.0999826000006578	362	satiated	stimuli/foods\lentils.jpg	1	3	1	lentils	1	H	5	0	74	0		0	0	109.8589376	109.958920200001
27318	0.0999861000000237	363	satiated	stimuli/non_foods\non-food_animate_mouse.jpg	1	3	1	non-food_animate_mouse	0	J	6	0	131	0		0	0	110.0089365	110.1089226
27355.5	0.0999974999995175	364	satiated	stimuli/foods\fries.jpg	1	3	1	fries	1	B	0	0	52	0		0	0	110.1589325	110.25893
27393.25	0.0999418999999762	365	satiated	stimuli/foods\asparagus.jpg	1	3	1	asparagus	1	V	15	0	4	0		0	0	110.3089776	110.4089195
27430.5	0.0999846000013349	366	satiated	stimuli/non_foods\non-food_animate_iguana.jpg	1	3	1	non-food_animate_iguana	0	G	4	0	121	0		0	0	110.458931699999	110.5589163
27468	0.0999823000001925	367	satiated	stimuli/non_foods\non-food_animate_penguin.jpg	1	3	1	non-food_animate_penguin	0	T	14	0	135	0		0	0	110.608931799999	110.7089141
27505.5	0.0999850999996852	368	satiated	stimuli/foods\raisins.jpg	1	3	1	raisins	1	G	4	0	252	0		0	0	110.7589305	110.8589156
27543	0.0999818999989657	369	satiated	stimuli/non_foods\non-food_inanimate_alarm_clock.jpg	1	3	1	non-food_inanimate_alarm_clock	0	P	11	0	158	0		0	0	110.908932	111.008913899999
27580.5	0.0999852000004466	370	satiated	stimuli/non_foods\non-food_inanimate_headphones.jpg	1	3	1	non-food_inanimate_headphones	0	C	1	0	188	0		0	0	111.0589258	111.158911
27618	0.0999836999999388	371	satiated	stimuli/non_foods\non-food_inanimate_bed.jpg	1	3	1	non-food_inanimate_bed	0	S	13	0	160	0		0	0	111.2089266	111.3089103
27655.5	0.0999682000001485	372	satiated	stimuli/foods\steak.jpg	1	3	1	steak	1	B	0	0	270	0		0	0	111.358940300001	111.458908500001
27693	0.0999881000007008	373	satiated	stimuli/non_foods\non-food_inanimate_chandelier.jpg	1	3	1	non-food_inanimate_chandelier	0	T	14	0	173	0		0	0	111.5089226	111.608910700001
27730.5	0.0999833999994735	374	satiated	stimuli/non_foods\non-food_animate_baby_sitting.jpg	1	3	1	non-food_animate_baby_sitting	0	K	7	0	93	0		0	0	111.6589251	111.7589085
27768	0.0999860000010813	375	satiated	stimuli/foods\fruit_pie.jpg	1	3	1	fruit_pie	1	R	12	0	54	0		0	0	111.808918499999	111.9089045
27805.5	0.0999971000001096	376	satiated	stimuli/foods\fennel.jpg	1	3	1	fennel	1	L	8	0	47	0		0	0	111.958923799999	112.058920899999
27843	0.0999619000012899	377	satiated	stimuli/non_foods\non-food_animate_peacock.jpg	1	3	1	non-food_animate_peacock	0	G	4	0	134	0		0	0	112.108939199999	112.208901100001
27880.5	0.0999871999993047	378	satiated	stimuli/foods\hazelnuts.jpg	1	3	1	hazelnuts	1	J	6	0	65	0		0	0	112.258915500001	112.3589027
27918	0.0999756000001071	379	satiated	stimuli/non_foods\non-food_inanimate_toy_airplane.jpg	1	3	1	non-food_inanimate_toy_airplane	0	P	11	0	222	0		0	0	112.4089258	112.5089014
27955.5	0.0999810000012076	380	satiated	stimuli/foods\cereal.jpg	1	3	1	cereal	1	V	15	0	22	0		0	0	112.558917799999	112.6588988
27993	0.099959500001205	381	satiated	stimuli/non_foods\non-food_inanimate_rack.jpg	1	3	1	non-food_inanimate_rack	0	X	17	0	202	0		0	0	112.7089136	112.808873100001
28030.5	0.100014600000577	382	satiated	stimuli/foods\tomato.jpg	1	3	1	tomato	1	D	2	0	276	0		0	0	112.858886599999	112.9589012
28068	0.0999659999997675	383	satiated	stimuli/foods\stew_with_potatoes_and_carrots.jpg	1	3	1	stew_with_potatoes_and_carrots	1	C	1	0	271	0		0	0	113.008909800001	113.108875800001
28105.5	0.100007299999561	384	satiated	stimuli/foods\fried_calamari.jpg	1	3	1	fried_calamari	1	G	4	0	50	0		0	0	113.1588882	113.258895499999
28143	0.0999867999998969	385	satiated	stimuli/foods\grilled_chicken_breast.jpg	1	3	1	grilled_chicken_breast	1	B	0	0	63	0		0	0	113.3089055	113.4088923
28180.5	0.0999890000002779	386	satiated	stimuli/non_foods\non-food_animate_green_bug.jpg	1	3	1	non-food_animate_green_bug	0	H	5	0	118	1	a	0	0	113.458904699999	113.558893699999
28218	0.0999769999998534	387	satiated	stimuli/foods\baked_lamb_with_potatoes.jpg	1	3	1	baked_lamb_with_potatoes	1	P	11	0	8	0		0	0	113.6089049	113.7088819
28255.5	0.100031800000579	388	satiated	stimuli/non_foods\non-food_inanimate_tulip.jpg	1	3	1	non-food_inanimate_tulip	0	T	14	0	224	0		0	0	113.7589109	113.858942700001
28293	0.0999473000010767	389	satiated	stimuli/foods\waffle.jpg	1	3	1	waffle	1	W	16	0	278	0		0	0	113.908939999999	114.0088873
28330.5	0.0999846999984584	390	satiated	stimuli/foods\taco.jpg	1	3	1	taco	1	N	10	0	274	0		0	0	114.058899600001	114.158884299999
28368	0.0999883999993472	391	satiated	stimuli/foods\eggplant.jpg	1	3	1	eggplant	1	F	3	0	46	0		0	0	114.2088977	114.3088861
28405.5	0.0999819000007847	392	satiated	stimuli/foods\pineapple.jpg	1	3	1	pineapple	1	V	15	0	243	0		0	0	114.358899999999	114.4588819
28443	0.0999762999999803	393	satiated	stimuli/non_foods\non-food_animate_owl.jpg	1	3	1	non-food_animate_owl	0	W	16	0	132	0		0	0	114.508895700001	114.608872000001
28480.5	0.0999834000012925	394	satiated	stimuli/foods\potato_chips.jpg	1	3	1	potato_chips	1	L	8	0	247	0		0	0	114.658900099999	114.758883500001
28518	0.0999885000001086	395	satiated	stimuli/foods\gnocchi.jpg	1	3	1	gnocchi	1	X	17	0	58	0		0	0	114.8088917	114.908880200001
28555.5	0.0999852999993891	396	satiated	stimuli/foods\ice_cream.jpg	1	3	1	ice_cream	1	N	10	0	68	0		0	0	114.958892500001	115.0588778
28593	0.0999590000010357	397	satiated	stimuli/foods\fruit_flan.jpg	1	3	1	fruit_flan	1	W	16	0	53	0		0	0	115.108893799999	115.2088528
28630.5	0.099987699999474	398	satiated	stimuli/non_foods\non-food_inanimate_horn.jpg	1	3	1	non-food_inanimate_horn	0	D	2	0	190	0		0	0	115.2588885	115.3588762
28668	0.0999993000004906	399	satiated	stimuli/non_foods\non-food_animate_student_female.jpg	1	3	1	non-food_animate_student_female	0	L	8	0	151	0		0	0	115.4088815	115.5088808
28705.5	0.0999878000002354	400	satiated	stimuli/foods\frankfurter_and_provolone_salad.jpg	1	3	1	frankfurter_and_provolone_salad	1	M	9	0	49	0		0	0	115.5589002	115.658888
28743	0.0999788999997691	401	satiated	stimuli/non_foods\non-food_inanimate_chair.jpg	1	3	1	non-food_inanimate_chair	0	B	0	0	172	0		0	0	115.708890100001	115.808869
28780.5	0.0999851999986276	402	satiated	stimuli/foods\donut.jpg	1	3	1	donut	1	N	10	0	44	0		0	0	115.858886100001	115.958871299999
28818	0.0999862999997276	403	satiated	stimuli/foods\omelette.jpg	1	3	1	omelette	1	H	5	0	228	0		0	0	116.008882800001	116.1088691
28855.5	0.0999859000003198	404	satiated	stimuli/foods\nectarine.jpg	1	3	1	nectarine	1	V	15	0	87	0		0	0	116.1588859	116.258871800001
28893	0.0999793999999383	405	satiated	stimuli/non_foods\non-food_animate_ram.jpg	1	3	1	non-food_animate_ram	0	B	0	0	140	0		0	0	116.3088744	116.4088538
28930.5	0.0999854000001505	406	satiated	stimuli/foods\brie.jpg	1	3	1	brie	1	M	9	0	12	0		0	0	116.458872699999	116.558858099999
28968	0.0999821000004886	407	satiated	stimuli/non_foods\non-food_inanimate_guitar.jpg	1	3	1	non-food_inanimate_guitar	0	D	2	0	185	0		0	0	116.608864399999	116.7088465
29005.5	0.0999924999996438	408	satiated	stimuli/foods\grapefruits.jpg	1	3	1	grapefruits	1	P	11	0	59	0		0	0	116.758867	116.8588595
29043	0.099988800000574	409	satiated	stimuli/non_foods\non-food_animate_cat.jpg	1	3	1	non-food_animate_cat	0	L	8	0	98	0		0	0	116.9088768	117.008865600001
29080.5	0.0999885000001086	410	satiated	stimuli/non_foods\non-food_inanimate_lighter.jpg	1	3	1	non-food_inanimate_lighter	0	X	17	0	193	0		0	0	117.058875299999	117.158863799999
29118	0.0999926000004052	411	satiated	stimuli/non_foods\non-food_inanimate_fire_extinguisher.jpg	1	3	1	non-food_inanimate_fire_extinguisher	0	M	9	0	181	0		0	0	117.2088749	117.3088675
29155.5	0.0999608000001899	412	satiated	stimuli/foods\strawberry.jpg	1	3	1	strawberry	1	B	0	0	272	0		0	0	117.3588989	117.4588597
29193	0.0999799000001076	413	satiated	stimuli/non_foods\non-food_animate_elephant.jpg	1	3	1	non-food_animate_elephant	0	W	16	0	111	0		0	0	117.5088765	117.6088564
29230.5	0.099988800000574	414	satiated	stimuli/foods\peas.jpg	1	3	1	peas	1	J	6	0	240	0		0	0	117.658869299999	117.7588581
29268	0.099972500000149	415	satiated	stimuli/non_foods\non-food_inanimate_orchid.jpg	1	3	1	non-food_inanimate_orchid	0	H	5	0	198	0		0	0	117.808870299999	117.9088428
29305.5	0.0999811999990925	416	satiated	stimuli/non_foods\non-food_inanimate_nettle.jpg	1	3	1	non-food_inanimate_nettle	0	N	10	0	197	0		0	0	117.9588597	118.058840899999
29343	0.0999848999999813	417	satiated	stimuli/non_foods\non-food_animate_llama.jpg	1	3	1	non-food_animate_llama	0	F	3	0	127	0		0	0	118.108855099999	118.208839999999
29380.5	0.0999848999999813	418	satiated	stimuli/foods\baked_cod_with_carrots_and_green_beans.jpg	1	3	1	baked_cod_with_carrots_and_green_beans	1	P	11	0	7	0		0	0	118.2588571	118.358842
29418	0.0999938000004477	419	satiated	stimuli/foods\potato_and_green_bean_salad.jpg	1	3	1	potato_and_green_bean_salad	1	Z	18	0	246	0		0	0	118.4088479	118.508841700001
29914	0.0999761000002763	420	satiated	stimuli/foods\risotto_with_zucchini.jpg	1	4	1	risotto_with_zucchini	1	K	7	0	260	0		0	0	120.3921823	120.4921584
29951.5	0.0999833999994735	421	satiated	stimuli/foods\rice.jpg	1	4	1	rice	1	J	6	0	257	0		0	0	120.542173	120.642156399999
29989	0.0999791999984154	422	satiated	stimuli/foods\green_olives.jpg	1	4	1	green_olives	1	C	1	0	62	0		0	0	120.692183900001	120.792163099999
30026.5	0.0999819000007847	423	satiated	stimuli/non_foods\non-food_animate_german_shepherd.jpg	1	4	1	non-food_animate_german_shepherd	0	P	11	0	114	0		0	0	120.8421817	120.942163600001
30064	0.0999711999993451	424	satiated	stimuli/non_foods\non-food_inanimate_hammer.jpg	1	4	1	non-food_inanimate_hammer	0	C	1	0	186	0		0	0	120.992180400001	121.0921516
30101.5	0.0999869999996008	425	satiated	stimuli/non_foods\non-food_inanimate_stapler.jpg	1	4	1	non-food_inanimate_stapler	0	V	15	0	213	0		0	0	121.1421651	121.2421521
30139	0.0999960999997711	426	satiated	stimuli/non_foods\non-food_inanimate_ring.jpg	1	4	1	non-food_inanimate_ring	0	C	1	0	203	0		0	0	121.292167600001	121.3921637
30176.5	0.099994099999094	427	satiated	stimuli/non_foods\non-food_animate_skunk.jpg	1	4	1	non-food_animate_skunk	0	D	2	0	147	0		0	0	121.442164300001	121.5421584
30214	0.0999864000004891	428	satiated	stimuli/non_foods\non-food_animate_clown.jpg	1	4	1	non-food_animate_clown	0	M	9	0	102	0		0	0	121.592170599999	121.692156999999
30251.5	0.0999685999995563	429	satiated	stimuli/non_foods\non-food_inanimate_bowling_ball.jpg	1	4	1	non-food_inanimate_bowling_ball	0	L	8	0	162	0		0	0	121.7421706	121.8421392
30289	0.10002010000062	430	satiated	stimuli/foods\mussels.jpg	1	4	1	mussels	1	V	15	0	86	0		0	0	121.8921443	121.992164400001
30326.5	0.0999672999987524	431	satiated	stimuli/non_foods\non-food_animate_porcupine.jpg	1	4	1	non-food_animate_porcupine	0	G	4	0	138	0		0	0	122.0421757	122.142142999999
30364	0.0999857999995584	432	satiated	stimuli/foods\apple.jpg	1	4	1	apple	1	B	0	0	1	0		0	0	122.192167900001	122.2921537
30401.5	0.0999859000003198	433	satiated	stimuli/non_foods\non-food_animate_squirrel.jpg	1	4	1	non-food_animate_squirrel	0	C	1	0	150	0		0	0	122.342162499999	122.442148399999
30439	0.0999867999998969	434	satiated	stimuli/foods\beetroots.jpg	1	4	1	beetroots	1	X	17	0	10	0		0	0	122.4921608	122.5921476
30476.5	0.0999816000003193	435	satiated	stimuli/foods\fried_zucchini.jpg	1	4	1	fried_zucchini	1	N	10	0	51	0		0	0	122.6421618	122.742143400001
30514	0.0999855999998545	436	satiated	stimuli/foods\mortadella.jpg	1	4	1	mortadella	1	F	3	0	83	0		0	0	122.792156899999	122.892142499999
30551.5	0.0999847000002774	437	satiated	stimuli/non_foods\non-food_inanimate_cap.jpg	1	4	1	non-food_inanimate_cap	0	T	14	0	171	0		0	0	122.9421607	123.042145400001
30589	0.0999852999993891	438	satiated	stimuli/non_foods\non-food_animate_sea_lion.jpg	1	4	1	non-food_animate_sea_lion	0	K	7	0	143	0		0	0	123.092156000001	123.1921413
30626.5	0.0999851000015042	439	satiated	stimuli/non_foods\non-food_inanimate_bush.jpg	1	4	1	non-food_inanimate_bush	0	T	14	0	167	0		0	0	123.242157299999	123.342142400001
30664	0.0999866999991355	440	satiated	stimuli/foods\chilli.jpg	1	4	1	chilli	1	L	8	0	25	0		0	0	123.3921541	123.492140799999
30701.5	0.0999864000004891	441	satiated	stimuli/non_foods\non-food_animate_tortoise.jpg	1	4	1	non-food_animate_tortoise	0	J	6	0	153	0		0	0	123.542151199999	123.6421376
30739	0.100014399999054	442	satiated	stimuli/foods\raw_sausage.jpg	1	4	1	raw_sausage	1	G	4	0	254	0		0	0	123.692151900001	123.7921663
30776.5	0.0999403000005259	443	satiated	stimuli/foods\cauliflower.jpg	1	4	1	cauliflower	1	K	7	0	20	0		0	0	123.842196199999	123.9421365
30814	0.0999850999996852	444	satiated	stimuli/foods\broccoli.jpg	1	4	1	broccoli	1	V	15	0	13	0		0	0	123.9921476	124.0921327
30851.5	0.0999881999996433	445	satiated	stimuli/non_foods\non-food_inanimate_moss.jpg	1	4	1	non-food_inanimate_moss	0	C	1	0	194	0		0	0	124.1421472	124.2421354
30889	0.0999827000014193	446	satiated	stimuli/non_foods\non-food_animate_ant.jpg	1	4	1	non-food_animate_ant	0	Z	18	0	91	0		0	0	124.292144699999	124.3921274
30926.5	0.0999876000005315	447	satiated	stimuli/non_foods\non-food_animate_bat.jpg	1	4	1	non-food_animate_bat	0	P	11	0	94	0		0	0	124.442135199999	124.5421228
30964	0.0999849999989237	448	satiated	stimuli/non_foods\non-food_inanimate_nest.jpg	1	4	1	non-food_inanimate_nest	0	Z	18	0	196	0		0	0	124.5921373	124.692122299999
31001.5	0.0999836999999388	449	satiated	stimuli/foods\kiwi.jpg	1	4	1	kiwi	1	M	9	0	69	0		0	0	124.742135099999	124.842118799999
31039	0.0999936999996862	450	satiated	stimuli/foods\blackberry.jpg	1	4	1	blackberry	1	C	1	0	11	0		0	0	124.892134600001	124.9921283
31076.5	0.100001900000279	451	satiated	stimuli/non_foods\non-food_animate_monkey.jpg	1	4	1	non-food_animate_monkey	0	P	11	0	130	0		0	0	125.042121299999	125.142123199999
31114	0.0999971000001096	452	satiated	stimuli/non_foods\non-food_inanimate_briefcase.jpg	1	4	1	non-food_inanimate_briefcase	0	G	4	0	163	0		0	0	125.1921391	125.2921362
31151.5	0.0999861000000237	453	satiated	stimuli/foods\prawn.jpg	1	4	1	prawn	1	R	12	0	249	0		0	0	125.342137199999	125.442123299999
31189	0.0999824000009539	454	satiated	stimuli/foods\green_beans.jpg	1	4	1	green_beans	1	G	4	0	61	0		0	0	125.4921497	125.592132100001
31226.5	0.0999630999995134	455	satiated	stimuli/non_foods\non-food_animate_hummingbird.jpg	1	4	1	non-food_animate_hummingbird	0	F	3	0	120	0		0	0	125.6421591	125.742122199999
31264	0.0999809000004461	456	satiated	stimuli/foods\pomegranate.jpg	1	4	1	pomegranate	1	K	7	0	244	0		0	0	125.7921355	125.8921164
31301.5	0.0999867000009544	457	satiated	stimuli/foods\potatoes.jpg	1	4	1	potatoes	1	B	0	0	248	0		0	0	125.9421317	126.042118400001
31339	0.0999838000007003	458	satiated	stimuli/foods\smoked_ham.jpg	1	4	1	smoked_ham	1	R	12	0	266	0		0	0	126.0921327	126.1921165
31376.5	0.0999867999998969	459	satiated	stimuli/foods\celery.jpg	1	4	1	celery	1	C	1	0	21	0		0	0	126.242127699999	126.342114499999
31414	0.0999922999999399	460	satiated	stimuli/non_foods\non-food_animate_donkey.jpg	1	4	1	non-food_animate_donkey	0	G	4	0	107	0		0	0	126.3921233	126.4921156
31451.5	0.0999776999997266	461	satiated	stimuli/non_foods\non-food_inanimate_jeans.jpg	1	4	1	non-food_inanimate_jeans	0	F	3	0	191	0		0	0	126.5421284	126.6421061
31489	0.0999847999992198	462	satiated	stimuli/non_foods\non-food_animate_Causasian_man.jpg	1	4	1	non-food_animate_Causasian_man	0	T	14	0	89	0		0	0	126.6921203	126.792105099999
31526.5	0.0999940000001516	463	satiated	stimuli/non_foods\non-food_animate_frog.jpg	1	4	1	non-food_animate_frog	0	M	9	0	113	0		0	0	126.842118299999	126.942112299999
31564	0.0999818999989657	464	satiated	stimuli/non_foods\non-food_animate_grasshopper.jpg	1	4	1	non-food_animate_grasshopper	0	X	17	0	117	0		0	0	126.9921252	127.092107099999
31601.5	0.0999912999996013	465	satiated	stimuli/non_foods\non-food_inanimate_couch.jpg	1	4	1	non-food_inanimate_couch	0	V	15	0	176	0		0	0	127.1421219	127.2421132
31639	0.0999680999993871	466	satiated	stimuli/non_foods\non-food_animate_gorilla.jpg	1	4	1	non-food_animate_gorilla	0	E	20	1	116	0		0	0	127.2921296	127.3920977
31676.5	0.0999770999987959	467	satiated	stimuli/non_foods\non-food_animate_runner.jpg	1	4	1	non-food_animate_runner	0	W	16	0	142	0		0	0	127.442121300001	127.542098399999
31714	0.0999926999993477	468	satiated	stimuli/non_foods\non-food_inanimate_cupboard.jpg	1	4	1	non-food_inanimate_cupboard	0	K	7	0	177	0		0	0	127.5921098	127.692102499999
31751.5	0.0999813999987964	469	satiated	stimuli/non_foods\non-food_inanimate_tree.jpg	1	4	1	non-food_inanimate_tree	0	C	1	0	223	1	a	0.443271799998911	1	127.7421104	127.842091799999
31789	0.0999848999999813	470	satiated	stimuli/foods\fruit_salad.jpg	1	4	1	fruit_salad	1	L	8	0	55	0		0	0	127.892108	127.9920929
31826.5	0.0999852999993891	471	satiated	stimuli/foods\coffee_beans.jpg	1	4	1	coffee_beans	1	N	10	0	34	0		0	0	128.042106700001	128.142092
31864	0.0999815999985003	472	satiated	stimuli/foods\cream_donuts.jpg	1	4	1	cream_donuts	1	C	1	0	39	0		0	0	128.1921072	128.292088799999
31901.5	0.0999965000009979	473	satiated	stimuli/non_foods\non-food_animate_sea_turtle.jpg	1	4	1	non-food_animate_sea_turtle	0	B	0	0	144	0		0	0	128.342103999999	128.4421005
31939	0.0999819999997271	474	satiated	stimuli/non_foods\non-food_animate_dragonfly.jpg	1	4	1	non-food_animate_dragonfly	0	M	9	0	108	0		0	0	128.4921051	128.5920871
31976.5	0.0999895999993896	475	satiated	stimuli/non_foods\non-food_animate_seahorse.jpg	1	4	1	non-food_animate_seahorse	0	H	5	0	145	0		0	0	128.642099000001	128.7420886
32014	0.0999927000011667	476	satiated	stimuli/foods\lettuce.jpg	1	4	1	lettuce	1	R	12	0	75	0		0	0	128.792100999999	128.8920937
32051.5	0.0999793999999383	477	satiated	stimuli/foods\hamburger.jpg	1	4	1	hamburger	1	C	1	0	64	0		0	0	128.9421122	129.0420916
32089	0.100001300001168	478	satiated	stimuli/non_foods\non-food_inanimate_bamboo.jpg	1	4	1	non-food_inanimate_bamboo	0	M	9	0	159	0		0	0	129.092117599999	129.1921189
32126.5	0.0999609999998938	479	satiated	stimuli/foods\savory_pie.jpg	1	4	1	savory_pie	1	J	6	0	265	0		0	0	129.2421282	129.342089199999
32164	0.0999881000007008	480	satiated	stimuli/foods\avocado.jpg	1	4	1	avocado	1	K	7	0	5	0		0	0	129.3921006	129.492088700001
32201.5	0.0999873000000662	481	satiated	stimuli/foods\chocolate_pudding.jpg	1	4	1	chocolate_pudding	1	M	9	0	29	0		0	0	129.5420997	129.642087
32239	0.0999816999992618	482	satiated	stimuli/non_foods\non-food_inanimate_tent.jpg	1	4	1	non-food_inanimate_tent	0	D	2	0	219	0		0	0	129.6921028	129.792084499999
32276.5	0.0999838000007003	483	satiated	stimuli/non_foods\non-food_animate_young_boy.jpg	1	4	1	non-food_animate_young_boy	0	W	16	0	156	0		0	0	129.842097499999	129.9420813
32314	0.099987699999474	484	satiated	stimuli/foods\cooked_prawn.jpg	1	4	1	cooked_prawn	1	H	5	0	36	0		0	0	129.9920977	130.0920854
32351.5	0.100005199999941	485	satiated	stimuli/foods\egg.jpg	1	4	1	egg	1	L	8	0	45	0		0	0	130.142093500001	130.2420987
32389	0.0999891000010393	486	satiated	stimuli/non_foods\non-food_inanimate_rope.jpg	1	4	1	non-food_inanimate_rope	0	M	9	0	204	0		0	0	130.2920927	130.392081800001
32426.5	0.0999861000000237	487	satiated	stimuli/non_foods\non-food_inanimate_wrench.jpg	1	4	1	non-food_inanimate_wrench	0	R	12	0	227	0		0	0	130.4420947	130.5420808
32464	0.0999816999992618	488	satiated	stimuli/foods\coconut.jpg	1	4	1	coconut	1	N	10	0	33	0		0	0	130.5920929	130.6920746
32501.5	0.0999914999993052	489	satiated	stimuli/foods\onion.jpg	1	4	1	onion	1	K	7	0	229	0		0	0	130.7420922	130.842083699999
32539	0.0999597000009089	490	satiated	stimuli/non_foods\non-food_animate_ladybug.jpg	1	4	1	non-food_animate_ladybug	0	M	9	0	124	0		0	0	130.892113599999	130.9920733
32576.5	0.0999857999995584	491	satiated	stimuli/non_foods\non-food_animate_duck.jpg	1	4	1	non-food_animate_duck	0	V	15	0	109	0		0	0	131.042089500001	131.1420753
32614	0.0999829000011232	492	satiated	stimuli/foods\spring_onions.jpg	1	4	1	spring_onions	1	L	8	0	269	0		0	0	131.192088899999	131.2920718
32651.5	0.099982199999431	493	satiated	stimuli/foods\rockmelon.jpg	1	4	1	rockmelon	1	N	10	0	262	0		0	0	131.3420871	131.442069299999
32689	0.0999866999991355	494	satiated	stimuli/foods\cherry.jpg	1	4	1	cherry	1	X	17	0	23	0		0	0	131.492082700001	131.5920694
32726.5	0.0999814999995579	495	satiated	stimuli/foods\artichoke.jpg	1	4	1	artichoke	1	B	0	0	3	0		0	0	131.6420851	131.7420666
32764	0.0999783000006573	496	satiated	stimuli/foods\museli_bars.jpg	1	4	1	museli_bars	1	G	4	0	84	0		0	0	131.7920887	131.892067000001
32801.5	0.0999802999995154	497	satiated	stimuli/non_foods\non-food_inanimate_fern.jpg	1	4	1	non-food_inanimate_fern	0	C	1	0	180	0		0	0	131.9420868	132.042067099999
32839	0.0999814000006154	498	satiated	stimuli/non_foods\non-food_animate_giraffe.jpg	1	4	1	non-food_animate_giraffe	0	N	10	0	115	0		0	0	132.0920859	132.1920673
32876.5	0.0999856999987969	499	satiated	stimuli/non_foods\non-food_animate_woman.jpg	1	4	1	non-food_animate_woman	0	M	9	0	154	0		0	0	132.2420798	132.342065499999
32914	0.0999836000009964	500	satiated	stimuli/foods\chocolate_bar.jpg	1	4	1	chocolate_bar	1	K	7	0	26	0		0	0	132.392078499999	132.4920621
32951.5	0.099999599999137	501	satiated	stimuli/foods\brussel_sprouts.jpg	1	4	1	brussel_sprouts	1	Z	18	0	15	0		0	0	132.5420749	132.6420745
32989	0.0999797000004037	502	satiated	stimuli/non_foods\non-food_inanimate_watering_can.jpg	1	4	1	non-food_inanimate_watering_can	0	H	5	0	225	0		0	0	132.692098899999	132.7920786
33026.5	0.0999845999995159	503	satiated	stimuli/foods\lollies.jpg	1	4	1	lollies	1	K	7	0	78	0		0	0	132.8420668	132.942051399999
33064	0.099995199998375	504	satiated	stimuli/non_foods\non-food_inanimate_shell.jpg	1	4	1	non-food_inanimate_shell	0	J	6	0	206	0		0	0	132.992064800001	133.092059999999
33101.5	0.0999845000005735	505	satiated	stimuli/non_foods\non-food_inanimate_protractor.jpg	1	4	1	non-food_inanimate_protractor	0	F	3	0	201	0		0	0	133.1420633	133.2420478
33139	0.0999859000003198	506	satiated	stimuli/foods\orange.jpg	1	4	1	orange	1	T	14	0	230	0		0	0	133.2920596	133.392045500001
33176.5	0.0999790000005305	507	satiated	stimuli/non_foods\non-food_animate_yellow_bug.jpg	1	4	1	non-food_animate_yellow_bug	0	K	7	0	155	0		0	0	133.442059499999	133.5420385
33214	0.100005399999645	508	satiated	stimuli/non_foods\non-food_inanimate_padlock.jpg	1	4	1	non-food_inanimate_padlock	0	J	6	0	199	0		0	0	133.592048	133.6920534
33251.5	0.100004500000068	509	satiated	stimuli/foods\spaghetti_with_meat_sauce.jpg	1	4	1	spaghetti_with_meat_sauce	1	S	13	0	267	0		0	0	133.7420686	133.842073100001
33289	0.0999850999996852	510	satiated	stimuli/non_foods\non-food_inanimate_drum_set.jpg	1	4	1	non-food_inanimate_drum_set	0	F	3	0	179	0		0	0	133.892065399999	133.992050499999
33326.5	0.0999857999995584	511	satiated	stimuli/non_foods\non-food_inanimate_grass.jpg	1	4	1	non-food_inanimate_grass	0	J	6	0	184	0		0	0	134.042062500001	134.1420483
33364	0.0999904000000242	512	satiated	stimuli/non_foods\non-food_animate_camel.jpg	1	4	1	non-food_animate_camel	0	G	4	0	97	0		0	0	134.1920584	134.2920488
33401.5	0.100015199999689	513	satiated	stimuli/non_foods\non-food_animate_deer.jpg	1	4	1	non-food_animate_deer	0	S	13	0	105	0		0	0	134.3420563	134.4420715
33439	0.0999408999996376	514	satiated	stimuli/foods\salami.jpg	1	4	1	salami	1	H	5	0	263	0		0	0	134.492103500001	134.5920444
33476.5	0.0999955000006594	515	satiated	stimuli/foods\wafer.jpg	1	4	1	wafer	1	D	2	0	277	0		0	0	134.6420499	134.7420454
33514	0.0999855999998545	516	satiated	stimuli/foods\raw_ham.jpg	1	4	1	raw_ham	1	S	13	0	253	0		0	0	134.7920546	134.8920402
33551.5	0.0999818000000232	517	satiated	stimuli/foods\red_cabbage.jpg	1	4	1	red_cabbage	1	M	9	0	256	0		0	0	134.9420517	135.0420335
33589	0.0999991000007867	518	satiated	stimuli/foods\bagel.jpg	1	4	1	bagel	1	S	13	0	6	0		0	0	135.092040699999	135.1920398
33626.5	0.099987699999474	519	satiated	stimuli/non_foods\non-food_inanimate_clover.jpg	1	4	1	non-food_inanimate_clover	0	J	6	0	174	0		0	0	135.2420516	135.3420393
33664	0.0999879999999393	520	satiated	stimuli/foods\spinach.jpg	1	4	1	spinach	1	N	10	0	268	0		0	0	135.392049599999	135.492037599999
33701.5	0.0999699999993027	521	satiated	stimuli/foods\oven-roasted_tomatoes.jpg	1	4	1	oven-roasted_tomatoes	1	R	12	0	232	0		0	0	135.5420572	135.6420272
33739	0.0999836000009964	522	satiated	stimuli/non_foods\non-food_animate_pigeon.jpg	1	4	1	non-food_animate_pigeon	0	H	5	0	136	0		0	0	135.692040599999	135.7920242
33776.5	0.0999959000000672	523	satiated	stimuli/foods\croissant.jpg	1	4	1	croissant	1	W	16	0	40	0		0	0	135.842038999999	135.942034899999
33814	0.0999850999996852	524	satiated	stimuli/foods\roasted_chicken.jpg	1	4	1	roasted_chicken	1	T	14	0	261	0		0	0	135.9920482	136.092033299999
33851.5	0.0999912999996013	525	satiated	stimuli/non_foods\non-food_animate_caterpillar.jpg	1	4	1	non-food_animate_caterpillar	0	L	8	0	99	0		0	0	136.142054100001	136.2420454
33889	0.0999709000006987	526	satiated	stimuli/foods\oregano.jpg	1	4	1	oregano	1	M	9	0	231	0		0	0	136.292057799999	136.3920287
33926.5	0.0999815000013768	527	satiated	stimuli/foods\apricot.jpg	1	4	1	apricot	1	W	16	0	2	0		0	0	136.442047999999	136.5420295
33964	0.0999852999993891	528	satiated	stimuli/foods\pasta_carbonara.jpg	1	4	1	pasta_carbonara	1	G	4	0	236	0		0	0	136.5920336	136.692018899999
34001.5	0.0999871999993047	529	satiated	stimuli/foods\lime.jpg	1	4	1	lime	1	S	13	0	76	0		0	0	136.7420318	136.842019
34039	0.099983300000531	530	satiated	stimuli/non_foods\non-food_animate_horse.jpg	1	4	1	non-food_animate_horse	0	J	6	0	119	0		0	0	136.892030499999	136.9920138
34076.5	0.0999845999995159	531	satiated	stimuli/foods\meatballs.jpg	1	4	1	meatballs	1	S	13	0	81	0		0	0	137.0420304	137.142014999999
34114	0.0999833999994735	532	satiated	stimuli/non_foods\non-food_animate_rhino.jpg	1	4	1	non-food_animate_rhino	0	G	4	0	141	0		0	0	137.192027200001	137.2920106
34151.5	0.0999828999993042	533	satiated	stimuli/non_foods\non-food_inanimate_sun_flower.jpg	1	4	1	non-food_inanimate_sun_flower	0	L	8	0	216	0		0	0	137.342040400001	137.4420233
34189	0.0999843000008696	534	satiated	stimuli/non_foods\non-food_inanimate_skirt.jpg	1	4	1	non-food_inanimate_skirt	0	H	5	0	209	0		0	0	137.492036899999	137.5920212
34226.5	0.0999869000006584	535	satiated	stimuli/non_foods\non-food_inanimate_broom.jpg	1	4	1	non-food_inanimate_broom	0	O	22	1	164	0		0	0	137.642034799999	137.7420217
34264	0.0999986999995599	536	satiated	stimuli/non_foods\non-food_inanimate_desk.jpg	1	4	1	non-food_inanimate_desk	0	G	4	0	178	0		0	0	137.792017	137.892015699999
34301.5	0.100010699999984	537	satiated	stimuli/foods\pumpkin.jpg	1	4	1	pumpkin	1	L	8	0	250	0		0	0	137.9420307	138.0420414
34339	0.0999492999999347	538	satiated	stimuli/non_foods\non-food_animate_swan.jpg	1	4	1	non-food_animate_swan	0	F	3	0	152	0		0	0	138.092063300001	138.1920126
34376.5	0.100005799999053	539	satiated	stimuli/foods\swordfish.jpg	1	4	1	swordfish	1	T	14	0	273	0		0	0	138.2420296	138.342035399999
34414	0.0999844999987545	540	satiated	stimuli/foods\cooked_ham.jpg	1	4	1	cooked_ham	1	B	0	0	35	0		0	0	138.3920273	138.492011799999
34451.5	0.0999856999987969	541	satiated	stimuli/non_foods\non-food_animate_millipede.jpg	1	4	1	non-food_animate_millipede	0	M	9	0	129	0		0	0	138.542027400001	138.6420131
34489	0.0999864000004891	542	satiated	stimuli/non_foods\non-food_animate_baby_crawling.jpg	1	4	1	non-food_animate_baby_crawling	0	J	6	0	92	0		0	0	138.6920238	138.792010200001
34526.5	0.0999857999995584	543	satiated	stimuli/non_foods\non-food_inanimate_leaf.jpg	1	4	1	non-food_inanimate_leaf	0	F	3	0	192	0		0	0	138.842023200001	138.942009
34564	0.0999871000003623	544	satiated	stimuli/foods\hotdog.jpg	1	4	1	hotdog	1	N	10	0	67	0		0	0	138.992019699999	139.0920068
34601.5	0.0999848000010388	545	satiated	stimuli/foods\cracker.jpg	1	4	1	cracker	1	B	0	0	38	0		0	0	139.142021	139.242005800001
34639	0.0999932999984594	546	satiated	stimuli/foods\rice_cake.jpg	1	4	1	rice_cake	1	L	8	0	258	0		0	0	139.292004200001	139.391997499999
34676.5	0.0999844999987545	547	satiated	stimuli/non_foods\non-food_inanimate_highlighter.jpg	1	4	1	non-food_inanimate_highlighter	0	F	3	0	189	0		0	0	139.442009	139.541993499999
34714	0.0999967999996443	548	satiated	stimuli/non_foods\non-food_animate_raccoon.jpg	1	4	1	non-food_animate_raccoon	0	G	4	0	139	0		0	0	139.592007400001	139.6920042
34751.5	0.100015800000619	549	satiated	stimuli/foods\cucumber.jpg	1	4	1	cucumber	1	W	16	0	41	0		0	0	139.741999	139.8420148
34789	0.0999615000000631	550	satiated	stimuli/foods\clams.jpg	1	4	1	clams	1	P	11	0	32	0		0	0	139.8920349	139.9919964
34826.5	0.0999876000005315	551	satiated	stimuli/non_foods\non-food_inanimate_bucket.jpg	1	4	1	non-food_inanimate_bucket	0	H	5	0	165	0		0	0	140.042009299999	140.1419969
34864	0.0999826000006578	552	satiated	stimuli/non_foods\non-food_animate_alligator.jpg	1	4	1	non-food_animate_alligator	0	F	3	0	90	0		0	0	140.192012699999	140.2919953
34901.5	0.0999848999999813	553	satiated	stimuli/non_foods\non-food_inanimate_hay.jpg	1	4	1	non-food_inanimate_hay	0	B	0	0	187	1	a	0	0	140.3420066	140.4419915
34939	0.0999869999996008	554	satiated	stimuli/foods\mango.jpg	1	4	1	mango	1	V	15	0	80	0		0	0	140.4920057	140.5919927
34976.5	0.0999825999988389	555	satiated	stimuli/non_foods\non-food_animate_cow.jpg	1	4	1	non-food_animate_cow	0	Z	18	0	103	0		0	0	140.642002000001	140.741984599999
35014	0.0999907000004896	556	satiated	stimuli/foods\cupcake.jpg	1	4	1	cupcake	1	P	11	0	42	0		0	0	140.791996599999	140.8919873
35051.5	0.100004400001126	557	satiated	stimuli/non_foods\non-food_animate_bee.jpg	1	4	1	non-food_animate_bee	0	J	6	0	95	0		0	0	140.941991199999	141.041995600001
35089	0.09997580000163	558	satiated	stimuli/foods\carrot.jpg	1	4	1	carrot	1	F	3	0	19	0		0	0	141.092002899999	141.191978700001
35126.5	0.0999838000007003	559	satiated	stimuli/foods\watermelon.jpg	1	4	1	watermelon	1	K	7	0	279	0		0	0	141.241993899999	141.3419777
35593	0.0999775000000227	560	satiated	stimuli/non_foods\non-food_inanimate_pine_cone.jpg	1	5	1	non-food_inanimate_pine_cone	0	X	17	0	200	0		0	0	143.108676100001	143.208653600001
35630.5	0.0999607000012475	561	satiated	stimuli/foods\spring_onions.jpg	1	5	1	spring_onions	1	R	12	0	269	0		0	0	143.258675699999	143.3586364
35668	0.0999861999989662	562	satiated	stimuli/foods\red_cabbage.jpg	1	5	1	red_cabbage	1	P	11	0	256	0		0	0	143.4086501	143.508636299999
35705.5	0.099986600000193	563	satiated	stimuli/foods\steak.jpg	1	5	1	steak	1	N	10	0	270	0		0	0	143.5586484	143.658635
35743	0.0999890000002779	564	satiated	stimuli/non_foods\non-food_animate_deer.jpg	1	5	1	non-food_animate_deer	0	V	15	0	105	0		0	0	143.708642	143.808631
35780.5	0.0999852000004466	565	satiated	stimuli/foods\pineapple.jpg	1	5	1	pineapple	1	M	9	0	243	0		0	0	143.858644399999	143.9586296
35818	0.0999832000015886	566	satiated	stimuli/non_foods\non-food_animate_duck.jpg	1	5	1	non-food_animate_duck	0	W	16	0	109	0		0	0	144.008643699999	144.108626900001
35855.5	0.10000509999918	567	satiated	stimuli/foods\rice.jpg	1	5	1	rice	1	V	15	0	257	0		0	0	144.158643000001	144.2586481
35893	0.0999710000014602	568	satiated	stimuli/foods\ice_cream.jpg	1	5	1	ice_cream	1	N	10	0	68	0		0	0	144.308655999999	144.408627000001
35930.5	0.0999862999997276	569	satiated	stimuli/foods\pork_and_rice.jpg	1	5	1	pork_and_rice	1	G	4	0	245	0		0	0	144.4586401	144.558626399999
35968	0.0999862999997276	570	satiated	stimuli/non_foods\non-food_animate_ant.jpg	1	5	1	non-food_animate_ant	0	X	17	0	91	0		0	0	144.6086392	144.708625499999
36005.5	0.100030100000367	571	satiated	stimuli/foods\red_beans.jpg	1	5	1	red_beans	1	B	0	0	255	0		0	0	144.758641599999	144.8586717
36043	0.0999652999998943	572	satiated	stimuli/non_foods\non-food_inanimate_broom.jpg	1	5	1	non-food_inanimate_broom	0	M	9	0	164	0		0	0	144.9086439	145.0086092
36080.5	0.100001499999053	573	satiated	stimuli/foods\cupcake.jpg	1	5	1	cupcake	1	G	4	0	42	0		0	0	145.058617000001	145.1586185
36118	0.0999856999987969	574	satiated	stimuli/foods\asparagus.jpg	1	5	1	asparagus	1	M	9	0	4	0		0	0	145.2086316	145.308617299999
36155.5	0.0999895000004472	575	satiated	stimuli/foods\rockmelon.jpg	1	5	1	rockmelon	1	B	0	0	262	0		0	0	145.358630799999	145.4586203
36193	0.0999788999997691	576	satiated	stimuli/foods\lamb_chops.jpg	1	5	1	lamb_chops	1	F	3	0	70	0		0	0	145.5086321	145.608611
36230.5	0.0999979000007443	577	satiated	stimuli/non_foods\non-food_animate_mammoth.jpg	1	5	1	non-food_animate_mammoth	0	C	1	0	128	0		0	0	145.658616299999	145.7586142
36268	0.0999867999998969	578	satiated	stimuli/foods\coconut.jpg	1	5	1	coconut	1	Z	18	0	33	0		0	0	145.808626800001	145.908613600001
36305.5	0.0999842999990506	579	satiated	stimuli/non_foods\non-food_animate_seahorse.jpg	1	5	1	non-food_animate_seahorse	0	C	1	0	145	0		0	0	145.9586261	146.058610399999
36343	0.0999891999999818	580	satiated	stimuli/non_foods\non-food_animate_woman.jpg	1	5	1	non-food_animate_woman	0	S	13	0	154	0		0	0	146.1086232	146.2086124
36380.5	0.0999804999992193	581	satiated	stimuli/foods\hazelnuts.jpg	1	5	1	hazelnuts	1	V	15	0	65	0		0	0	146.258624800001	146.3586053
36418	0.0999867999998969	582	satiated	stimuli/foods\raisins.jpg	1	5	1	raisins	1	N	10	0	252	0		0	0	146.408622999999	146.508609799999
36455.5	0.099985499999093	583	satiated	stimuli/non_foods\non-food_inanimate_lighter.jpg	1	5	1	non-food_inanimate_lighter	0	L	8	0	193	0		0	0	146.558621	146.658606499999
36493	0.0999393999991298	584	satiated	stimuli/foods\watermelon.jpg	1	5	1	watermelon	1	H	5	0	279	0		0	0	146.7086655	146.808604899999
36530.5	0.099998499999856	585	satiated	stimuli/foods\strawberry.jpg	1	5	1	strawberry	1	P	11	0	272	0		0	0	146.858616699999	146.958615199999
36568	0.100004500000068	586	satiated	stimuli/non_foods\non-food_animate_bat.jpg	1	5	1	non-food_animate_bat	0	I	21	1	94	0		0	0	147.0085967	147.1086012
36605.5	0.0999950999994326	587	satiated	stimuli/foods\oyster.jpg	1	5	1	oyster	1	Z	18	0	233	0		0	0	147.1586155	147.2586106
36643	0.0999836000009964	588	satiated	stimuli/non_foods\non-food_inanimate_folding_chair.jpg	1	5	1	non-food_inanimate_folding_chair	0	S	13	0	182	0		0	0	147.308616799999	147.4086004
36680.5	0.0999825999988389	589	satiated	stimuli/foods\fried_zucchini.jpg	1	5	1	fried_zucchini	1	N	10	0	51	0		0	0	147.4586144	147.558596999999
36718	0.0999850999996852	590	satiated	stimuli/foods\cinnamon.jpg	1	5	1	cinnamon	1	X	17	0	30	0		0	0	147.6086142	147.7085993
36755.5	0.0999860000010813	591	satiated	stimuli/non_foods\non-food_inanimate_watering_can.jpg	1	5	1	non-food_inanimate_watering_can	0	L	8	0	225	0		0	0	147.758611199999	147.8585972
36793	0.0999829999982467	592	satiated	stimuli/foods\onion.jpg	1	5	1	onion	1	T	14	0	229	0		0	0	147.908611000001	148.008593999999
36830.5	0.0999879000009969	593	satiated	stimuli/non_foods\non-food_animate_killer_whale.jpg	1	5	1	non-food_animate_killer_whale	0	Z	18	0	123	0		0	0	148.0586066	148.158594500001
36868	0.0999805000010383	594	satiated	stimuli/non_foods\non-food_animate_frog.jpg	1	5	1	non-food_animate_frog	0	T	14	0	113	0		0	0	148.208609699999	148.3085902
36905.5	0.10001419999935	595	satiated	stimuli/foods\hotdog.jpg	1	5	1	hotdog	1	M	9	0	67	0		0	0	148.3586056	148.4586198
36943	0.0999365000006947	596	satiated	stimuli/non_foods\non-food_animate_bee.jpg	1	5	1	non-food_animate_bee	0	G	4	0	95	0		0	0	148.508654699999	148.6085912
36980.5	0.0999797000004037	597	satiated	stimuli/non_foods\non-food_inanimate_moss.jpg	1	5	1	non-food_inanimate_moss	0	H	5	0	194	0		0	0	148.6586064	148.758586100001
37018	0.0999893000007432	598	satiated	stimuli/non_foods\non-food_animate_butterfly.jpg	1	5	1	non-food_animate_butterfly	0	V	15	0	96	0		0	0	148.8085999	148.9085892
37055.5	0.0999859000003198	599	satiated	stimuli/non_foods\non-food_inanimate_desk.jpg	1	5	1	non-food_inanimate_desk	0	B	0	0	178	0		0	0	148.958599899999	149.058585799999
37093	0.0999826000006578	600	satiated	stimuli/non_foods\non-food_inanimate_tulip.jpg	1	5	1	non-food_inanimate_tulip	0	H	5	0	224	0		0	0	149.108598499999	149.2085811
37130.5	0.0999859000003198	601	satiated	stimuli/foods\brussel_sprouts.jpg	1	5	1	brussel_sprouts	1	M	9	0	15	0		0	0	149.258597399999	149.3585833
37168	0.0999799999990501	602	satiated	stimuli/foods\clams.jpg	1	5	1	clams	1	F	3	0	32	0		0	0	149.408600700001	149.5085807
37205.5	0.0999701999990066	603	satiated	stimuli/non_foods\non-food_inanimate_construction_helment.jpg	1	5	1	non-food_inanimate_construction_helment	0	S	13	0	175	0		0	0	149.558617000001	149.6585872
37243	0.0999843000008696	604	satiated	stimuli/non_foods\non-food_animate_gorilla.jpg	1	5	1	non-food_animate_gorilla	0	G	4	0	116	0		0	0	149.708594199999	149.8085785
37280.5	0.0999852999993891	605	satiated	stimuli/non_foods\non-food_animate_rhino.jpg	1	5	1	non-food_animate_rhino	0	C	1	0	141	0		0	0	149.8585917	149.958576999999
37318	0.0999867999998969	606	satiated	stimuli/non_foods\non-food_inanimate_fern.jpg	1	5	1	non-food_inanimate_fern	0	M	9	0	180	0		0	0	150.0085913	150.1085781
37355.5	0.100024000001213	607	satiated	stimuli/foods\grapes.jpg	1	5	1	grapes	1	F	3	0	60	0		0	0	150.158595999999	150.258620000001
37393	0.100010800000746	608	satiated	stimuli/foods\pickles.jpg	1	5	1	pickles	1	X	17	0	242	0		0	0	150.308613499999	150.4086243
37430.5	0.0999830999990081	609	satiated	stimuli/non_foods\non-food_animate_chicken.jpg	1	5	1	non-food_animate_chicken	0	P	11	0	101	0		0	0	150.4585893	150.558572399999
37468	0.0999864000004891	610	satiated	stimuli/foods\fries.jpg	1	5	1	fries	1	C	1	0	52	0		0	0	150.608583499999	150.7085699
37505.5	0.0999852000004466	611	satiated	stimuli/non_foods\non-food_inanimate_suitcase.jpg	1	5	1	non-food_inanimate_suitcase	0	B	0	0	215	0		0	0	150.7585841	150.8585693
37543	0.099983300000531	612	satiated	stimuli/non_foods\non-food_animate_elephant.jpg	1	5	1	non-food_animate_elephant	0	C	1	0	111	0		0	0	150.908586699999	151.00857
37580.5	0.0999824000009539	613	satiated	stimuli/non_foods\non-food_animate_young_girl.jpg	1	5	1	non-food_animate_young_girl	0	B	0	0	157	0		0	0	151.0585827	151.1585651
37618	0.0999826000006578	614	satiated	stimuli/foods\brownie.jpg	1	5	1	brownie	1	P	11	0	14	0		0	0	151.2085859	151.308568500001
37655.5	0.0999555999987933	615	satiated	stimuli/foods\cauliflower.jpg	1	5	1	cauliflower	1	H	5	0	20	0		0	0	151.358609700001	151.458565299999
37693	0.0999849999989237	616	satiated	stimuli/non_foods\non-food_inanimate_padlock.jpg	1	5	1	non-food_inanimate_padlock	0	X	17	0	199	0		0	0	151.508580600001	151.6085656
37730.5	0.0999839999985852	617	satiated	stimuli/non_foods\non-food_inanimate_skateboard.jpg	1	5	1	non-food_inanimate_skateboard	0	H	5	0	208	0		0	0	151.6585799	151.758563899999
37768	0.0999936999996862	618	satiated	stimuli/non_foods\non-food_animate_donkey.jpg	1	5	1	non-food_animate_donkey	0	X	17	0	107	0		0	0	151.808558799999	151.908552499999
37805.5	0.0999967000007018	619	satiated	stimuli/foods\wafer.jpg	1	5	1	wafer	1	V	15	0	277	0		0	0	151.9585665	152.0585632
37843	0.0999706000002334	620	satiated	stimuli/non_foods\non-food_animate_lion.jpg	1	5	1	non-food_animate_lion	0	W	16	0	125	0		0	0	152.108587799999	152.2085584
37880.5	0.0999762999999803	621	satiated	stimuli/non_foods\non-food_inanimate_cap.jpg	1	5	1	non-food_inanimate_cap	0	N	10	0	171	0		0	0	152.258575399999	152.358551699999
37918	0.100007900000492	622	satiated	stimuli/foods\minestrone_soup.jpg	1	5	1	minestrone_soup	1	P	11	0	82	0		0	0	152.408550099999	152.508558
37955.5	0.0999838000007003	623	satiated	stimuli/non_foods\non-food_animate_giraffe.jpg	1	5	1	non-food_animate_giraffe	0	H	5	0	115	0		0	0	152.5585696	152.658553400001
37993	0.0999888999995164	624	satiated	stimuli/non_foods\non-food_inanimate_bicycle.jpg	1	5	1	non-food_inanimate_bicycle	0	O	22	1	161	0		0	0	152.708564500001	152.8085534
38030.5	0.0999854000001505	625	satiated	stimuli/foods\raw_ham.jpg	1	5	1	raw_ham	1	M	9	0	253	0		0	0	152.8585692	152.9585546
38068	0.0999895999993896	626	satiated	stimuli/non_foods\non-food_inanimate_rope.jpg	1	5	1	non-food_inanimate_rope	0	P	11	0	204	0		0	0	153.0085626	153.108552199999
38105.5	0.0999515999992582	627	satiated	stimuli/non_foods\non-food_animate_skunk.jpg	1	5	1	non-food_animate_skunk	0	W	16	0	147	1	a	0.541887699999279	1	153.1586021	153.2585537
38143	0.0999857999995584	628	satiated	stimuli/foods\raw_sausage.jpg	1	5	1	raw_sausage	1	T	14	0	254	0		0	0	153.3085617	153.408547499999
38180.5	0.0999842000001081	629	satiated	stimuli/non_foods\non-food_animate_dachshund.jpg	1	5	1	non-food_animate_dachshund	0	M	9	0	104	0		0	0	153.458563	153.5585472
38218	0.0999886999998125	630	satiated	stimuli/non_foods\non-food_inanimate_chandelier.jpg	1	5	1	non-food_inanimate_chandelier	0	B	0	0	173	0		0	0	153.6085628	153.7085515
38255.5	0.0999924000007013	631	satiated	stimuli/non_foods\non-food_inanimate_hammer.jpg	1	5	1	non-food_inanimate_hammer	0	J	6	0	186	0		0	0	153.758565399999	153.8585578
38293	0.0999694000001909	632	satiated	stimuli/non_foods\non-food_animate_young_boy.jpg	1	5	1	non-food_animate_young_boy	0	G	4	0	156	0		0	0	153.9085737	154.008543100001
38330.5	0.0999886999998125	633	satiated	stimuli/non_foods\non-food_animate_sea_turtle.jpg	1	5	1	non-food_animate_sea_turtle	0	M	9	0	144	0		0	0	154.058554400001	154.1585431
38368	0.0999900999995589	634	satiated	stimuli/non_foods\non-food_inanimate_button.jpg	1	5	1	non-food_inanimate_button	0	D	2	0	168	0		0	0	154.2085549	154.308545
38405.5	0.0999850999996852	635	satiated	stimuli/non_foods\non-food_animate_cat.jpg	1	5	1	non-food_animate_cat	0	V	15	0	98	0		0	0	154.358556900001	154.458542
38443	0.0999874999997701	636	satiated	stimuli/non_foods\non-food_inanimate_rack.jpg	1	5	1	non-food_inanimate_rack	0	B	0	0	202	0		0	0	154.508551299999	154.608538799999
38480.5	0.0999847000002774	637	satiated	stimuli/foods\artichoke.jpg	1	5	1	artichoke	1	K	7	0	3	0		0	0	154.658556799999	154.758541499999
38518	0.099983299998712	638	satiated	stimuli/non_foods\non-food_inanimate_bamboo.jpg	1	5	1	non-food_inanimate_bamboo	0	G	4	0	159	0		0	0	154.8085515	154.908534799999
38555.5	0.099978000000192	639	satiated	stimuli/non_foods\non-food_animate_monkey.jpg	1	5	1	non-food_animate_monkey	0	C	1	0	130	0		0	0	154.9585661	155.0585441
38593	0.0999873000000662	640	satiated	stimuli/foods\rice_cake.jpg	1	5	1	rice_cake	1	B	0	0	258	0		0	0	155.108537599999	155.208524899999
38630.5	0.0999807999996847	641	satiated	stimuli/foods\papaya.jpg	1	5	1	papaya	1	M	9	0	235	0		0	0	155.2585394	155.358520199999
38668	0.0999900999995589	642	satiated	stimuli/foods\lasagna.jpg	1	5	1	lasagna	1	W	16	0	71	0		0	0	155.4085325	155.508522599999
38705.5	0.0999997999988409	643	satiated	stimuli/foods\cabbage.jpg	1	5	1	cabbage	1	G	4	0	16	0		0	0	155.558523600001	155.658523399999
38743	0.0999855999998545	644	satiated	stimuli/non_foods\non-food_inanimate_clover.jpg	1	5	1	non-food_inanimate_clover	0	D	2	0	174	0		0	0	155.7085307	155.8085163
38780.5	0.0999904000000242	645	satiated	stimuli/foods\lettuce.jpg	1	5	1	lettuce	1	W	16	0	75	0		0	0	155.858535400001	155.958525800001
38818	0.099984399999812	646	satiated	stimuli/non_foods\non-food_inanimate_leaf.jpg	1	5	1	non-food_inanimate_leaf	0	F	3	0	192	0		0	0	156.008538599999	156.108522999999
38855.5	0.099989899999855	647	satiated	stimuli/non_foods\non-food_animate_penguin.jpg	1	5	1	non-food_animate_penguin	0	R	12	0	135	0		0	0	156.158535500001	156.258525400001
38893	0.0999909000001935	648	satiated	stimuli/non_foods\non-food_inanimate_nest.jpg	1	5	1	non-food_inanimate_nest	0	C	1	0	196	0		0	0	156.3085395	156.4085304
38930.5	0.0999836999999388	649	satiated	stimuli/non_foods\non-food_inanimate_bed.jpg	1	5	1	non-food_inanimate_bed	0	X	17	0	160	0		0	0	156.458539699999	156.558523399999
38968	0.0999749999991764	650	satiated	stimuli/foods\kiwi.jpg	1	5	1	kiwi	1	C	1	0	69	0		0	0	156.608537	156.708511999999
39005.5	0.0999776999997266	651	satiated	stimuli/non_foods\non-food_animate_camel.jpg	1	5	1	non-food_animate_camel	0	R	12	0	97	0		0	0	156.758541900001	156.8585196
39043	0.0999850000007427	652	satiated	stimuli/foods\capsicum.jpg	1	5	1	capsicum	1	L	8	0	18	0		0	0	156.9085325	157.0085175
39080.5	0.100000100001125	653	satiated	stimuli/non_foods\non-food_inanimate_tree.jpg	1	5	1	non-food_inanimate_tree	0	D	2	0	223	0		0	0	157.058518399999	157.1585185
