onset	duration	eventnumber	hunger_condition	stimfilename	blockno	trialno	is_faststream	stim	food_idx	letter	letter_idx	istarget	image_number	response	keypressed	rt	correct	time_stimon	time_stimoff
5295.75	0.0999699999811128	0	hunger	stimuli/foods\cabbage.jpg	1	1	1	cabbage	1	B	0	0	16	0		0	0	41.7636454000021	41.8636153999832
5333.25	0.100043900019955	1	hunger	stimuli/foods\lollies.jpg	1	1	1	lollies	1	W	16	0	78	0		0	0	41.9136307999725	42.0136746999924
5370.75	0.099979099992197	2	hunger	stimuli/non_foods\non-food_inanimate_towel.jpg	1	1	1	non-food_inanimate_towel	0	J	6	0	221	0		0	0	42.0636303999927	42.1636094999849
5408.25	0.100007999979425	3	hunger	stimuli/non_foods\non-food_inanimate_stoplight.jpg	1	1	1	non-food_inanimate_stoplight	0	M	9	0	214	0		0	0	42.2136204999988	42.3136284999782
5445.75	0.0999855000409298	4	hunger	stimuli/non_foods\non-food_animate_hummingbird.jpg	1	1	1	non-food_animate_hummingbird	0	H	5	0	120	0		0	0	42.3636208999669	42.4636064000078
5483.25	0.0999793999944814	5	hunger	stimuli/foods\cinnamon.jpg	1	1	1	cinnamon	1	W	16	0	30	0		0	0	42.5136206999887	42.6136000999832
5520.75	0.0999882000032812	6	hunger	stimuli/foods\lasagna.jpg	1	1	1	lasagna	1	T	14	0	71	0		0	0	42.6636159999762	42.7636041999795
5558.25	0.0999805000028573	7	hunger	stimuli/foods\cherry.jpg	1	1	1	cherry	1	H	5	0	23	0		0	0	42.8136200999725	42.9136005999753
5595.75	0.099977099976968	8	hunger	stimuli/non_foods\non-food_inanimate_bicycle.jpg	1	1	1	non-food_inanimate_bicycle	0	R	12	0	161	0		0	0	42.9636114999885	43.0635885999654
5633.25	0.100006800028495	9	hunger	stimuli/non_foods\non-food_animate_dragonfly.jpg	1	1	1	non-food_animate_dragonfly	0	B	0	0	108	0		0	0	43.1136040999554	43.2136108999839
5670.75	0.0999839000287466	10	hunger	stimuli/non_foods\non-food_animate_horse.jpg	1	1	1	non-food_animate_horse	0	L	8	0	119	0		0	0	43.2636169999605	43.3636008999893
5708.25	0.100001999991946	11	hunger	stimuli/foods\red_cabbage.jpg	1	1	1	red_cabbage	1	B	0	0	256	0		0	0	43.4135941999848	43.5135961999767
5745.75	0.100018199998885	12	hunger	stimuli/foods\hamburger.jpg	1	1	1	hamburger	1	X	17	0	64	0		0	0	43.5635803999612	43.6635985999601
5783.25	0.0997276999987662	13	hunger	stimuli/foods\cinnamon_sroll.jpg	1	1	1	cinnamon_sroll	1	B	0	0	31	0		0	0	43.713857900002	43.8135856000008
5820.75	0.0999424000037834	14	hunger	stimuli/non_foods\non-food_animate_pigeon.jpg	1	1	1	non-food_animate_pigeon	0	M	9	0	136	0		0	0	43.8636489000055	43.9635913000093
5858.25	0.0999859999865294	15	hunger	stimuli/non_foods\non-food_inanimate_watering_can.jpg	1	1	1	non-food_inanimate_watering_can	0	C	1	0	225	0		0	0	44.0136029999703	44.1135889999568
5895.75	0.0999828000203706	16	hunger	stimuli/non_foods\non-food_inanimate_orchid.jpg	1	1	1	non-food_inanimate_orchid	0	L	8	0	198	0		0	0	44.1636022999883	44.2635851000086
5933.25	0.0999717999948189	17	hunger	stimuli/non_foods\non-food_inanimate_skateboard.jpg	1	1	1	non-food_inanimate_skateboard	0	B	0	0	208	0		0	0	44.313603299961	44.4135750999558
5970.75	0.0999825999606401	18	hunger	stimuli/non_foods\non-food_animate_giraffe.jpg	1	1	1	non-food_animate_giraffe	0	M	9	0	115	0		0	0	44.4635902000009	44.5635727999615
6008.25	0.0999810000066645	19	hunger	stimuli/foods\salmon.jpg	1	1	1	salmon	1	C	1	0	264	0		0	0	44.6135873000021	44.7135683000088
6045.75	0.100006899971049	20	hunger	stimuli/non_foods\non-food_inanimate_ring.jpg	1	1	1	non-food_inanimate_ring	0	N	10	0	203	0		0	0	44.7635752999922	44.8635821999633
6083.25	0.100021599966567	21	hunger	stimuli/non_foods\non-food_animate_mammoth.jpg	1	1	1	non-food_animate_mammoth	0	F	3	0	128	0		0	0	44.9135876999935	45.0136092999601
6120.75	0.0999841000302695	22	hunger	stimuli/non_foods\non-food_animate_millipede.jpg	1	1	1	non-food_animate_millipede	0	H	5	0	129	0		0	0	45.063595399959	45.1635794999893
6158.25	0.0999833999667317	23	hunger	stimuli/foods\pea_pod.jpg	1	1	1	pea_pod	1	D	2	0	237	0		0	0	45.2135916000116	45.3135749999783
6195.75	0.0999857000424527	24	hunger	stimuli/foods\baked_lamb_with_potatoes.jpg	1	1	1	baked_lamb_with_potatoes	1	H	5	0	8	0		0	0	45.3635907999706	45.463576500013
6233.25	0.100007999979425	25	hunger	stimuli/foods\fried_zucchini.jpg	1	1	1	fried_zucchini	1	W	16	0	51	0		0	0	45.5135918000014	45.6135997999809
6270.75	0.0999406999908388	26	hunger	stimuli/foods\almonds.jpg	1	1	1	almonds	1	X	17	0	0	0		0	0	45.6636304999702	45.763571199961
6308.25	0.0999731000047177	27	hunger	stimuli/foods\pomegranate.jpg	1	1	1	pomegranate	1	K	7	0	244	0		0	0	45.8135980999796	45.9135711999843
6345.75	0.0999841000302695	28	hunger	stimuli/non_foods\non-food_animate_cow.jpg	1	1	1	non-food_animate_cow	0	E	20	1	103	0		0	0	45.9635843999567	46.063568499987
6383.25	0.0999804000020958	29	hunger	stimuli/non_foods\non-food_animate_runner.jpg	1	1	1	non-food_animate_runner	0	S	13	0	142	0		0	0	46.1135888999561	46.2135692999582
6420.75	0.0999809999484569	30	hunger	stimuli/foods\fruit_flan.jpg	1	1	1	fruit_flan	1	W	16	0	53	1	a	0.39181830000598	1	46.263577900012	46.3635588999605
6458.25	0.0999896000139415	31	hunger	stimuli/non_foods\non-food_animate_polar_bear.jpg	1	1	1	non-food_animate_polar_bear	0	F	3	0	137	0		0	0	46.4135681999614	46.5135577999754
6495.75	0.0999782999861054	32	hunger	stimuli/non_foods\non-food_inanimate_bamboo.jpg	1	1	1	non-food_inanimate_bamboo	0	W	16	0	159	0		0	0	46.5635757999844	46.6635540999705
6533.25	0.0999827000196092	33	hunger	stimuli/non_foods\non-food_animate_camel.jpg	1	1	1	non-food_animate_camel	0	Z	18	0	97	0		0	0	46.7135698999627	46.8135525999824
6570.75	0.0999956000014208	34	hunger	stimuli/non_foods\non-food_animate_caterpillar.jpg	1	1	1	non-food_animate_caterpillar	0	D	2	0	99	0		0	0	46.8635648000054	46.9635604000068
6608.25	0.099984799977392	35	hunger	stimuli/non_foods\non-food_inanimate_wrench.jpg	1	1	1	non-food_inanimate_wrench	0	C	1	0	227	0		0	0	47.0135765000014	47.1135612999788
6645.75	0.0999836000264622	36	hunger	stimuli/non_foods\non-food_animate_dolphin.jpg	1	1	1	non-food_animate_dolphin	0	L	8	0	106	0		0	0	47.1635695999721	47.2635531999986
6683.25	0.0999979000189342	37	hunger	stimuli/foods\chestnut.jpg	1	1	1	chestnut	1	J	6	0	24	0		0	0	47.3135765999905	47.4135745000094
6720.75	0.0999611999723129	38	hunger	stimuli/foods\wafer.jpg	1	1	1	wafer	1	K	7	0	277	0		0	0	47.4635973999975	47.5635585999698
6758.25	0.0999873000546359	39	hunger	stimuli/non_foods\non-food_inanimate_moss.jpg	1	1	1	non-food_inanimate_moss	0	J	6	0	194	0		0	0	47.6135659999563	47.713553300011
6795.75	0.0999830999644473	40	hunger	stimuli/foods\ginger_root.jpg	1	1	1	ginger_root	1	C	1	0	57	0		0	0	47.7635693000047	47.8635523999692
6833.25	0.0999824999598786	41	hunger	stimuli/foods\ice_cream.jpg	1	1	1	ice_cream	1	Z	18	0	68	0		0	0	47.9135662000044	48.0135486999643
6870.75	0.099973600008525	42	hunger	stimuli/foods\fruit_salad.jpg	1	1	1	fruit_salad	1	R	12	0	55	0		0	0	48.0635743999737	48.1635479999823
6908.25	0.0999812000081874	43	hunger	stimuli/foods\salami.jpg	1	1	1	salami	1	F	3	0	263	0		0	0	48.2135652999859	48.3135464999941
6945.75	0.0999904999625869	44	hunger	stimuli/non_foods\non-food_animate_student_female.jpg	1	1	1	non-food_animate_student_female	0	W	16	0	151	0		0	0	48.3635555999936	48.4635460999561
6983.25	0.0999655000050552	45	hunger	stimuli/non_foods\non-food_inanimate_buds.jpg	1	1	1	non-food_inanimate_buds	0	L	8	0	166	0		0	0	48.5135884999763	48.6135539999814
7020.75	0.0999829999636859	46	hunger	stimuli/foods\coffee_beans.jpg	1	1	1	coffee_beans	1	Z	18	0	34	0		0	0	48.6635593000101	48.7635422999738
7058.25	0.0999990999698639	47	hunger	stimuli/foods\cream_donuts.jpg	1	1	1	cream_donuts	1	J	6	0	39	0		0	0	48.8135562000098	48.9135552999796
7095.75	0.0999709999887273	48	hunger	stimuli/non_foods\non-food_inanimate_cactus_pot_plant.jpg	1	1	1	non-food_inanimate_cactus_pot_plant	0	S	13	0	169	0		0	0	48.9635630999692	49.0635340999579
7133.25	0.0999776999815367	49	hunger	stimuli/non_foods\non-food_inanimate_cupboard.jpg	1	1	1	non-food_inanimate_cupboard	0	W	16	0	177	0		0	0	49.113546299981	49.2135239999625
7170.75	0.0999810000066645	50	hunger	stimuli/foods\oregano.jpg	1	1	1	oregano	1	S	13	0	231	0		0	0	49.2635581999784	49.3635391999851
7208.25	0.0999793000519276	51	hunger	stimuli/foods\watermelon.jpg	1	1	1	watermelon	1	F	3	0	279	0		0	0	49.4135524999583	49.5135318000102
7245.75	0.0999874999979511	52	hunger	stimuli/foods\banana.jpg	1	1	1	banana	1	R	12	0	9	0		0	0	49.5635487000109	49.6635362000088
7283.25	0.0999883000040427	53	hunger	stimuli/foods\capsicum.jpg	1	1	1	capsicum	1	S	13	0	18	0		0	0	49.7135477999691	49.8135360999731
7320.75	0.0999862999888137	54	hunger	stimuli/non_foods\non-food_animate_llama.jpg	1	1	1	non-food_animate_llama	0	H	5	0	127	0		0	0	49.863542600011	49.9635288999998
7358.25	0.0999868999933824	55	hunger	stimuli/foods\bagel.jpg	1	1	1	bagel	1	B	0	0	6	0		0	0	50.0135420999723	50.1135289999656
7395.75	0.0999741000123322	56	hunger	stimuli/non_foods\non-food_animate_duck.jpg	1	1	1	non-food_animate_duck	0	X	17	0	109	0		0	0	50.1635453999625	50.2635194999748
7433.25	0.0999699999811128	57	hunger	stimuli/foods\red_beans.jpg	1	1	1	red_beans	1	S	13	0	255	0		0	0	50.3135553000029	50.413525299984
7470.75	0.0999809000059031	58	hunger	stimuli/foods\gnocchi.jpg	1	1	1	gnocchi	1	N	10	0	58	0		0	0	50.463543299993	50.5635241999989
7508.25	0.0999850999796763	59	hunger	stimuli/foods\pork_and_rice.jpg	1	1	1	pork_and_rice	1	R	12	0	245	0		0	0	50.6135388999828	50.7135239999625
7545.75	0.0999776999815367	60	hunger	stimuli/foods\brownie.jpg	1	1	1	brownie	1	L	8	0	14	0		0	0	50.7635372999939	50.8635149999755
7583.25	0.0999948999960907	61	hunger	stimuli/non_foods\non-food_animate_yellow_bug.jpg	1	1	1	non-food_animate_yellow_bug	0	K	7	0	155	0		0	0	50.9135473999777	51.0135422999738
7620.75	0.0999532999703661	62	hunger	stimuli/foods\croissant.jpg	1	1	1	croissant	1	S	13	0	40	0		0	0	51.0635628000018	51.1635160999722
7658.25	0.0999872999964282	63	hunger	stimuli/non_foods\non-food_inanimate_construction_helment.jpg	1	1	1	non-food_inanimate_construction_helment	0	N	10	0	175	0		0	0	51.2135312999599	51.3135185999563
7695.75	0.0999806000036187	64	hunger	stimuli/non_foods\non-food_inanimate_table.jpg	1	1	1	non-food_inanimate_table	0	T	14	0	217	0		0	0	51.3635333999991	51.4635140000028
7733.25	0.0999845999758691	65	hunger	stimuli/non_foods\non-food_animate_green_bug.jpg	1	1	1	non-food_animate_green_bug	0	K	7	0	118	0		0	0	51.5135282999836	51.6135128999595
7770.75	0.0999829999636859	66	hunger	stimuli/foods\steak.jpg	1	1	1	steak	1	C	1	0	270	0		0	0	51.6635286000092	51.7635115999728
7808.25	0.0999819000135176	67	hunger	stimuli/non_foods\non-food_inanimate_tree.jpg	1	1	1	non-food_inanimate_tree	0	Z	18	0	223	0		0	0	51.8135282999719	51.9135101999855
7845.75	0.100006599968765	68	hunger	stimuli/non_foods\non-food_animate_mouse.jpg	1	1	1	non-food_animate_mouse	0	P	11	0	131	0		0	0	51.9635276999907	52.0635342999594
7883.25	0.0999676999635994	69	hunger	stimuli/non_foods\non-food_inanimate_grass.jpg	1	1	1	non-food_inanimate_grass	0	H	5	0	184	0		0	0	52.1135427000117	52.2135103999753
7920.75	0.0999815000104718	70	hunger	stimuli/foods\baked_cod_with_carrots_and_green_beans.jpg	1	1	1	baked_cod_with_carrots_and_green_beans	1	C	1	0	7	0		0	0	52.2635226999992	52.3635042000096
7958.25	0.0999850000371225	71	hunger	stimuli/non_foods\non-food_animate_young_boy.jpg	1	1	1	non-food_animate_young_boy	0	P	11	0	156	0		0	0	52.4135221999604	52.5135071999975
7995.75	0.0999892000108957	72	hunger	stimuli/foods\grilled_chicken_breast.jpg	1	1	1	grilled_chicken_breast	1	F	3	0	63	0		0	0	52.5635158999939	52.6635051000048
8033.25	0.100025899999309	73	hunger	stimuli/non_foods\non-food_inanimate_drum_set.jpg	1	1	1	non-food_inanimate_drum_set	0	X	17	0	179	0		0	0	52.7135133999982	52.8135392999975
8070.75	0.0999623000388965	74	hunger	stimuli/non_foods\non-food_inanimate_bowling_ball.jpg	1	1	1	non-food_inanimate_bowling_ball	0	B	0	0	162	0		0	0	52.8635376999737	52.9635000000126
8108.25	0.0999873999971896	75	hunger	stimuli/foods\artichoke.jpg	1	1	1	artichoke	1	P	11	0	3	0		0	0	53.0135117999744	53.1134991999716
8145.75	0.0999858000432141	76	hunger	stimuli/non_foods\non-food_animate_swan.jpg	1	1	1	non-food_animate_swan	0	F	3	0	152	0		0	0	53.1635149999638	53.263500800007
8183.25	0.0999853000394069	77	hunger	stimuli/non_foods\non-food_animate_squirrel.jpg	1	1	1	non-food_animate_squirrel	0	V	15	0	150	0		0	0	53.3135112999589	53.4134965999983
8220.75	0.0999919999740086	78	hunger	stimuli/foods\tomato.jpg	1	1	1	tomato	1	B	0	0	276	0		0	0	53.4635045999894	53.5634965999634
8258.25	0.0999837000272237	79	hunger	stimuli/foods\celery.jpg	1	1	1	celery	1	P	11	0	21	0		0	0	53.6135129999602	53.7134966999874
8295.75	0.0999971000128426	80	hunger	stimuli/non_foods\non-food_inanimate_padlock.jpg	1	1	1	non-food_inanimate_padlock	0	W	16	0	199	0		0	0	53.7635074999998	53.8635046000127
8333.25	0.0999758000252768	81	hunger	stimuli/non_foods\non-food_inanimate_leaf.jpg	1	1	1	non-food_inanimate_leaf	0	L	8	0	192	0		0	0	53.9135151999653	54.0134909999906
8370.75	0.0999848000355996	82	hunger	stimuli/foods\potatoes.jpg	1	1	1	potatoes	1	V	15	0	248	0		0	0	54.0635051999707	54.1634900000063
8408.25	0.0999858000432141	83	hunger	stimuli/foods\toasted_bread_with_tomatoes.jpg	1	1	1	toasted_bread_with_tomatoes	1	P	11	0	275	0		0	0	54.2135016999673	54.3134875000105
8445.75	0.099984799977392	84	hunger	stimuli/non_foods\non-food_inanimate_broom.jpg	1	1	1	non-food_inanimate_broom	0	Z	18	0	164	0		0	0	54.3635045000119	54.4634892999893
8483.25	0.0999809000059031	85	hunger	stimuli/foods\mandarin.jpg	1	1	1	mandarin	1	N	10	0	79	0		0	0	54.513501999958	54.6134828999639
8520.75	0.0999842000310309	86	hunger	stimuli/non_foods\non-food_inanimate_briefcase.jpg	1	1	1	non-food_inanimate_briefcase	0	U	23	1	163	0		0	0	54.6635014999774	54.7634857000085
8558.25	0.0999821000150405	87	hunger	stimuli/non_foods\non-food_animate_grasshopper.jpg	1	1	1	non-food_animate_grasshopper	0	M	9	0	117	0		0	0	54.8135006999946	54.9134828000097
8595.75	0.099983100022655	88	hunger	stimuli/foods\pasta_carbonara.jpg	1	1	1	pasta_carbonara	1	X	17	0	236	0		0	0	54.9634945999715	55.0634776999941
8633.25	0.0999851999804378	89	hunger	stimuli/non_foods\non-food_animate_sea_lion.jpg	1	1	1	non-food_animate_sea_lion	0	L	8	0	143	0		0	0	55.1134950999985	55.213480299979
8670.75	0.0999842999735847	90	hunger	stimuli/foods\savory_pie.jpg	1	1	1	savory_pie	1	V	15	0	265	0		0	0	55.2634930000058	55.3634772999794
8708.25	0.0999731000047177	91	hunger	stimuli/foods\stew_with_potatoes_and_carrots.jpg	1	1	1	stew_with_potatoes_and_carrots	1	J	6	0	271	0		0	0	55.413491699961	55.5134647999657
8745.75	0.0999824000173248	92	hunger	stimuli/non_foods\non-food_animate_peacock.jpg	1	1	1	non-food_animate_peacock	0	N	10	0	134	0		0	0	55.5634921999881	55.6634746000054
8783.25	0.099981100007426	93	hunger	stimuli/foods\mussels.jpg	1	1	1	mussels	1	F	3	0	86	1	a	1.04343700001482	1	55.7134901999962	55.8134713000036
8820.75	0.0999901000177488	94	hunger	stimuli/foods\rice_cake.jpg	1	1	1	rice_cake	1	G	4	0	258	0		0	0	55.8634860999882	55.963476200006
8858.25	0.099989399954211	95	hunger	stimuli/foods\omelette.jpg	1	1	1	omelette	1	J	6	0	228	0		0	0	56.0134856000077	56.1134749999619
8895.75	0.0999824999598786	96	hunger	stimuli/foods\pineapple.jpg	1	1	1	pineapple	1	W	16	0	243	0		0	0	56.163475600013	56.2634580999729
8933.25	0.0999726000009105	97	hunger	stimuli/non_foods\non-food_inanimate_scissors.jpg	1	1	1	non-food_inanimate_scissors	0	T	14	0	205	0		0	0	56.3134944000049	56.4134670000058
8970.75	0.0999846999766305	98	hunger	stimuli/non_foods\non-food_inanimate_bucket.jpg	1	1	1	non-food_inanimate_bucket	0	X	17	0	165	0		0	0	56.4634805999813	56.5634652999579
9008.25	0.099989700014703	99	hunger	stimuli/foods\cooked_prawn.jpg	1	1	1	cooked_prawn	1	T	14	0	36	0		0	0	56.6134787999908	56.7134685000055
9045.75	0.0999778999830596	100	hunger	stimuli/non_foods\non-food_inanimate_jeans.jpg	1	1	1	non-food_inanimate_jeans	0	L	8	0	191	0		0	0	56.7634821999818	56.8634600999649
9083.25	0.0999842999735847	101	hunger	stimuli/foods\coconut.jpg	1	1	1	coconut	1	G	4	0	33	0		0	0	56.9134746000054	57.013458899979
9120.75	0.0999869999941438	102	hunger	stimuli/foods\carrot.jpg	1	1	1	carrot	1	B	0	0	19	0		0	0	57.0634750999743	57.1634620999685
9158.25	0.0999852999811992	103	hunger	stimuli/foods\beetroots.jpg	1	1	1	beetroots	1	X	17	0	10	0		0	0	57.2134724999778	57.313457799959
9195.75	0.0999824000173248	104	hunger	stimuli/non_foods\non-food_animate_dachshund.jpg	1	1	1	non-food_animate_dachshund	0	N	10	0	104	0		0	0	57.363476199971	57.4634585999884
9233.25	0.0999859999865294	105	hunger	stimuli/foods\lettuce.jpg	1	1	1	lettuce	1	B	0	0	75	0		0	0	57.5134693	57.6134552999865
9270.75	0.0999861000454985	106	hunger	stimuli/foods\minestrone_soup.jpg	1	1	1	minestrone_soup	1	G	4	0	82	0		0	0	57.6634682999575	57.763454400003
9308.25	0.0999862999888137	107	hunger	stimuli/foods\garlic.jpg	1	1	1	garlic	1	D	2	0	56	0		0	0	57.8134667999693	57.9134530999581
9345.75	0.100012800015975	108	hunger	stimuli/non_foods\non-food_animate_cat.jpg	1	1	1	non-food_animate_cat	0	N	10	0	98	0		0	0	57.9634641999728	58.0634769999888
9383.25	0.0999337000539526	109	hunger	stimuli/non_foods\non-food_animate_penguin.jpg	1	1	1	non-food_animate_penguin	0	R	12	0	135	0		0	0	58.1135123999557	58.2134461000096
9420.75	0.0999624999822117	110	hunger	stimuli/non_foods\non-food_inanimate_socks.jpg	1	1	1	non-food_inanimate_socks	0	T	14	0	211	0		0	0	58.263466799981	58.3634292999632
9458.25	0.100007799977902	111	hunger	stimuli/foods\raw_sausage.jpg	1	1	1	raw_sausage	1	N	10	0	254	0		0	0	58.4134372000117	58.5134449999896
9495.75	0.0999875999987125	112	hunger	stimuli/non_foods\non-food_inanimate_hammer.jpg	1	1	1	non-food_inanimate_hammer	0	M	9	0	186	0		0	0	58.5634600999765	58.6634476999752
9533.25	0.0999796999967657	113	hunger	stimuli/foods\cracker.jpg	1	1	1	cracker	1	J	6	0	38	0		0	0	58.7134623999591	58.8134420999559
9570.75	0.099981699953787	114	hunger	stimuli/non_foods\non-food_inanimate_toy_airplane.jpg	1	1	1	non-food_inanimate_toy_airplane	0	F	3	0	222	0		0	0	58.8634579000063	58.9634395999601
9608.25	0.0999872999964282	115	hunger	stimuli/foods\papaya.jpg	1	1	1	papaya	1	W	16	0	235	0		0	0	59.0134527999908	59.1134400999872
9645.75	0.0999658000073396	116	hunger	stimuli/non_foods\non-food_animate_bat.jpg	1	1	1	non-food_animate_bat	0	G	4	0	94	0		0	0	59.1634703999734	59.2634361999808
9683.25	0.0999864999903366	117	hunger	stimuli/foods\swordfish.jpg	1	1	1	swordfish	1	L	8	0	273	0		0	0	59.3134510999662	59.4134375999565
9720.75	0.0999976999592036	118	hunger	stimuli/non_foods\non-food_animate_owl.jpg	1	1	1	non-food_animate_owl	0	H	5	0	132	0		0	0	59.4634384000092	59.5634360999684
9758.25	0.0999825000180863	119	hunger	stimuli/foods\potato_and_green_bean_salad.jpg	1	1	1	potato_and_green_bean_salad	1	T	14	0	246	0		0	0	59.6134517999599	59.713434299978
9795.75	0.100024499988649	120	hunger	stimuli/non_foods\non-food_animate_Asian_man.jpg	1	1	1	non-food_animate_Asian_man	0	V	15	0	88	0		0	0	59.7634537999984	59.863478299987
9833.25	0.0999620000366122	121	hunger	stimuli/non_foods\non-food_animate_butterfly.jpg	1	1	1	non-food_animate_butterfly	0	S	13	0	96	0		0	0	59.9134680999559	60.0134300999925
9870.75	0.0999910000246018	122	hunger	stimuli/foods\rice.jpg	1	1	1	rice	1	M	9	0	257	0		0	0	60.0634372999775	60.1634283000021
9908.25	0.0999825999606401	123	hunger	stimuli/foods\grapes.jpg	1	1	1	grapes	1	D	2	0	60	0		0	0	60.2134458000073	60.313428399968
9945.75	0.0999828000203706	124	hunger	stimuli/non_foods\non-food_inanimate_lighter.jpg	1	1	1	non-food_inanimate_lighter	0	N	10	0	193	0		0	0	60.3634435999556	60.463426399976
9983.25	0.0999846000340767	125	hunger	stimuli/non_foods\non-food_animate_lizard.jpg	1	1	1	non-food_animate_lizard	0	J	6	0	126	0		0	0	60.5134417999652	60.6134263999993
10020.75	0.0999830999644473	126	hunger	stimuli/foods\green_olives.jpg	1	1	1	green_olives	1	B	0	0	62	0		0	0	60.6634432999999	60.7634263999644
10058.25	0.0999873999971896	127	hunger	stimuli/foods\lemon.jpg	1	1	1	lemon	1	L	8	0	72	0		0	0	60.8134365999722	60.9134239999694
10095.75	0.0999706999864429	128	hunger	stimuli/foods\apple.jpg	1	1	1	apple	1	H	5	0	1	0		0	0	60.9634505999857	61.0634212999721
10133.25	0.099984799977392	129	hunger	stimuli/non_foods\non-food_inanimate_teddy_bear.jpg	1	1	1	non-food_inanimate_teddy_bear	0	J	6	0	218	0		0	0	61.1134353000089	61.2134200999863
10170.75	0.0999865000485443	130	hunger	stimuli/foods\mushroom.jpg	1	1	1	mushroom	1	W	16	0	85	0		0	0	61.263433999964	61.3634205000126
10208.25	0.0999826000188477	131	hunger	stimuli/non_foods\non-food_inanimate_protractor.jpg	1	1	1	non-food_inanimate_protractor	0	D	2	0	201	0		0	0	61.4134335999843	61.5134162000031
10245.75	0.100014400028158	132	hunger	stimuli/foods\fruit_pie.jpg	1	1	1	fruit_pie	1	X	17	0	54	0		0	0	61.5634427999612	61.6634571999894
10283.25	0.0999709999887273	133	hunger	stimuli/foods\lamb_chops.jpg	1	1	1	lamb_chops	1	M	9	0	70	0		0	0	61.7134460000088	61.8134169999976
10320.75	0.0999823000165634	134	hunger	stimuli/foods\nectarine.jpg	1	1	1	nectarine	1	W	16	0	87	0		0	0	61.8634282999556	61.9634105999721
10358.25	0.0999798999982886	135	hunger	stimuli/foods\pancakes.jpg	1	1	1	pancakes	1	D	2	0	234	0		0	0	62.013425699959	62.1134055999573
10395.75	0.0999796999967657	136	hunger	stimuli/non_foods\non-food_animate_seahorse.jpg	1	1	1	non-food_animate_seahorse	0	F	3	0	145	0		0	0	62.1634184999857	62.2633981999825
10433.25	0.0999636999913491	137	hunger	stimuli/foods\egg.jpg	1	1	1	egg	1	P	11	0	45	0		0	0	62.3134190000128	62.4133827000041
10470.75	0.099986599991098	138	hunger	stimuli/foods\oyster.jpg	1	1	1	oyster	1	B	0	0	233	0		0	0	62.4634209999931	62.5634075999842
10508.25	0.0999819000135176	139	hunger	stimuli/foods\lentils.jpg	1	1	1	lentils	1	F	3	0	74	0		0	0	62.6134205999551	62.7134024999687
10983.25	0.099963300046511	140	hunger	stimuli/foods\lemon_meringue_pie.jpg	1	2	1	lemon_meringue_pie	1	T	14	0	73	0		0	0	64.5134110999643	64.6133744000108
11020.75	0.0999847000348382	141	hunger	stimuli/non_foods\non-food_inanimate_guitar.jpg	1	2	1	non-food_inanimate_guitar	0	R	12	0	185	0		0	0	64.6634006999666	64.7633854000014
11058.25	0.0999892000108957	142	hunger	stimuli/foods\lime.jpg	1	2	1	lime	1	W	16	0	76	0		0	0	64.8133933999925	64.9133826000034
11095.75	0.0999976000166498	143	hunger	stimuli/non_foods\non-food_inanimate_gloves.jpg	1	2	1	non-food_inanimate_gloves	0	K	7	0	183	0		0	0	64.963396999985	65.0633946000016
11133	0.100007000030018	144	hunger	stimuli/foods\pepperoni_pizza.jpg	1	2	1	pepperoni_pizza	1	W	16	0	241	0		0	0	65.1133753999602	65.2133823999902
11170.75	0.0999879000009969	145	hunger	stimuli/foods\prawn.jpg	1	2	1	prawn	1	V	15	0	249	0		0	0	65.2633899999782	65.3633778999792
11208.25	0.0999631999875419	146	hunger	stimuli/non_foods\non-food_inanimate_hay.jpg	1	2	1	non-food_inanimate_hay	0	T	14	0	187	0		0	0	65.4134199999971	65.5133831999847
11245.75	0.099982799962163	147	hunger	stimuli/non_foods\non-food_animate_Causasian_man.jpg	1	2	1	non-food_animate_Causasian_man	0	H	5	0	89	0		0	0	65.5633952000062	65.6633779999684
11283.25	0.0999975000158884	148	hunger	stimuli/non_foods\non-food_inanimate_rack.jpg	1	2	1	non-food_inanimate_rack	0	F	3	0	202	0		0	0	65.713390799996	65.8133883000119
11320.75	0.0999738000100479	149	hunger	stimuli/foods\cereal.jpg	1	2	1	cereal	1	B	0	0	22	0		0	0	65.8633992999676	65.9633730999776
11358.25	0.0999726000009105	150	hunger	stimuli/foods\pickles.jpg	1	2	1	pickles	1	V	15	0	242	0		0	0	66.013392199995	66.1133647999959
11395.75	0.0999695000355132	151	hunger	stimuli/foods\chilli.jpg	1	2	1	chilli	1	S	13	0	25	0		0	0	66.1633781999699	66.2633477000054
11433	0.0999854999827221	152	hunger	stimuli/non_foods\non-food_inanimate_button.jpg	1	2	1	non-food_inanimate_button	0	X	17	0	168	0		0	0	66.3133763999795	66.4133618999622
11470.5	0.0999955000006594	153	hunger	stimuli/foods\spring_onions.jpg	1	2	1	spring_onions	1	K	7	0	269	0		0	0	66.4633730999776	66.5633685999783
11508.25	0.0999919999740086	154	hunger	stimuli/foods\fries.jpg	1	2	1	fries	1	V	15	0	52	0		0	0	66.6133741000085	66.7133660999825
11545.75	0.0999767000321299	155	hunger	stimuli/non_foods\non-food_animate_baby_sitting.jpg	1	2	1	non-food_animate_baby_sitting	0	X	17	0	93	0		0	0	66.7633800999611	66.8633567999932
11583	0.099982000014279	156	hunger	stimuli/foods\mango.jpg	1	2	1	mango	1	V	15	0	80	0		0	0	66.9133739999961	67.0133560000104
11620.75	0.0999556999886408	157	hunger	stimuli/non_foods\non-food_inanimate_couch.jpg	1	2	1	non-food_inanimate_couch	0	W	16	0	176	0		0	0	67.0633801000076	67.1633357999963
11658.25	0.0999838999705389	158	hunger	stimuli/non_foods\non-food_animate_frog.jpg	1	2	1	non-food_animate_frog	0	F	3	0	113	0		0	0	67.2133753999951	67.3133592999657
11695.75	0.099983100022655	159	hunger	stimuli/non_foods\non-food_inanimate_shell.jpg	1	2	1	non-food_inanimate_shell	0	Z	18	0	206	0		0	0	67.3633759999648	67.4633590999874
11733.25	0.0999779999838211	160	hunger	stimuli/foods\peas.jpg	1	2	1	peas	1	H	5	0	240	0		0	0	67.5133709000074	67.6133488999913
11770.75	0.0999900999595411	161	hunger	stimuli/foods\grapefruits.jpg	1	2	1	grapefruits	1	G	4	0	59	0		0	0	67.6633819999988	67.7633720999584
11808	0.100002599996515	162	hunger	stimuli/non_foods\non-food_animate_lion.jpg	1	2	1	non-food_animate_lion	0	H	5	0	125	0		0	0	67.8133520999691	67.9133546999656
11845.75	0.0999849999789149	163	hunger	stimuli/foods\oven-roasted_tomatoes.jpg	1	2	1	oven-roasted_tomatoes	1	W	16	0	232	0		0	0	67.9633672999917	68.0633522999706
11883.25	0.0999859999865294	164	hunger	stimuli/foods\waffle.jpg	1	2	1	waffle	1	J	6	0	278	0		0	0	68.1133663000073	68.2133522999939
11920.5	0.0999882000032812	165	hunger	stimuli/foods\spinach.jpg	1	2	1	spinach	1	V	15	0	268	0		0	0	68.2633580999682	68.3633462999715
11958.25	0.0999544999795035	166	hunger	stimuli/non_foods\non-food_animate_elephant.jpg	1	2	1	non-food_animate_elephant	0	C	1	0	111	0		0	0	68.413387699984	68.5133421999635
11995.75	0.0999808000051416	167	hunger	stimuli/non_foods\non-food_animate_cheetah.jpg	1	2	1	non-food_animate_cheetah	0	M	9	0	100	0		0	0	68.5633695999859	68.663350399991
12033	0.0999776999815367	168	hunger	stimuli/foods\rockmelon.jpg	1	2	1	rockmelon	1	W	16	0	262	0		0	0	68.7133601999958	68.8133378999773
12070.5	0.0999970999546349	169	hunger	stimuli/foods\avocado.jpg	1	2	1	avocado	1	K	7	0	5	0		0	0	68.8633504000027	68.9633474999573
12108	0.0999829000211321	170	hunger	stimuli/foods\apricot.jpg	1	2	1	apricot	1	L	8	0	2	0		0	0	69.013360699988	69.1133436000091
12145.5	0.0999839000287466	171	hunger	stimuli/non_foods\non-food_animate_chicken.jpg	1	2	1	non-food_animate_chicken	0	F	3	0	101	0		0	0	69.163356199977	69.2633401000057
12183	0.100016599986702	172	hunger	stimuli/foods\broccoli.jpg	1	2	1	broccoli	1	R	12	0	13	0		0	0	69.3133321999921	69.4133487999788
12220.75	0.0999607000267133	173	hunger	stimuli/non_foods\non-food_inanimate_sun_flower.jpg	1	2	1	non-food_inanimate_sun_flower	0	F	3	0	216	0		0	0	69.4633785999613	69.563339299988
12258	0.0999832000234164	174	hunger	stimuli/foods\pear.jpg	1	2	1	pear	1	W	16	0	239	0		0	0	69.6133546999772	69.7133379000006
12295.5	0.0999720999971032	175	hunger	stimuli/foods\green_beans.jpg	1	2	1	green_beans	1	N	10	0	61	0		0	0	69.7633561000112	69.8633282000083
12333	0.099976500030607	176	hunger	stimuli/non_foods\non-food_inanimate_nest.jpg	1	2	1	non-food_inanimate_nest	0	F	3	0	196	0		0	0	69.9133396999678	70.0133161999984
12370.5	0.0999829999636859	177	hunger	stimuli/non_foods\non-food_inanimate_tulip.jpg	1	2	1	non-food_inanimate_tulip	0	B	0	0	224	0		0	0	70.0633494000067	70.1633323999704
12408	0.0999797999975272	178	hunger	stimuli/non_foods\non-food_inanimate_alarm_clock.jpg	1	2	1	non-food_inanimate_alarm_clock	0	J	6	0	158	0		0	0	70.2133467000094	70.313326500007
12445.5	0.100009799993131	179	hunger	stimuli/foods\hotdog.jpg	1	2	1	hotdog	1	G	4	0	67	0		0	0	70.3633160999743	70.4633258999675
12483.25	0.0999456999707036	180	hunger	stimuli/non_foods\non-food_animate_clown.jpg	1	2	1	non-food_animate_clown	0	B	0	0	102	0		0	0	70.5134000999969	70.6133457999676
12520.5	0.099983100022655	181	hunger	stimuli/non_foods\non-food_inanimate_chair.jpg	1	2	1	non-food_inanimate_chair	0	T	14	0	172	0		0	0	70.6633424999891	70.7633256000117
12558	0.0999846999766305	182	hunger	stimuli/non_foods\non-food_animate_monkey.jpg	1	2	1	non-food_animate_monkey	0	G	4	0	130	0		0	0	70.8133415000048	70.9133261999814
12595.5	0.0999770000344142	183	hunger	stimuli/foods\linguine_with_clams.jpg	1	2	1	linguine_with_clams	1	Z	18	0	77	0		0	0	70.9633402999607	71.0633172999951
12633	0.0999852999811992	184	hunger	stimuli/non_foods\non-food_animate_german_shepherd.jpg	1	2	1	non-food_animate_german_shepherd	0	G	4	0	114	0		0	0	71.1133318999782	71.2133171999594
12670.5	0.0999703999841586	185	hunger	stimuli/foods\corncob.jpg	1	2	1	corncob	1	N	10	0	37	0		0	0	71.2633446999826	71.3633150999667
12708	0.0999841999728233	186	hunger	stimuli/non_foods\non-food_animate_bee.jpg	1	2	1	non-food_animate_bee	0	B	0	0	95	0		0	0	71.4133281999966	71.5133123999694
12745.5	0.0999946999945678	187	hunger	stimuli/non_foods\non-food_animate_tortoise.jpg	1	2	1	non-food_animate_tortoise	0	C	1	0	153	0		0	0	71.563324799994	71.6633194999886
12783	0.0999834000249393	188	hunger	stimuli/non_foods\non-food_animate_kangaroo.jpg	1	2	1	non-food_animate_kangaroo	0	J	6	0	122	0		0	0	71.713332699961	71.813316099986
12820.5	0.0999824999598786	189	hunger	stimuli/non_foods\non-food_inanimate_folding_chair.jpg	1	2	1	non-food_inanimate_folding_chair	0	D	2	0	182	0		0	0	71.8633275000029	71.9633099999628
12858	0.100001299986616	190	hunger	stimuli/foods\onion.jpg	1	2	1	onion	1	N	10	0	229	0		0	0	72.0133049999713	72.1133062999579
12895.5	0.0999699999811128	191	hunger	stimuli/foods\cucumber.jpg	1	2	1	cucumber	1	G	4	0	41	0		0	0	72.1633292000042	72.2632991999853
12933	0.0999905999633484	192	hunger	stimuli/non_foods\non-food_animate_iguana.jpg	1	2	1	non-food_animate_iguana	0	M	9	0	121	0		0	0	72.3133257000009	72.4133162999642
12970.5	0.0999814000097103	193	hunger	stimuli/non_foods\non-food_animate_slug.jpg	1	2	1	non-food_animate_slug	0	B	0	0	148	0		0	0	72.4633273999789	72.5633087999886
13008	0.0999786999891512	194	hunger	stimuli/non_foods\non-food_animate_raccoon.jpg	1	2	1	non-food_animate_raccoon	0	G	4	0	139	0		0	0	72.6133269999991	72.7133056999883
13045.5	0.0999768999754451	195	hunger	stimuli/foods\figs.jpg	1	2	1	figs	1	D	2	0	48	0		0	0	72.7633226999897	72.8632995999651
13083	0.0999998000334017	196	hunger	stimuli/non_foods\non-food_animate_donkey.jpg	1	2	1	non-food_animate_donkey	0	M	9	0	107	0		0	0	72.9133179999772	73.0133178000106
13120.5	0.099952700024005	197	hunger	stimuli/non_foods\non-food_inanimate_nettle.jpg	1	2	1	non-food_inanimate_nettle	0	K	7	0	197	0		0	0	73.0633239999879	73.1632767000119
13158	0.0999843000317924	198	hunger	stimuli/non_foods\non-food_animate_gorilla.jpg	1	2	1	non-food_animate_gorilla	0	H	5	0	116	0		0	0	73.2133171999594	73.3133014999912
13195.5	0.0999814000097103	199	hunger	stimuli/non_foods\non-food_inanimate_clover.jpg	1	2	1	non-food_inanimate_clover	0	T	14	0	174	0		0	0	73.3633179999888	73.4632993999985
13233	0.0999769000336528	200	hunger	stimuli/non_foods\non-food_inanimate_soccer_ball.jpg	1	2	1	non-food_inanimate_soccer_ball	0	B	0	0	210	0		0	0	73.5133211999782	73.6132981000119
13270.5	0.10000040003797	201	hunger	stimuli/non_foods\non-food_animate_deer.jpg	1	2	1	non-food_animate_deer	0	S	13	0	105	0		0	0	73.6633005999611	73.763300999999
13308	0.0999844000325538	202	hunger	stimuli/non_foods\non-food_inanimate_canoe.jpg	1	2	1	non-food_inanimate_canoe	0	V	15	0	170	0		0	0	73.8133140999707	73.9132985000033
13345.5	0.099983100022655	203	hunger	stimuli/foods\fried_calamari.jpg	1	2	1	fried_calamari	1	K	7	0	50	0		0	0	73.9633124999818	74.0632956000045
13383	0.0999797000549734	204	hunger	stimuli/non_foods\non-food_inanimate_pine_cone.jpg	1	2	1	non-food_inanimate_pine_cone	0	G	4	0	200	0		0	0	74.1133137999568	74.2132935000118
13420.5	0.0999738999526016	205	hunger	stimuli/non_foods\non-food_animate_ant.jpg	1	2	1	non-food_animate_ant	0	D	2	0	91	0		0	0	74.2633098000078	74.3632836999604
13458	0.0999854999827221	206	hunger	stimuli/foods\raw_ham.jpg	1	2	1	raw_ham	1	B	0	0	253	0		0	0	74.4132983000018	74.5132837999845
13495.5	0.0999948999960907	207	hunger	stimuli/non_foods\non-food_inanimate_headphones.jpg	1	2	1	non-food_inanimate_headphones	0	Z	18	0	188	0		0	0	74.563283299969	74.6632781999651
13533	0.0999879000009969	208	hunger	stimuli/foods\taco.jpg	1	2	1	taco	1	H	5	0	274	0		0	0	74.7133059999906	74.8132938999915
13570.75	0.09994889999507	209	hunger	stimuli/non_foods\non-food_animate_eagle.jpg	1	2	1	non-food_animate_eagle	0	I	21	1	110	0		0	0	74.8633476999821	74.9632965999772
13608	0.0999825000180863	210	hunger	stimuli/foods\cannoli.jpg	1	2	1	cannoli	1	S	13	0	17	0		0	0	75.013292299991	75.1132748000091
13645.5	0.099979099992197	211	hunger	stimuli/foods\eggplant.jpg	1	2	1	eggplant	1	G	4	0	46	0		0	0	75.1632897999953	75.2632688999875
13683	0.100003700004891	212	hunger	stimuli/foods\raisins.jpg	1	2	1	raisins	1	K	7	0	252	0		0	0	75.3132742999587	75.4132779999636
13720.5	0.0999978999607265	213	hunger	stimuli/non_foods\non-food_animate_ram.jpg	1	2	1	non-food_animate_ram	0	Z	18	0	140	1	a	0.691770799981896	1	75.4632848000037	75.5632826999645
13758	0.0999816000112332	214	hunger	stimuli/non_foods\non-food_animate_ladybug.jpg	1	2	1	non-food_animate_ladybug	0	L	8	0	124	0		0	0	75.6132952999906	75.7132769000018
13795.5	0.0999809000059031	215	hunger	stimuli/foods\asparagus.jpg	1	2	1	asparagus	1	R	12	0	4	0		0	0	75.7632936000009	75.8632745000068
13833	0.0999741000123322	216	hunger	stimuli/non_foods\non-food_animate_woman.jpg	1	2	1	non-food_animate_woman	0	X	17	0	154	0		0	0	75.913302299974	76.0132763999864
13870.5	0.0999782999861054	217	hunger	stimuli/foods\chocolate_bar.jpg	1	2	1	chocolate_bar	1	F	3	0	26	0		0	0	76.0632886000094	76.1632668999955
13908	0.0999901999603026	218	hunger	stimuli/foods\peach.jpg	1	2	1	peach	1	C	1	0	238	0		0	0	76.213276399998	76.3132665999583
13945.5	0.0999838999705389	219	hunger	stimuli/non_foods\non-food_animate_rhino.jpg	1	2	1	non-food_animate_rhino	0	F	3	0	141	0		0	0	76.3632799999905	76.463263899961
13983	0.0999707999872044	220	hunger	stimuli/non_foods\non-food_inanimate_bed.jpg	1	2	1	non-food_inanimate_bed	0	R	12	0	160	0		0	0	76.5132868000073	76.6132575999945
14020.5	0.0999723999993876	221	hunger	stimuli/foods\museli_bars.jpg	1	2	1	museli_bars	1	X	17	0	84	0		0	0	76.6632740999921	76.7632464999915
14058	0.099992600036785	222	hunger	stimuli/foods\meatballs.jpg	1	2	1	meatballs	1	G	4	0	81	0		0	0	76.8132818999584	76.9132744999952
14095.5	0.0999905000207946	223	hunger	stimuli/foods\brie.jpg	1	2	1	brie	1	R	12	0	12	0		0	0	76.9632799999672	77.063270499988
14133	0.0999826000188477	224	hunger	stimuli/non_foods\non-food_inanimate_bush.jpg	1	2	1	non-food_inanimate_bush	0	M	9	0	167	0		0	0	77.1132833999582	77.213265999977
14170.5	0.0999863999895751	225	hunger	stimuli/non_foods\non-food_animate_parrot.jpg	1	2	1	non-food_animate_parrot	0	N	10	0	133	0		0	0	77.2632778999978	77.3632642999873
14208	0.0999870000523515	226	hunger	stimuli/non_foods\non-food_animate_young_girl.jpg	1	2	1	non-food_animate_young_girl	0	A	19	1	157	0		0	0	77.4132775999606	77.5132646000129
14245.5	0.0999830000218935	227	hunger	stimuli/foods\mortadella.jpg	1	2	1	mortadella	1	M	9	0	83	0		0	0	77.5632776999846	77.6632607000065
14283	0.0999728000024334	228	hunger	stimuli/foods\risotto_with_zucchini.jpg	1	2	1	risotto_with_zucchini	1	K	7	0	260	0		0	0	77.7132748999866	77.813247699989
14320.5	0.0999752000207081	229	hunger	stimuli/non_foods\non-food_inanimate_highlighter.jpg	1	2	1	non-food_inanimate_highlighter	0	J	6	0	189	0		0	0	77.8632695999695	77.9632447999902
14358	0.0999871999956667	230	hunger	stimuli/foods\orange.jpg	1	2	1	orange	1	G	4	0	230	0		0	0	78.0132609999855	78.1132481999812
14395.5	0.099995199998375	231	hunger	stimuli/foods\strawberry.jpg	1	2	1	strawberry	1	W	16	0	272	0		0	0	78.1632595999981	78.2632547999965
14433	0.100002099992707	232	hunger	stimuli/foods\chocolate_pralines.jpg	1	2	1	chocolate_pralines	1	G	4	0	28	0		0	0	78.3132542999811	78.4132563999738
14470.5	0.0999757000245154	233	hunger	stimuli/foods\frankfurter_and_provolone_salad.jpg	1	2	1	frankfurter_and_provolone_salad	1	T	14	0	49	0		0	0	78.4632650999702	78.5632407999947
14508	0.0999961000052281	234	hunger	stimuli/foods\blackberry.jpg	1	2	1	blackberry	1	X	17	0	11	0		0	0	78.6132593000075	78.7132554000127
14545.5	0.0999742000130937	235	hunger	stimuli/non_foods\non-food_inanimate_chandelier.jpg	1	2	1	non-food_inanimate_chandelier	0	N	10	0	173	0		0	0	78.7632655999623	78.8632397999754
14583	0.0999927999801002	236	hunger	stimuli/non_foods\non-food_inanimate_desk.jpg	1	2	1	non-food_inanimate_desk	0	C	1	0	178	0		0	0	78.9132536000106	79.0132463999907
14620.5	0.0999853999819607	237	hunger	stimuli/non_foods\non-food_inanimate_toilet.jpg	1	2	1	non-food_inanimate_toilet	0	F	3	0	220	0		0	0	79.0632608999731	79.1632462999551
14658	0.0999859000439756	238	hunger	stimuli/non_foods\non-food_inanimate_fern.jpg	1	2	1	non-food_inanimate_fern	0	Z	18	0	180	0		0	0	79.2132566999644	79.3132426000084
14695.5	0.0999915999709629	239	hunger	stimuli/non_foods\non-food_inanimate_suitcase.jpg	1	2	1	non-food_inanimate_suitcase	0	R	12	0	215	0		0	0	79.3632488999865	79.4632404999575
14733	0.0999713999917731	240	hunger	stimuli/non_foods\non-food_inanimate_horn.jpg	1	2	1	non-food_inanimate_horn	0	P	11	0	190	0		0	0	79.5132678999798	79.6132392999716
14770.5	0.099983699969016	241	hunger	stimuli/foods\risotto_with_peas_and_asparagus_tips.jpg	1	2	1	risotto_with_peas_and_asparagus_tips	1	L	8	0	259	0		0	0	79.6632516999962	79.7632353999652
14808	0.0999898999580182	242	hunger	stimuli/non_foods\non-food_animate_seal.jpg	1	2	1	non-food_animate_seal	0	P	11	0	146	0		0	0	79.813249800005	79.913239699963
14845.5	0.0999879000009969	243	hunger	stimuli/non_foods\non-food_inanimate_cap.jpg	1	2	1	non-food_inanimate_cap	0	H	5	0	171	0		0	0	79.9632453999948	80.0632332999958
14883	0.0999839000287466	244	hunger	stimuli/non_foods\non-food_animate_skunk.jpg	1	2	1	non-food_animate_skunk	0	K	7	0	147	0		0	0	80.1132528999588	80.2132367999875
14920.5	0.0999849000363611	245	hunger	stimuli/foods\dates.jpg	1	2	1	dates	1	G	4	0	43	0		0	0	80.2632514999714	80.3632364000077
14958	0.0999774999800138	246	hunger	stimuli/foods\hazelnuts.jpg	1	2	1	hazelnuts	1	X	17	0	65	0		0	0	80.4132431999897	80.5132206999697
14995.5	0.0999895000131801	247	hunger	stimuli/non_foods\non-food_animate_baby_crawling.jpg	1	2	1	non-food_animate_baby_crawling	0	C	1	0	92	0		0	0	80.5632375999703	80.6632270999835
15033	0.0999852999811992	248	hunger	stimuli/non_foods\non-food_animate_alligator.jpg	1	2	1	non-food_animate_alligator	0	H	5	0	90	0		0	0	80.7132357999799	80.8132210999611
15070.5	0.0999780999845825	249	hunger	stimuli/foods\pumpkin.jpg	1	2	1	pumpkin	1	M	9	0	250	0		0	0	80.8632338999887	80.9632119999733
15108	0.100001899991184	250	hunger	stimuli/foods\roasted_chicken.jpg	1	2	1	roasted_chicken	1	N	10	0	261	0		0	0	81.0132163999951	81.1132182999863
15145.5	0.0999731000047177	251	hunger	stimuli/non_foods\non-food_inanimate_rope.jpg	1	2	1	non-food_inanimate_rope	0	K	7	0	204	0		0	0	81.1632399999653	81.26321309997
15183	0.0999716999940574	252	hunger	stimuli/foods\clams.jpg	1	2	1	clams	1	H	5	0	32	0		0	0	81.3132518999628	81.4132235999568
15220.5	0.099981100007426	253	hunger	stimuli/non_foods\non-food_animate_killer_whale.jpg	1	2	1	non-food_animate_killer_whale	0	W	16	0	123	0		0	0	81.4632386000012	81.5632197000086
15258	0.0999870999949053	254	hunger	stimuli/foods\chocolate_chip_cookies.jpg	1	2	1	chocolate_chip_cookies	1	M	9	0	27	0		0	0	81.6132346999948	81.7132217999897
15295.5	0.0999885000055656	255	hunger	stimuli/foods\brussel_sprouts.jpg	1	2	1	brussel_sprouts	1	N	10	0	15	0		0	0	81.7632311999914	81.863219699997
15333	0.100016499985941	256	hunger	stimuli/non_foods\non-food_inanimate_tent.jpg	1	2	1	non-food_inanimate_tent	0	T	14	0	219	0		0	0	81.9132306000101	82.0132470999961
15370.5	0.0999547999817878	257	hunger	stimuli/foods\smoked_ham.jpg	1	2	1	smoked_ham	1	J	6	0	266	0		0	0	82.0632566999993	82.1632114999811
15408	0.0999830000218935	258	hunger	stimuli/non_foods\non-food_inanimate_short_sleeved_shirt.jpg	1	2	1	non-food_inanimate_short_sleeved_shirt	0	D	2	0	207	0		0	0	82.2132215999882	82.3132046000101
15445.5	0.0999833000241779	259	hunger	stimuli/foods\cauliflower.jpg	1	2	1	cauliflower	1	R	12	0	20	0		0	0	82.3632164999726	82.4631997999968
15483	0.100002699997276	260	hunger	stimuli/foods\radish.jpg	1	2	1	radish	1	S	13	0	251	0		0	0	82.5132034000126	82.6132061000098
15520.5	0.0999607000267133	261	hunger	stimuli/foods\honey.jpg	1	2	1	honey	1	B	0	0	66	0		0	0	82.6632190999808	82.7631798000075
15558	0.099994299991522	262	hunger	stimuli/non_foods\non-food_animate_porcupine.jpg	1	2	1	non-food_animate_porcupine	0	D	2	0	138	0		0	0	82.8132166999858	82.9132109999773
15595.5	0.0999849000363611	263	hunger	stimuli/foods\cupcake.jpg	1	2	1	cupcake	1	H	5	0	42	0		0	0	82.9632268999703	83.0632118000067
15633	0.0999846000340767	264	hunger	stimuli/foods\cooked_ham.jpg	1	2	1	cooked_ham	1	G	4	0	35	0		0	0	83.1132219999563	83.2132065999904
15670.5	0.0999682999681681	265	hunger	stimuli/non_foods\non-food_animate_fox.jpg	1	2	1	non-food_animate_fox	0	N	10	0	112	0		0	0	83.2632243999979	83.363192699966
15708	0.0999873999971896	266	hunger	stimuli/non_foods\non-food_animate_sea_turtle.jpg	1	2	1	non-food_animate_sea_turtle	0	H	5	0	144	0		0	0	83.4132093999651	83.5131967999623
15745.5	0.0999930999823846	267	hunger	stimuli/foods\fennel.jpg	1	2	1	fennel	1	X	17	0	47	0		0	0	83.5632101999945	83.6632032999769
15783	0.0999807000043802	268	hunger	stimuli/foods\spaghetti_with_meat_sauce.jpg	1	2	1	spaghetti_with_meat_sauce	1	T	14	0	267	0		0	0	83.7132152999984	83.8131960000028
15820.5	0.0999825000180863	269	hunger	stimuli/non_foods\non-food_inanimate_fire_extinguisher.jpg	1	2	1	non-food_inanimate_fire_extinguisher	0	J	6	0	181	0		0	0	83.8632070999593	83.9631895999773
15858	0.100022899976466	270	hunger	stimuli/foods\chocolate_pudding.jpg	1	2	1	chocolate_pudding	1	P	11	0	29	0		0	0	84.0131848999881	84.1132077999646
15895.5	0.0999826000188477	271	hunger	stimuli/non_foods\non-food_inanimate_skirt.jpg	1	2	1	non-food_inanimate_skirt	0	F	3	0	209	0		0	0	84.1632052999921	84.263187900011
15933	0.0999852999811992	272	hunger	stimuli/non_foods\non-food_inanimate_speakers.jpg	1	2	1	non-food_inanimate_speakers	0	G	4	0	212	0		0	0	84.313199999975	84.4131852999562
15970.5	0.0999848000355996	273	hunger	stimuli/non_foods\non-food_inanimate_nailpolish.jpg	1	2	1	non-food_inanimate_nailpolish	0	T	14	0	195	0		0	0	84.4632036999683	84.5631885000039
16008	0.0999850999796763	274	hunger	stimuli/non_foods\non-food_animate_snail.jpg	1	2	1	non-food_animate_snail	0	F	3	0	149	0		0	0	84.6131984000094	84.7131834999891
16045.5	0.0999727000016719	275	hunger	stimuli/non_foods\non-food_inanimate_waterlily.jpg	1	2	1	non-food_inanimate_waterlily	0	S	13	0	226	0		0	0	84.7631968999631	84.8631695999647
16083	0.0999915999709629	276	hunger	stimuli/non_foods\non-food_inanimate_stapler.jpg	1	2	1	non-food_inanimate_stapler	0	V	15	0	213	0		0	0	84.9131841000053	85.0131756999763
16120.5	0.0999843999743462	277	hunger	stimuli/foods\donut.jpg	1	2	1	donut	1	T	14	0	44	0		0	0	85.0632044000085	85.1631887999829
16158	0.0999833000241779	278	hunger	stimuli/foods\kiwi.jpg	1	2	1	kiwi	1	D	2	0	69	0		0	0	85.2132053999812	85.3131887000054
16195.5	0.0999841000302695	279	hunger	stimuli/foods\potato_chips.jpg	1	2	1	potato_chips	1	T	14	0	247	0		0	0	85.3632018999779	85.4631860000081
16612.25	0.0999749000184238	280	hunger	stimuli/non_foods\non-food_animate_young_girl.jpg	1	3	1	non-food_animate_young_girl	0	X	17	0	157	0		0	0	87.0298570999876	87.129832000006
16649.75	0.0999799999990501	281	hunger	stimuli/foods\pepperoni_pizza.jpg	1	3	1	pepperoni_pizza	1	S	13	0	241	0		0	0	87.1798490000074	87.2798290000064
16687.25	0.0999829000211321	282	hunger	stimuli/foods\pea_pod.jpg	1	3	1	pea_pod	1	C	1	0	237	0		0	0	87.3298497999785	87.4298326999997
16724.75	0.099984000029508	283	hunger	stimuli/foods\banana.jpg	1	3	1	banana	1	K	7	0	9	0		0	0	87.4798453999683	87.5798293999978
16762.25	0.0999830000218935	284	hunger	stimuli/foods\pickles.jpg	1	3	1	pickles	1	T	14	0	242	0		0	0	87.629844399984	87.7298274000059
16799.75	0.0999809000059031	285	hunger	stimuli/foods\mandarin.jpg	1	3	1	mandarin	1	G	4	0	79	0		0	0	87.7798435000004	87.8798244000063
16837.25	0.0999858999857679	286	hunger	stimuli/foods\red_beans.jpg	1	3	1	red_beans	1	S	13	0	255	0		0	0	87.929839199991	88.0298250999767
16874.75	0.0999426000053063	287	hunger	stimuli/foods\oyster.jpg	1	3	1	oyster	1	L	8	0	233	0		0	0	88.079874899995	88.1798175000004
16912.25	0.100003300001845	288	hunger	stimuli/non_foods\non-food_inanimate_cactus_pot_plant.jpg	1	3	1	non-food_inanimate_cactus_pot_plant	0	X	17	0	169	0		0	0	88.2298279000097	88.3298312000115
16949.75	0.0999612999730743	289	hunger	stimuli/non_foods\non-food_animate_parrot.jpg	1	3	1	non-food_animate_parrot	0	R	12	0	133	0		0	0	88.3798517999821	88.4798130999552
16987.25	0.0999804000020958	290	hunger	stimuli/foods\mushroom.jpg	1	3	1	mushroom	1	C	1	0	85	0		0	0	88.5298286000034	88.6298090000055
17024.75	0.099964200053364	291	hunger	stimuli/foods\lamb_chops.jpg	1	3	1	lamb_chops	1	N	10	0	70	0		0	0	88.6798271999578	88.7797914000112
17062.25	0.099976500030607	292	hunger	stimuli/non_foods\non-food_animate_butterfly.jpg	1	3	1	non-food_animate_butterfly	0	L	8	0	96	0		0	0	88.8298332999693	88.9298097999999
17099.75	0.099975400022231	293	hunger	stimuli/foods\ginger_root.jpg	1	3	1	ginger_root	1	D	2	0	57	0		0	0	88.9798304999713	89.0798058999935
17137.25	0.0999839000287466	294	hunger	stimuli/foods\papaya.jpg	1	3	1	papaya	1	R	12	0	235	0		0	0	89.1298278999748	89.2298118000035
17174.75	0.0999823999591172	295	hunger	stimuli/non_foods\non-food_animate_lizard.jpg	1	3	1	non-food_animate_lizard	0	W	16	0	126	0		0	0	89.2798297000118	89.3798120999709
17212.25	0.0999582999502309	296	hunger	stimuli/non_foods\non-food_animate_seal.jpg	1	3	1	non-food_animate_seal	0	L	8	0	146	0		0	0	89.4298491000081	89.5298073999584
17249.75	0.0999858000432141	297	hunger	stimuli/non_foods\non-food_inanimate_stoplight.jpg	1	3	1	non-food_inanimate_stoplight	0	F	3	0	214	0		0	0	89.579823899956	89.6798096999992
17287.25	0.0999972999561578	298	hunger	stimuli/non_foods\non-food_animate_cheetah.jpg	1	3	1	non-food_animate_cheetah	0	Z	18	0	100	0		0	0	89.729812000005	89.8298092999612
17324.75	0.0999858999857679	299	hunger	stimuli/foods\chestnut.jpg	1	3	1	chestnut	1	S	13	0	24	0		0	0	89.8798214999842	89.97980739997
17362.25	0.100002799998038	300	hunger	stimuli/non_foods\non-food_inanimate_table.jpg	1	3	1	non-food_inanimate_table	0	M	9	0	217	0		0	0	90.0298219000106	90.1298247000086
17399.75	0.0999406999908388	301	hunger	stimuli/non_foods\non-food_inanimate_scissors.jpg	1	3	1	non-food_inanimate_scissors	0	H	5	0	205	0		0	0	90.179855800001	90.2797964999918
17437.25	0.0999788999906741	302	hunger	stimuli/non_foods\non-food_inanimate_folding_chair.jpg	1	3	1	non-food_inanimate_folding_chair	0	T	14	0	182	0		0	0	90.3298229000065	90.4298017999972
17474.75	0.0999824999598786	303	hunger	stimuli/non_foods\non-food_animate_fox.jpg	1	3	1	non-food_animate_fox	0	W	16	0	112	0		0	0	90.4798192000017	90.5798016999615
17512.25	0.10001299995929	304	hunger	stimuli/foods\radish.jpg	1	3	1	radish	1	C	1	0	251	0		0	0	90.6297852999996	90.7297982999589
17549.75	0.0999842000310309	305	hunger	stimuli/non_foods\non-food_inanimate_canoe.jpg	1	3	1	non-food_inanimate_canoe	0	J	6	0	170	0		0	0	90.7798156999634	90.8797998999944
17587.25	0.0999900000169873	306	hunger	stimuli/foods\cannoli.jpg	1	3	1	cannoli	1	S	13	0	17	0		0	0	90.9298136999714	91.0298036999884
17624.75	0.0999853000394069	307	hunger	stimuli/non_foods\non-food_animate_slug.jpg	1	3	1	non-food_animate_slug	0	W	16	0	148	0		0	0	91.0798101999681	91.1797955000075
17662.25	0.0999738000100479	308	hunger	stimuli/non_foods\non-food_inanimate_suitcase.jpg	1	3	1	non-food_inanimate_suitcase	0	B	0	0	215	0		0	0	91.2298224999686	91.3297962999786
17699.75	0.0999885000055656	309	hunger	stimuli/foods\cinnamon.jpg	1	3	1	cinnamon	1	X	17	0	30	0		0	0	91.3798048999743	91.4797933999798
17737.25	0.0999844999751076	310	hunger	stimuli/foods\lasagna.jpg	1	3	1	lasagna	1	A	19	1	71	0		0	0	91.5298061000067	91.6297905999818
17774.75	0.0999804000020958	311	hunger	stimuli/foods\corncob.jpg	1	3	1	corncob	1	B	0	0	37	0		0	0	91.6798064999748	91.7797868999769
17812.25	0.0999827000196092	312	hunger	stimuli/non_foods\non-food_animate_dolphin.jpg	1	3	1	non-food_animate_dolphin	0	C	1	0	106	0		0	0	91.8298115999787	91.9297942999983
17849.75	0.099967000016477	313	hunger	stimuli/foods\pancakes.jpg	1	3	1	pancakes	1	Z	18	0	234	1	a	0.541842799982987	1	91.9798207999556	92.0797877999721
17887.25	0.0999837000272237	314	hunger	stimuli/non_foods\non-food_animate_Asian_man.jpg	1	3	1	non-food_animate_Asian_man	0	S	13	0	88	0		0	0	92.1297982999822	92.2297820000094
17924.75	0.0999905000207946	315	hunger	stimuli/non_foods\non-food_animate_mammoth.jpg	1	3	1	non-food_animate_mammoth	0	D	2	0	128	0		0	0	92.279793899972	92.3797843999928
17962.25	0.0999831999652088	316	hunger	stimuli/foods\cinnamon_sroll.jpg	1	3	1	cinnamon_sroll	1	P	11	0	31	0		0	0	92.4298010999919	92.5297842999571
17999.75	0.099986000044737	317	hunger	stimuli/foods\lemon.jpg	1	3	1	lemon	1	G	4	0	72	0		0	0	92.579794899968	92.6797809000127
18037.25	0.0999861999880522	318	hunger	stimuli/non_foods\non-food_inanimate_socks.jpg	1	3	1	non-food_inanimate_socks	0	L	8	0	211	0		0	0	92.7297932999791	92.8297794999671
18074.75	0.0999830999644473	319	hunger	stimuli/non_foods\non-food_inanimate_buds.jpg	1	3	1	non-food_inanimate_buds	0	S	13	0	166	0		0	0	92.8797926999978	92.9797757999622
18112.25	0.100004999956582	320	hunger	stimuli/foods\dates.jpg	1	3	1	dates	1	B	0	0	43	0		0	0	93.0297910000081	93.1297959999647
18149.75	0.0999769999762066	321	hunger	stimuli/non_foods\non-food_inanimate_waterlily.jpg	1	3	1	non-food_inanimate_waterlily	0	R	12	0	226	0		0	0	93.1797962000128	93.279773199989
18187.25	0.0999899000162259	322	hunger	stimuli/non_foods\non-food_animate_kangaroo.jpg	1	3	1	non-food_animate_kangaroo	0	F	3	0	122	0		0	0	93.3297859999584	93.4297758999746
18224.75	0.0999859999865294	323	hunger	stimuli/foods\linguine_with_clams.jpg	1	3	1	linguine_with_clams	1	V	15	0	77	0		0	0	93.4797859999817	93.5797719999682
18262.25	0.100005500018597	324	hunger	stimuli/foods\figs.jpg	1	3	1	figs	1	T	14	0	48	0		0	0	93.6297894999734	93.729794999992
18299.75	0.0999459999729879	325	hunger	stimuli/non_foods\non-food_inanimate_toilet.jpg	1	3	1	non-food_inanimate_toilet	0	S	13	0	220	0		0	0	93.7798198999953	93.8797658999683
18337.25	0.0999903000192717	326	hunger	stimuli/non_foods\non-food_inanimate_construction_helment.jpg	1	3	1	non-food_inanimate_construction_helment	0	W	16	0	175	0		0	0	93.9297838999773	94.0297741999966
18374.75	0.10000570002012	327	hunger	stimuli/non_foods\non-food_animate_polar_bear.jpg	1	3	1	non-food_animate_polar_bear	0	L	8	0	137	0		0	0	94.0797571999719	94.1797628999921
18412.25	0.0999869999941438	328	hunger	stimuli/non_foods\non-food_animate_chicken.jpg	1	3	1	non-food_animate_chicken	0	K	7	0	101	0		0	0	94.2297789999866	94.3297659999807
18449.75	0.0999842999735847	329	hunger	stimuli/foods\chocolate_chip_cookies.jpg	1	3	1	chocolate_chip_cookies	1	N	10	0	27	0		0	0	94.3797779000015	94.4797621999751
18487.25	0.0999805000028573	330	hunger	stimuli/non_foods\non-food_animate_eagle.jpg	1	3	1	non-food_animate_eagle	0	T	14	0	110	0		0	0	94.529779799981	94.6297602999839
18524.75	0.0999875999987125	331	hunger	stimuli/non_foods\non-food_inanimate_teddy_bear.jpg	1	3	1	non-food_inanimate_teddy_bear	0	K	7	0	218	0		0	0	94.6797720000031	94.7797596000019
18562.25	0.0999841000302695	332	hunger	stimuli/foods\lemon_meringue_pie.jpg	1	3	1	lemon_meringue_pie	1	M	9	0	73	0		0	0	94.8297730999766	94.9297572000069
18599.75	0.0999714999925345	333	hunger	stimuli/foods\pork_and_rice.jpg	1	3	1	pork_and_rice	1	B	0	0	245	0		0	0	94.979772199993	95.0797436999856
18637.25	0.0999640999943949	334	hunger	stimuli/foods\salmon.jpg	1	3	1	salmon	1	I	21	1	264	0		0	0	95.129763200006	95.2297273000004
18674.75	0.0999834000249393	335	hunger	stimuli/foods\almonds.jpg	1	3	1	almonds	1	P	11	0	0	0		0	0	95.2797707999707	95.3797541999957
18712.25	0.0999861999880522	336	hunger	stimuli/non_foods\non-food_animate_lion.jpg	1	3	1	non-food_animate_lion	0	N	10	0	125	0		0	0	95.4297801000066	95.5297662999947
18749.75	0.0999606000259519	337	hunger	stimuli/foods\grapes.jpg	1	3	1	grapes	1	T	14	0	60	0		0	0	95.5797894999851	95.679750100011
18787.25	0.0999822999583557	338	hunger	stimuli/foods\chocolate_pralines.jpg	1	3	1	chocolate_pralines	1	H	5	0	28	0		0	0	95.729765600001	95.8297478999593
18824.75	0.099986000044737	339	hunger	stimuli/non_foods\non-food_inanimate_towel.jpg	1	3	1	non-food_inanimate_towel	0	V	15	0	221	0		0	0	95.8797652999638	95.9797513000085
18862.25	0.0999828999629244	340	hunger	stimuli/foods\pear.jpg	1	3	1	pear	1	D	2	0	239	0		0	0	96.0297661999939	96.1297490999568
18899.75	0.0999934999854304	341	hunger	stimuli/foods\risotto_with_peas_and_asparagus_tips.jpg	1	3	1	risotto_with_peas_and_asparagus_tips	1	W	16	0	259	0		0	0	96.1797559999977	96.2797494999832
18937.25	0.0999794999952428	342	hunger	stimuli/foods\toasted_bread_with_tomatoes.jpg	1	3	1	toasted_bread_with_tomatoes	1	B	0	0	275	0		0	0	96.3297646999708	96.4297441999661
18974.75	0.0999998999759555	343	hunger	stimuli/non_foods\non-food_inanimate_soccer_ball.jpg	1	3	1	non-food_inanimate_soccer_ball	0	L	8	0	210	0		0	0	96.4797570999945	96.5797569999704
19012.25	0.0999729000031948	344	hunger	stimuli/non_foods\non-food_inanimate_button.jpg	1	3	1	non-food_inanimate_button	0	F	3	0	168	0		0	0	96.6297695999965	96.7297424999997
19049.75	0.0999622999806888	345	hunger	stimuli/non_foods\non-food_inanimate_short_sleeved_shirt.jpg	1	3	1	non-food_inanimate_short_sleeved_shirt	0	P	11	0	207	0		0	0	96.7797559999744	96.8797182999551
19087.25	0.099984000029508	346	hunger	stimuli/non_foods\non-food_inanimate_bicycle.jpg	1	3	1	non-food_inanimate_bicycle	0	B	0	0	161	0		0	0	96.9297540999833	97.0297381000128
19124.75	0.0999892000108957	347	hunger	stimuli/foods\cabbage.jpg	1	3	1	cabbage	1	N	10	0	16	0		0	0	97.079755499959	97.1797446999699
19162.25	0.0999503000057302	348	hunger	stimuli/non_foods\non-food_animate_killer_whale.jpg	1	3	1	non-food_animate_killer_whale	0	Z	18	0	123	0		0	0	97.2297827999573	97.3297330999631
19199.75	0.0999729000031948	349	hunger	stimuli/non_foods\non-food_inanimate_pine_cone.jpg	1	3	1	non-food_inanimate_pine_cone	0	B	0	0	200	0		0	0	97.3797641999554	97.4797370999586
19237.25	0.0999829000211321	350	hunger	stimuli/foods\garlic.jpg	1	3	1	garlic	1	F	3	0	56	0		0	0	97.5297498999862	97.6297328000073
19274.75	0.0999863999895751	351	hunger	stimuli/non_foods\non-food_inanimate_nailpolish.jpg	1	3	1	non-food_inanimate_nailpolish	0	X	17	0	195	0		0	0	97.6797460999805	97.7797324999701
19312.25	0.0999849999789149	352	hunger	stimuli/foods\capsicum.jpg	1	3	1	capsicum	1	H	5	0	18	0		0	0	97.8297452999977	97.9297302999767
19349.75	0.0999854999827221	353	hunger	stimuli/non_foods\non-food_animate_snail.jpg	1	3	1	non-food_animate_snail	0	P	11	0	149	0		0	0	97.979743200005	98.0797286999878
19387.25	0.0999746000161394	354	hunger	stimuli/foods\peach.jpg	1	3	1	peach	1	H	5	0	238	0		0	0	98.1297434999724	98.2297180999885
19424.75	0.0999784999876283	355	hunger	stimuli/foods\brownie.jpg	1	3	1	brownie	1	S	13	0	14	0		0	0	98.2797451000079	98.3797235999955
19462.25	0.0999842999735847	356	hunger	stimuli/non_foods\non-food_inanimate_gloves.jpg	1	3	1	non-food_inanimate_gloves	0	Z	18	0	183	0		0	0	98.4297401999938	98.5297244999674
19499.75	0.0999740000115708	357	hunger	stimuli/foods\honey.jpg	1	3	1	honey	1	B	0	0	66	0		0	0	98.5797397999559	98.6797137999674
19537.25	0.0999804000020958	358	hunger	stimuli/foods\minestrone_soup.jpg	1	3	1	minestrone_soup	1	K	7	0	82	0		0	0	98.7297407999868	98.8297211999889
19574.75	0.100003200001083	359	hunger	stimuli/non_foods\non-food_animate_dachshund.jpg	1	3	1	non-food_animate_dachshund	0	H	5	0	104	0		0	0	98.8797351999674	98.9797383999685
19612.25	0.0999891000101343	360	hunger	stimuli/non_foods\non-food_inanimate_speakers.jpg	1	3	1	non-food_inanimate_speakers	0	F	3	0	212	0		0	0	99.0297539999592	99.1297430999693
19649.75	0.0999889000086114	361	hunger	stimuli/non_foods\non-food_inanimate_skateboard.jpg	1	3	1	non-food_inanimate_skateboard	0	X	17	0	208	0		0	0	99.1797317999881	99.2797206999967
19687.25	0.0999839999713004	362	hunger	stimuli/foods\lentils.jpg	1	3	1	lentils	1	H	5	0	74	0		0	0	99.3297313000076	99.4297152999789
19724.75	0.0999844000325538	363	hunger	stimuli/non_foods\non-food_animate_mouse.jpg	1	3	1	non-food_animate_mouse	0	J	6	0	131	0		0	0	99.4797306999681	99.5797151000006
19762.25	0.0999867999926209	364	hunger	stimuli/foods\fries.jpg	1	3	1	fries	1	B	0	0	52	0		0	0	99.6297272999655	99.7297140999581
19799.75	0.0999777999822982	365	hunger	stimuli/foods\asparagus.jpg	1	3	1	asparagus	1	V	15	0	4	0		0	0	99.7797279999941	99.8797057999764
19837.25	0.0999841999728233	366	hunger	stimuli/non_foods\non-food_animate_iguana.jpg	1	3	1	non-food_animate_iguana	0	G	4	0	121	0		0	0	99.9297191000078	100.029703299981
19874.75	0.0999832999659702	367	hunger	stimuli/non_foods\non-food_animate_penguin.jpg	1	3	1	non-food_animate_penguin	0	T	14	0	135	0		0	0	100.079716200009	100.179699499975
19912.25	0.100008000037633	368	hunger	stimuli/foods\raisins.jpg	1	3	1	raisins	1	G	4	0	252	0		0	0	100.229699199961	100.329707199999
19949.75	0.0999592999578454	369	hunger	stimuli/non_foods\non-food_inanimate_alarm_clock.jpg	1	3	1	non-food_inanimate_alarm_clock	0	P	11	0	158	0		0	0	100.379748600011	100.479707899969
19987.25	0.0999829999636859	370	hunger	stimuli/non_foods\non-food_inanimate_headphones.jpg	1	3	1	non-food_inanimate_headphones	0	C	1	0	188	0		0	0	100.529719999991	100.629702999955
20024.75	0.0999923999770544	371	hunger	stimuli/non_foods\non-food_inanimate_bed.jpg	1	3	1	non-food_inanimate_bed	0	S	13	0	160	0		0	0	100.679715999984	100.779708399961
20062.25	0.0999298999668099	372	hunger	stimuli/foods\steak.jpg	1	3	1	steak	1	B	0	0	270	0		0	0	100.8297685	100.929698399967
20099.75	0.099982000014279	373	hunger	stimuli/non_foods\non-food_inanimate_chandelier.jpg	1	3	1	non-food_inanimate_chandelier	0	T	14	0	173	0		0	0	100.979715899972	101.079697899986
20137.25	0.0999914999702014	374	hunger	stimuli/non_foods\non-food_animate_baby_sitting.jpg	1	3	1	non-food_animate_baby_sitting	0	K	7	0	93	0		0	0	101.129708399996	101.229699899966
20174.75	0.099983699969016	375	hunger	stimuli/foods\fruit_pie.jpg	1	3	1	fruit_pie	1	R	12	0	54	0		0	0	101.279706100002	101.379689799971
20212.25	0.0999924999778159	376	hunger	stimuli/foods\fennel.jpg	1	3	1	fennel	1	L	8	0	47	0		0	0	101.429704500013	101.529696999991
20249.75	0.0999766000313684	377	hunger	stimuli/non_foods\non-food_animate_peacock.jpg	1	3	1	non-food_animate_peacock	0	G	4	0	134	0		0	0	101.579710299964	101.679686899995
20287.25	0.0999874000553973	378	hunger	stimuli/foods\hazelnuts.jpg	1	3	1	hazelnuts	1	J	6	0	65	0		0	0	101.729698499956	101.829685900011
20324.75	0.100009499990847	379	hunger	stimuli/non_foods\non-food_inanimate_toy_airplane.jpg	1	3	1	non-food_inanimate_toy_airplane	0	P	11	0	222	0		0	0	101.879686800006	101.979696299997
20362.25	0.0999821999575943	380	hunger	stimuli/foods\cereal.jpg	1	3	1	cereal	1	V	15	0	22	0		0	0	102.029706600006	102.129688799963
20399.75	0.0999984000227414	381	hunger	stimuli/non_foods\non-food_inanimate_rack.jpg	1	3	1	non-food_inanimate_rack	0	X	17	0	202	0		0	0	102.179706899973	102.279705299996
20437.25	0.099973600008525	382	hunger	stimuli/foods\tomato.jpg	1	3	1	tomato	1	D	2	0	276	0		0	0	102.329717899964	102.429691499972
20474.75	0.0999976000166498	383	hunger	stimuli/foods\stew_with_potatoes_and_carrots.jpg	1	3	1	stew_with_potatoes_and_carrots	1	C	1	0	271	0		0	0	102.479700699972	102.579698299989
20512.25	0.0999617999768816	384	hunger	stimuli/foods\fried_calamari.jpg	1	3	1	fried_calamari	1	G	4	0	50	0		0	0	102.629714999988	102.729676799965
20549.75	0.0999810000066645	385	hunger	stimuli/foods\grilled_chicken_breast.jpg	1	3	1	grilled_chicken_breast	1	B	0	0	63	0		0	0	102.77969299996	102.879673999967
20587.25	0.0999526000232436	386	hunger	stimuli/non_foods\non-food_animate_green_bug.jpg	1	3	1	non-food_animate_green_bug	0	H	5	0	118	0		0	0	102.929698299966	103.029650899989
20624.75	0.0999869999941438	387	hunger	stimuli/foods\baked_lamb_with_potatoes.jpg	1	3	1	baked_lamb_with_potatoes	1	P	11	0	8	0		0	0	103.079693600012	103.179680600006
20662.25	0.099978199985344	388	hunger	stimuli/non_foods\non-food_inanimate_tulip.jpg	1	3	1	non-food_inanimate_tulip	0	T	14	0	224	0		0	0	103.229697700008	103.329675899993
20699.75	0.0999857999850065	389	hunger	stimuli/foods\waffle.jpg	1	3	1	waffle	1	W	16	0	278	0		0	0	103.379691999988	103.479677799973
20737.25	0.0999849000363611	390	hunger	stimuli/foods\taco.jpg	1	3	1	taco	1	N	10	0	274	0		0	0	103.529693499964	103.629678400001
20774.75	0.0999746000161394	391	hunger	stimuli/foods\eggplant.jpg	1	3	1	eggplant	1	F	3	0	46	0		0	0	103.679698399967	103.779672999983
20812.25	0.099986599991098	392	hunger	stimuli/foods\pineapple.jpg	1	3	1	pineapple	1	V	15	0	243	0		0	0	103.829687899968	103.929674499959
20849.75	0.0999890000093728	393	hunger	stimuli/non_foods\non-food_animate_owl.jpg	1	3	1	non-food_animate_owl	0	W	16	0	132	0		0	0	103.979687299987	104.079676299996
20887.25	0.0999814999522641	394	hunger	stimuli/foods\potato_chips.jpg	1	3	1	potato_chips	1	L	8	0	247	0		0	0	104.129687600012	104.229669099965
20924.75	0.0999947999953292	395	hunger	stimuli/foods\gnocchi.jpg	1	3	1	gnocchi	1	X	17	0	58	0		0	0	104.279696599988	104.379691399983
20962.25	0.0999652000027709	396	hunger	stimuli/foods\ice_cream.jpg	1	3	1	ice_cream	1	N	10	0	68	0		0	0	104.429700599983	104.529665799986
20999.75	0.0999731000047177	397	hunger	stimuli/foods\fruit_flan.jpg	1	3	1	fruit_flan	1	W	16	0	53	0		0	0	104.579680299968	104.679653399973
21037.25	0.0999807000043802	398	hunger	stimuli/non_foods\non-food_inanimate_horn.jpg	1	3	1	non-food_inanimate_horn	0	D	2	0	190	0		0	0	104.729684599966	104.829665299971
21074.75	0.0999910999671556	399	hunger	stimuli/non_foods\non-food_animate_student_female.jpg	1	3	1	non-food_animate_student_female	0	L	8	0	151	0		0	0	104.879671900009	104.979662999976
21112.25	0.0999862999888137	400	hunger	stimuli/foods\frankfurter_and_provolone_salad.jpg	1	3	1	frankfurter_and_provolone_salad	1	M	9	0	49	0		0	0	105.029675800004	105.129662099993
21149.75	0.0999816000112332	401	hunger	stimuli/non_foods\non-food_inanimate_chair.jpg	1	3	1	non-food_inanimate_chair	0	B	0	0	172	0		0	0	105.179676199972	105.279657799983
21187.25	0.0999860999872908	402	hunger	stimuli/foods\donut.jpg	1	3	1	donut	1	N	10	0	44	0		0	0	105.329673099972	105.429659199959
21224.75	0.0999829999636859	403	hunger	stimuli/foods\omelette.jpg	1	3	1	omelette	1	H	5	0	228	0		0	0	105.479674200004	105.579657199967
21262.25	0.0999827000196092	404	hunger	stimuli/foods\nectarine.jpg	1	3	1	nectarine	1	V	15	0	87	0		0	0	105.629672599956	105.729655299976
21299.75	0.0999861000454985	405	hunger	stimuli/non_foods\non-food_animate_ram.jpg	1	3	1	non-food_animate_ram	0	B	0	0	140	0		0	0	105.779670299962	105.879656400008
21337.25	0.0999835999682546	406	hunger	stimuli/foods\brie.jpg	1	3	1	brie	1	M	9	0	12	0		0	0	105.929670499987	106.029654099955
21374.75	0.0999900000169873	407	hunger	stimuli/non_foods\non-food_inanimate_guitar.jpg	1	3	1	non-food_inanimate_guitar	0	D	2	0	185	0		0	0	106.079679999966	106.179669999983
21412.25	0.0999462999752723	408	hunger	stimuli/foods\grapefruits.jpg	1	3	1	grapefruits	1	P	11	0	59	0		0	0	106.229698300012	106.329644599988
21449.75	0.0999862999888137	409	hunger	stimuli/non_foods\non-food_animate_cat.jpg	1	3	1	non-food_animate_cat	0	L	8	0	98	0		0	0	106.379664600012	106.479650900001
21487.25	0.0999916000291705	410	hunger	stimuli/non_foods\non-food_inanimate_lighter.jpg	1	3	1	non-food_inanimate_lighter	0	X	17	0	193	0		0	0	106.529656499973	106.629648100003
21524.75	0.099981100007426	411	hunger	stimuli/non_foods\non-food_inanimate_fire_extinguisher.jpg	1	3	1	non-food_inanimate_fire_extinguisher	0	M	9	0	181	0		0	0	106.679662999988	106.779644099995
21562.25	0.0999854999827221	412	hunger	stimuli/foods\strawberry.jpg	1	3	1	strawberry	1	B	0	0	272	0		0	0	106.829658599978	106.929644099961
21599.75	0.0999857999850065	413	hunger	stimuli/non_foods\non-food_animate_elephant.jpg	1	3	1	non-food_animate_elephant	0	W	16	0	111	0		0	0	106.979659000004	107.079644799989
21637.25	0.100008499983232	414	hunger	stimuli/foods\peas.jpg	1	3	1	peas	1	J	6	0	240	0		0	0	107.129657100013	107.229665599996
21674.75	0.0999807000043802	415	hunger	stimuli/non_foods\non-food_inanimate_orchid.jpg	1	3	1	non-food_inanimate_orchid	0	H	5	0	198	0		0	0	107.27966369997	107.379644399974
21712.25	0.0999718999955803	416	hunger	stimuli/non_foods\non-food_inanimate_nettle.jpg	1	3	1	non-food_inanimate_nettle	0	N	10	0	197	0		0	0	107.429665500007	107.529637400003
21749.75	0.0999844000325538	417	hunger	stimuli/non_foods\non-food_animate_llama.jpg	1	3	1	non-food_animate_llama	0	F	3	0	127	0		0	0	107.579650999978	107.679635400011
21787.25	0.0999892000108957	418	hunger	stimuli/foods\baked_cod_with_carrots_and_green_beans.jpg	1	3	1	baked_cod_with_carrots_and_green_beans	1	P	11	0	7	0		0	0	107.729650099995	107.829639300006
21824.75	0.0999882000032812	419	hunger	stimuli/foods\potato_and_green_bean_salad.jpg	1	3	1	potato_and_green_bean_salad	1	Z	18	0	246	0		0	0	107.879650899966	107.979639099969
22237.25	0.0999774999800138	420	hunger	stimuli/foods\risotto_with_zucchini.jpg	1	4	1	risotto_with_zucchini	1	K	7	0	260	0		0	0	109.529634999984	109.629612499964
22274.75	0.0999628000427037	421	hunger	stimuli/foods\rice.jpg	1	4	1	rice	1	J	6	0	257	0		0	0	109.679652599967	109.77961540001
22312.25	0.0999844999751076	422	hunger	stimuli/foods\green_olives.jpg	1	4	1	green_olives	1	C	1	0	62	0		0	0	109.829631400004	109.929615899979
22349.75	0.0999911000253633	423	hunger	stimuli/non_foods\non-food_animate_german_shepherd.jpg	1	4	1	non-food_animate_german_shepherd	0	P	11	0	114	0		0	0	109.979630599963	110.079621699988
22387.25	0.0999861000454985	424	hunger	stimuli/non_foods\non-food_inanimate_hammer.jpg	1	4	1	non-food_inanimate_hammer	0	C	1	0	186	0		0	0	110.129626599955	110.229612700001
22424.75	0.0999907000223175	425	hunger	stimuli/non_foods\non-food_inanimate_stapler.jpg	1	4	1	non-food_inanimate_stapler	0	V	15	0	213	0		0	0	110.279625099967	110.37961579999
22462.25	0.0999794999952428	426	hunger	stimuli/non_foods\non-food_inanimate_ring.jpg	1	4	1	non-food_inanimate_ring	0	C	1	0	203	0		0	0	110.429626500001	110.529605999996
22499.75	0.099984799977392	427	hunger	stimuli/non_foods\non-food_animate_skunk.jpg	1	4	1	non-food_animate_skunk	0	D	2	0	147	0		0	0	110.579624000005	110.679608799983
22537.25	0.100001999991946	428	hunger	stimuli/non_foods\non-food_animate_clown.jpg	1	4	1	non-food_animate_clown	0	M	9	0	102	0		0	0	110.729606500012	110.829608500004
22574.75	0.0999864999903366	429	hunger	stimuli/non_foods\non-food_inanimate_bowling_ball.jpg	1	4	1	non-food_inanimate_bowling_ball	0	L	8	0	162	0		0	0	110.879617700004	110.979604199994
22612.25	0.099985699984245	430	hunger	stimuli/foods\mussels.jpg	1	4	1	mussels	1	V	15	0	86	0		0	0	111.029619499983	111.129605199967
22649.75	0.0999881000025198	431	hunger	stimuli/non_foods\non-food_animate_porcupine.jpg	1	4	1	non-food_animate_porcupine	0	G	4	0	138	0		0	0	111.17961739999	111.279605499993
22687.25	0.100003800005652	432	hunger	stimuli/foods\apple.jpg	1	4	1	apple	1	B	0	0	1	0		0	0	111.329641199962	111.429644999967
22724.75	0.0999599000206217	433	hunger	stimuli/non_foods\non-food_animate_squirrel.jpg	1	4	1	non-food_animate_squirrel	0	C	1	0	150	0		0	0	111.479640299978	111.579600199999
22762.25	0.0999797999975272	434	hunger	stimuli/foods\beetroots.jpg	1	4	1	beetroots	1	X	17	0	10	0		0	0	111.629616299993	111.729596099991
22799.75	0.0999817999545485	435	hunger	stimuli/foods\fried_zucchini.jpg	1	4	1	fried_zucchini	1	N	10	0	51	0		0	0	111.779614300001	111.879596099956
22837.25	0.0999699999811128	436	hunger	stimuli/foods\mortadella.jpg	1	4	1	mortadella	1	F	3	0	83	0		0	0	111.9296264	112.029596399982
22874.75	0.0999838000279851	437	hunger	stimuli/non_foods\non-food_inanimate_cap.jpg	1	4	1	non-food_inanimate_cap	0	T	14	0	171	0		0	0	112.07961039996	112.179594199988
22912.25	0.0999905000207946	438	hunger	stimuli/non_foods\non-food_animate_sea_lion.jpg	1	4	1	non-food_animate_sea_lion	0	K	7	0	143	0		0	0	112.229608899972	112.329599399993
22949.75	0.0999832000234164	439	hunger	stimuli/non_foods\non-food_inanimate_bush.jpg	1	4	1	non-food_inanimate_bush	0	T	14	0	167	0		0	0	112.379608099989	112.479591300013
22987.25	0.0999715000507422	440	hunger	stimuli/foods\chilli.jpg	1	4	1	chilli	1	L	8	0	25	0		0	0	112.529616399959	112.62958790001
23024.75	0.0999812000081874	441	hunger	stimuli/non_foods\non-food_animate_tortoise.jpg	1	4	1	non-food_animate_tortoise	0	J	6	0	153	0		0	0	112.679607999977	112.779589199985
23062.25	0.0999861999880522	442	hunger	stimuli/foods\raw_sausage.jpg	1	4	1	raw_sausage	1	G	4	0	254	0		0	0	112.82960170001	112.929587899998
23099.75	0.0999861999880522	443	hunger	stimuli/foods\cauliflower.jpg	1	4	1	cauliflower	1	K	7	0	20	0		0	0	112.979601999978	113.079588199966
23137.25	0.099988600006327	444	hunger	stimuli/foods\broccoli.jpg	1	4	1	broccoli	1	V	15	0	13	0		0	0	113.12961579999	113.229604399996
23174.75	0.0999732000054792	445	hunger	stimuli/non_foods\non-food_inanimate_moss.jpg	1	4	1	non-food_inanimate_moss	0	C	1	0	194	0		0	0	113.279609099962	113.379582299967
23212.25	0.0999830999644473	446	hunger	stimuli/non_foods\non-food_animate_ant.jpg	1	4	1	non-food_animate_ant	0	Z	18	0	91	0		0	0	113.429597200011	113.529580299975
23249.75	0.0999821000150405	447	hunger	stimuli/non_foods\non-food_animate_bat.jpg	1	4	1	non-food_animate_bat	0	P	11	0	94	0		0	0	113.579596199968	113.679578299983
23287.25	0.0999865000485443	448	hunger	stimuli/non_foods\non-food_inanimate_nest.jpg	1	4	1	non-food_inanimate_nest	0	Z	18	0	196	0		0	0	113.729591699957	113.829578200006
23324.75	0.0999845999758691	449	hunger	stimuli/foods\kiwi.jpg	1	4	1	kiwi	1	M	9	0	69	0		0	0	113.879593799997	113.979578399973
23362.25	0.0999822000158019	450	hunger	stimuli/foods\blackberry.jpg	1	4	1	blackberry	1	C	1	0	11	0		0	0	114.029590799997	114.129573000013
23399.75	0.100019000004977	451	hunger	stimuli/non_foods\non-food_animate_monkey.jpg	1	4	1	non-food_animate_monkey	0	P	11	0	130	0		0	0	114.179590899963	114.279609899968
23437.25	0.0999869999941438	452	hunger	stimuli/non_foods\non-food_inanimate_briefcase.jpg	1	4	1	non-food_inanimate_briefcase	0	G	4	0	163	0		0	0	114.329586000007	114.429573000001
23474.75	0.0999799999990501	453	hunger	stimuli/foods\prawn.jpg	1	4	1	prawn	1	R	12	0	249	0		0	0	114.479586199974	114.579566199973
23512.25	0.0999833999667317	454	hunger	stimuli/foods\green_beans.jpg	1	4	1	green_beans	1	G	4	0	61	0		0	0	114.629579600005	114.729562999972
23549.75	0.099982799962163	455	hunger	stimuli/non_foods\non-food_animate_hummingbird.jpg	1	4	1	non-food_animate_hummingbird	0	F	3	0	120	0		0	0	114.779577500012	114.879560299974
23587.25	0.0999751000199467	456	hunger	stimuli/foods\pomegranate.jpg	1	4	1	pomegranate	1	K	7	0	244	0		0	0	114.929584299971	115.029559399991
23624.75	0.099991700029932	457	hunger	stimuli/foods\potatoes.jpg	1	4	1	potatoes	1	B	0	0	248	0		0	0	115.079573699972	115.179565400002
23662.25	0.0999984000227414	458	hunger	stimuli/foods\smoked_ham.jpg	1	4	1	smoked_ham	1	R	12	0	266	0		0	0	115.22957809997	115.329576499993
23699.75	0.0999852999811992	459	hunger	stimuli/foods\celery.jpg	1	4	1	celery	1	C	1	0	21	0		0	0	115.3795789	115.479564199981
23737.25	0.0999863999895751	460	hunger	stimuli/non_foods\non-food_animate_donkey.jpg	1	4	1	non-food_animate_donkey	0	G	4	0	107	0		0	0	115.529573399981	115.629559799971
23774.75	0.0999862000462599	461	hunger	stimuli/non_foods\non-food_inanimate_jeans.jpg	1	4	1	non-food_inanimate_jeans	0	F	3	0	191	0		0	0	115.679575999966	115.779562200012
23812.25	0.0999814000097103	462	hunger	stimuli/non_foods\non-food_animate_Causasian_man.jpg	1	4	1	non-food_animate_Causasian_man	0	T	14	0	89	0		0	0	115.829577600001	115.929559000011
23849.75	0.100007799977902	463	hunger	stimuli/non_foods\non-food_animate_frog.jpg	1	4	1	non-food_animate_frog	0	M	9	0	113	0		0	0	115.979571999982	116.07957979996
23887.25	0.0999653000035323	464	hunger	stimuli/non_foods\non-food_animate_grasshopper.jpg	1	4	1	non-food_animate_grasshopper	0	X	17	0	117	0		0	0	116.129592299985	116.229557599989
23924.75	0.0999875999987125	465	hunger	stimuli/non_foods\non-food_inanimate_couch.jpg	1	4	1	non-food_inanimate_couch	0	V	15	0	176	0		0	0	116.279568800004	116.379556400003
23962.25	0.0999850000371225	466	hunger	stimuli/non_foods\non-food_animate_gorilla.jpg	1	4	1	non-food_animate_gorilla	0	E	20	1	116	0		0	0	116.429567999963	116.529553
23999.75	0.0999864999903366	467	hunger	stimuli/non_foods\non-food_animate_runner.jpg	1	4	1	non-food_animate_runner	0	W	16	0	142	0		0	0	116.579567899986	116.679554399976
24037.25	0.100005100015551	468	hunger	stimuli/non_foods\non-food_inanimate_cupboard.jpg	1	4	1	non-food_inanimate_cupboard	0	K	7	0	177	1	a	0.402221399999689	1	116.72956149996	116.829566599976
24074.75	0.0999693000339903	469	hunger	stimuli/non_foods\non-food_inanimate_tree.jpg	1	4	1	non-food_inanimate_tree	0	C	1	0	223	0		0	0	116.879581199959	116.979550499993
24112.25	0.099984000029508	470	hunger	stimuli/foods\fruit_salad.jpg	1	4	1	fruit_salad	1	L	8	0	55	0		0	0	117.029564899975	117.129548900004
24149.75	0.0999849000363611	471	hunger	stimuli/foods\coffee_beans.jpg	1	4	1	coffee_beans	1	N	10	0	34	0		0	0	117.179560799967	117.279545700003
24187.25	0.0999753999640234	472	hunger	stimuli/foods\cream_donuts.jpg	1	4	1	cream_donuts	1	C	1	0	39	0		0	0	117.329569499998	117.429544899962
24224.75	0.0999847000348382	473	hunger	stimuli/non_foods\non-food_animate_sea_turtle.jpg	1	4	1	non-food_animate_sea_turtle	0	B	0	0	144	0		0	0	117.479556099977	117.579540800012
24262.25	0.0999843999743462	474	hunger	stimuli/non_foods\non-food_animate_dragonfly.jpg	1	4	1	non-food_animate_dragonfly	0	M	9	0	108	0		0	0	117.629557100008	117.729541499983
24299.75	0.0999869999941438	475	hunger	stimuli/non_foods\non-food_animate_seahorse.jpg	1	4	1	non-food_animate_seahorse	0	H	5	0	145	0		0	0	117.779555599962	117.879542599956
24337.25	0.0999818000127561	476	hunger	stimuli/foods\lettuce.jpg	1	4	1	lettuce	1	R	12	0	75	0		0	0	117.929555299983	118.029537099996
24374.75	0.0999840999720618	477	hunger	stimuli/foods\hamburger.jpg	1	4	1	hamburger	1	C	1	0	64	0		0	0	118.079553299991	118.179537399963
24412.25	0.0999935999861918	478	hunger	stimuli/non_foods\non-food_inanimate_bamboo.jpg	1	4	1	non-food_inanimate_bamboo	0	M	9	0	159	0		0	0	118.229549599986	118.329543199972
24449.75	0.0999720999971032	479	hunger	stimuli/foods\savory_pie.jpg	1	4	1	savory_pie	1	J	6	0	265	0		0	0	118.379549000005	118.479521100002
24487.25	0.0999991999706253	480	hunger	stimuli/foods\avocado.jpg	1	4	1	avocado	1	K	7	0	5	0		0	0	118.529529099993	118.629528299964
24524.75	0.099992299976293	481	hunger	stimuli/foods\chocolate_pudding.jpg	1	4	1	chocolate_pudding	1	M	9	0	29	0		0	0	118.679540599987	118.779532899964
24562.25	0.0999635999905877	482	hunger	stimuli/non_foods\non-food_inanimate_tent.jpg	1	4	1	non-food_inanimate_tent	0	D	2	0	219	0		0	0	118.829544499982	118.929508099973
24599.75	0.0999817999545485	483	hunger	stimuli/non_foods\non-food_animate_young_boy.jpg	1	4	1	non-food_animate_young_boy	0	W	16	0	156	0		0	0	118.979544200003	119.079525999958
24637.25	0.0999858999857679	484	hunger	stimuli/foods\cooked_prawn.jpg	1	4	1	cooked_prawn	1	H	5	0	36	0		0	0	119.129541000002	119.229526899988
24674.75	0.0999869999941438	485	hunger	stimuli/foods\egg.jpg	1	4	1	egg	1	L	8	0	45	0		0	0	119.279541799973	119.379528799967
24712.25	0.0999849999789149	486	hunger	stimuli/non_foods\non-food_inanimate_rope.jpg	1	4	1	non-food_inanimate_rope	0	M	9	0	204	0		0	0	119.42953959998	119.529524599959
24749.75	0.099989700014703	487	hunger	stimuli/non_foods\non-food_inanimate_wrench.jpg	1	4	1	non-food_inanimate_wrench	0	R	12	0	227	0		0	0	119.57953529997	119.679524999985
24787.25	0.100002899998799	488	hunger	stimuli/foods\coconut.jpg	1	4	1	coconut	1	N	10	0	33	0		0	0	119.729519399989	119.829522299988
24824.75	0.0999860999872908	489	hunger	stimuli/foods\onion.jpg	1	4	1	onion	1	K	7	0	229	0		0	0	119.879534000007	119.979520099994
24862.25	0.0999840999720618	490	hunger	stimuli/non_foods\non-food_animate_ladybug.jpg	1	4	1	non-food_animate_ladybug	0	M	9	0	124	0		0	0	120.02953639999	120.129520499962
24899.75	0.0999861000454985	491	hunger	stimuli/non_foods\non-food_animate_duck.jpg	1	4	1	non-food_animate_duck	0	V	15	0	109	0		0	0	120.179528999957	120.279515100003
24937.25	0.0999358000117354	492	hunger	stimuli/foods\spring_onions.jpg	1	4	1	spring_onions	1	L	8	0	269	0		0	0	120.329581499973	120.429517299985
24974.75	0.0999826000188477	493	hunger	stimuli/foods\rockmelon.jpg	1	4	1	rockmelon	1	N	10	0	262	0		0	0	120.479530299956	120.579512899974
25012.25	0.0999849000363611	494	hunger	stimuli/foods\cherry.jpg	1	4	1	cherry	1	X	17	0	23	0		0	0	120.629527199955	120.729512099992
25049.75	0.0999905000207946	495	hunger	stimuli/foods\artichoke.jpg	1	4	1	artichoke	1	B	0	0	3	0		0	0	120.779528599989	120.87951910001
25087.25	0.0999867999926209	496	hunger	stimuli/foods\museli_bars.jpg	1	4	1	museli_bars	1	G	4	0	84	0		0	0	120.92952299997	121.029509799962
25124.75	0.0999844999751076	497	hunger	stimuli/non_foods\non-food_inanimate_fern.jpg	1	4	1	non-food_inanimate_fern	0	C	1	0	180	0		0	0	121.079524000001	121.179508499976
25162.25	0.0999884000048041	498	hunger	stimuli/non_foods\non-food_animate_giraffe.jpg	1	4	1	non-food_animate_giraffe	0	N	10	0	115	0		0	0	121.229523099959	121.329511499964
25199.75	0.099985100037884	499	hunger	stimuli/non_foods\non-food_animate_woman.jpg	1	4	1	non-food_animate_woman	0	M	9	0	154	0		0	0	121.379520399962	121.4795055
25237.25	0.099988600006327	500	hunger	stimuli/foods\chocolate_bar.jpg	1	4	1	chocolate_bar	1	K	7	0	26	0		0	0	121.529518099967	121.629506699974
25274.75	0.099986599991098	501	hunger	stimuli/foods\brussel_sprouts.jpg	1	4	1	brussel_sprouts	1	Z	18	0	15	0		0	0	121.679517299985	121.779503899976
25312.25	0.0999843999743462	502	hunger	stimuli/non_foods\non-food_inanimate_watering_can.jpg	1	4	1	non-food_inanimate_watering_can	0	H	5	0	225	0		0	0	121.829516900005	121.929501299979
25349.75	0.10000229999423	503	hunger	stimuli/foods\lollies.jpg	1	4	1	lollies	1	K	7	0	78	0		0	0	121.979518299981	122.079520599975
25387.25	0.0999406999908388	504	hunger	stimuli/non_foods\non-food_inanimate_shell.jpg	1	4	1	non-food_inanimate_shell	0	J	6	0	206	0		0	0	122.129556300002	122.229496999993
25424.75	0.0999880000017583	505	hunger	stimuli/non_foods\non-food_inanimate_protractor.jpg	1	4	1	non-food_inanimate_protractor	0	F	3	0	201	0		0	0	122.279511799978	122.379499799979
25462.25	0.0999795999960043	506	hunger	stimuli/foods\orange.jpg	1	4	1	orange	1	T	14	0	230	0		0	0	122.429514299962	122.529493899958
25499.75	0.0999839999713004	507	hunger	stimuli/non_foods\non-food_animate_yellow_bug.jpg	1	4	1	non-food_animate_yellow_bug	0	K	7	0	155	0		0	0	122.579507999995	122.679491999967
25537.25	0.0999855000409298	508	hunger	stimuli/non_foods\non-food_inanimate_padlock.jpg	1	4	1	non-food_inanimate_padlock	0	J	6	0	199	0		0	0	122.729508399963	122.829493900004
25574.75	0.0999819000135176	509	hunger	stimuli/foods\spaghetti_with_meat_sauce.jpg	1	4	1	spaghetti_with_meat_sauce	1	S	13	0	267	0		0	0	122.879508499987	122.979490400001
25612.25	0.0999862999888137	510	hunger	stimuli/non_foods\non-food_inanimate_drum_set.jpg	1	4	1	non-food_inanimate_drum_set	0	F	3	0	179	0		0	0	123.029504899983	123.129491199972
25649.75	0.0999662000103854	511	hunger	stimuli/non_foods\non-food_inanimate_grass.jpg	1	4	1	non-food_inanimate_grass	0	J	6	0	184	0		0	0	123.179521199956	123.279487399966
25687.25	0.0999793999944814	512	hunger	stimuli/non_foods\non-food_animate_camel.jpg	1	4	1	non-food_animate_camel	0	G	4	0	97	0		0	0	123.329507899994	123.429487299989
25724.75	0.0999883000040427	513	hunger	stimuli/non_foods\non-food_animate_deer.jpg	1	4	1	non-food_animate_deer	0	S	13	0	105	0		0	0	123.479498100001	123.579486400005
25762.25	0.0999835000257008	514	hunger	stimuli/foods\salami.jpg	1	4	1	salami	1	H	5	0	263	0		0	0	123.629499699979	123.729483200004
25799.75	0.100012000009883	515	hunger	stimuli/foods\wafer.jpg	1	4	1	wafer	1	D	2	0	277	0		0	0	123.779510299966	123.879522299976
25837.25	0.0999783000443131	516	hunger	stimuli/foods\raw_ham.jpg	1	4	1	raw_ham	1	S	13	0	253	0		0	0	123.929506099958	124.029484400002
25874.75	0.0999819000135176	517	hunger	stimuli/foods\red_cabbage.jpg	1	4	1	red_cabbage	1	M	9	0	256	0		0	0	124.079496899969	124.179478799982
25912.25	0.0999904000200331	518	hunger	stimuli/foods\bagel.jpg	1	4	1	bagel	1	S	13	0	6	0		0	0	124.229494199972	124.329484599992
25949.75	0.0999839999713004	519	hunger	stimuli/non_foods\non-food_inanimate_clover.jpg	1	4	1	non-food_inanimate_clover	0	J	6	0	174	0		0	0	124.379494299996	124.479478299967
25987.25	0.0999825999606401	520	hunger	stimuli/foods\spinach.jpg	1	4	1	spinach	1	N	10	0	268	0		0	0	124.529491499998	124.629474099958
26024.75	0.0999861000454985	521	hunger	stimuli/foods\oven-roasted_tomatoes.jpg	1	4	1	oven-roasted_tomatoes	1	R	12	0	232	0		0	0	124.67949109996	124.779477200005
26062.25	0.0999839000287466	522	hunger	stimuli/non_foods\non-food_animate_pigeon.jpg	1	4	1	non-food_animate_pigeon	0	H	5	0	136	0		0	0	124.829488899966	124.929472799995
26099.75	0.099965000001248	523	hunger	stimuli/foods\croissant.jpg	1	4	1	croissant	1	W	16	0	40	0		0	0	124.979505099996	125.079470099998
26137.25	0.0999829000211321	524	hunger	stimuli/foods\roasted_chicken.jpg	1	4	1	roasted_chicken	1	T	14	0	261	0		0	0	125.129489399958	125.22947229998
26174.75	0.0999873999971896	525	hunger	stimuli/non_foods\non-food_animate_caterpillar.jpg	1	4	1	non-food_animate_caterpillar	0	L	8	0	99	0		0	0	125.279481899983	125.37946929998
26212.25	0.0999815000104718	526	hunger	stimuli/foods\oregano.jpg	1	4	1	oregano	1	M	9	0	231	0		0	0	125.429485699977	125.529467199987
26249.75	0.0999966000090353	527	hunger	stimuli/foods\apricot.jpg	1	4	1	apricot	1	W	16	0	2	0		0	0	125.579496599967	125.679493199976
26287.25	0.0999490999965928	528	hunger	stimuli/foods\pasta_carbonara.jpg	1	4	1	pasta_carbonara	1	G	4	0	236	0		0	0	125.729515999963	125.82946509996
26324.75	0.0999739000108093	529	hunger	stimuli/foods\lime.jpg	1	4	1	lime	1	S	13	0	76	0		0	0	125.879482399963	125.979456299974
26362.25	0.0999874999979511	530	hunger	stimuli/non_foods\non-food_animate_horse.jpg	1	4	1	non-food_animate_horse	0	J	6	0	119	0		0	0	126.029463299958	126.129450799956
26399.75	0.0999842999735847	531	hunger	stimuli/foods\meatballs.jpg	1	4	1	meatballs	1	S	13	0	81	0		0	0	126.179471799987	126.279456099961
26437.25	0.0999901000177488	532	hunger	stimuli/non_foods\non-food_animate_rhino.jpg	1	4	1	non-food_animate_rhino	0	G	4	0	141	0		0	0	126.329467299976	126.429457399994
26474.75	0.0999846000340767	533	hunger	stimuli/non_foods\non-food_inanimate_sun_flower.jpg	1	4	1	non-food_inanimate_sun_flower	0	L	8	0	216	0		0	0	126.479471299972	126.579455900006
26512.25	0.0999870999949053	534	hunger	stimuli/non_foods\non-food_inanimate_skirt.jpg	1	4	1	non-food_inanimate_skirt	0	H	5	0	209	0		0	0	126.629469999985	126.72945709998
26549.75	0.0999757000245154	535	hunger	stimuli/non_foods\non-food_inanimate_broom.jpg	1	4	1	non-food_inanimate_broom	0	O	22	1	164	0		0	0	126.779480399971	126.879456099996
26587.25	0.099974500015378	536	hunger	stimuli/non_foods\non-food_inanimate_desk.jpg	1	4	1	non-food_inanimate_desk	0	G	4	0	178	0		0	0	126.929468699964	127.029443199979
26624.75	0.0999861999880522	537	hunger	stimuli/foods\pumpkin.jpg	1	4	1	pumpkin	1	L	8	0	250	0		0	0	127.079467999982	127.17945419997
26662.25	0.0999889000086114	538	hunger	stimuli/non_foods\non-food_animate_swan.jpg	1	4	1	non-food_animate_swan	0	F	3	0	152	1	a	0.541811600036453	1	127.229465699987	127.329454599996
26699.75	0.0999984999652952	539	hunger	stimuli/foods\swordfish.jpg	1	4	1	swordfish	1	T	14	0	273	0		0	0	127.379464800004	127.479463299969
26737.25	0.0999584000092	540	hunger	stimuli/foods\cooked_ham.jpg	1	4	1	cooked_ham	1	B	0	0	35	0		0	0	127.529487599968	127.629445999977
26774.75	0.0999863000470214	541	hunger	stimuli/non_foods\non-food_animate_millipede.jpg	1	4	1	non-food_animate_millipede	0	M	9	0	129	0		0	0	127.679460699961	127.779447000008
26812.25	0.0999867999926209	542	hunger	stimuli/non_foods\non-food_animate_baby_crawling.jpg	1	4	1	non-food_animate_baby_crawling	0	J	6	0	92	0		0	0	127.829459599976	127.929446399969
26849.75	0.0999826999614015	543	hunger	stimuli/non_foods\non-food_inanimate_leaf.jpg	1	4	1	non-food_inanimate_leaf	0	F	3	0	192	0		0	0	127.979460200004	128.079442899965
26887.25	0.099983100022655	544	hunger	stimuli/foods\hotdog.jpg	1	4	1	hotdog	1	N	10	0	67	0		0	0	128.129458899959	128.229441999982
26924.75	0.0999857000424527	545	hunger	stimuli/foods\cracker.jpg	1	4	1	cracker	1	B	0	0	38	0		0	0	128.279456899967	128.379442600009
26962.25	0.100003700004891	546	hunger	stimuli/foods\rice_cake.jpg	1	4	1	rice_cake	1	L	8	0	258	0		0	0	128.429453799967	128.529457499972
26999.75	0.0999731000047177	547	hunger	stimuli/non_foods\non-food_inanimate_highlighter.jpg	1	4	1	non-food_inanimate_highlighter	0	F	3	0	189	0		0	0	128.579464799957	128.679437899962
27037.25	0.0999800999998115	548	hunger	stimuli/non_foods\non-food_animate_raccoon.jpg	1	4	1	non-food_animate_raccoon	0	G	4	0	139	0		0	0	128.729454999964	128.829435099964
27074.75	0.0999869999941438	549	hunger	stimuli/foods\cucumber.jpg	1	4	1	cucumber	1	W	16	0	41	0		0	0	128.87945030001	128.979437300004
27112.25	0.0999871999956667	550	hunger	stimuli/foods\clams.jpg	1	4	1	clams	1	P	11	0	32	0		0	0	129.029448999965	129.129436199961
27149.75	0.0999717999948189	551	hunger	stimuli/non_foods\non-food_inanimate_bucket.jpg	1	4	1	non-food_inanimate_bucket	0	H	5	0	165	0		0	0	129.179474100005	129.2794459
27187.25	0.0999673999613151	552	hunger	stimuli/non_foods\non-food_animate_alligator.jpg	1	4	1	non-food_animate_alligator	0	F	3	0	90	0		0	0	129.329471200006	129.429438599967
27224.75	0.0999502000049688	553	hunger	stimuli/non_foods\non-food_inanimate_hay.jpg	1	4	1	non-food_inanimate_hay	0	B	0	0	187	0		0	0	129.479449899984	129.579400099989
27262.25	0.0999812000081874	554	hunger	stimuli/foods\mango.jpg	1	4	1	mango	1	V	15	0	80	0		0	0	129.629433299997	129.729414500005
27299.75	0.0999819000135176	555	hunger	stimuli/non_foods\non-food_animate_cow.jpg	1	4	1	non-food_animate_cow	0	Z	18	0	103	0		0	0	129.779434999975	129.879416899988
27337.25	0.100010299996939	556	hunger	stimuli/foods\cupcake.jpg	1	4	1	cupcake	1	P	11	0	42	0		0	0	129.929416799976	130.029427099973
27374.75	0.0999847000348382	557	hunger	stimuli/non_foods\non-food_animate_bee.jpg	1	4	1	non-food_animate_bee	0	J	6	0	95	0		0	0	130.079442399961	130.179427099996
27412.25	0.100011900009122	558	hunger	stimuli/foods\carrot.jpg	1	4	1	carrot	1	F	3	0	19	0		0	0	130.229436399997	130.329448300006
27449.75	0.099961899977643	559	hunger	stimuli/foods\watermelon.jpg	1	4	1	watermelon	1	K	7	0	279	0		0	0	130.379430999979	130.479392899957
27829	0.0999798999982886	560	hunger	stimuli/non_foods\non-food_inanimate_pine_cone.jpg	1	5	1	non-food_inanimate_pine_cone	0	X	17	0	200	0		0	0	131.896095499978	131.996075399977
27866.5	0.099971599993296	561	hunger	stimuli/foods\spring_onions.jpg	1	5	1	spring_onions	1	R	12	0	269	0		0	0	132.046091699973	132.146063299966
27904	0.099956399993971	562	hunger	stimuli/foods\red_cabbage.jpg	1	5	1	red_cabbage	1	P	11	0	256	0		0	0	132.196105899988	132.296062299982
27941.5	0.0999973000143655	563	hunger	stimuli/foods\steak.jpg	1	5	1	steak	1	N	10	0	270	0		0	0	132.346071999986	132.4460693
27979	0.0999889999511652	564	hunger	stimuli/non_foods\non-food_animate_deer.jpg	1	5	1	non-food_animate_deer	0	V	15	0	105	0		0	0	132.496079000004	132.596067999955
28016.5	0.099990600021556	565	hunger	stimuli/foods\pineapple.jpg	1	5	1	pineapple	1	M	9	0	243	0		0	0	132.64608179999	132.746072400012
28054	0.0999794999952428	566	hunger	stimuli/non_foods\non-food_animate_duck.jpg	1	5	1	non-food_animate_duck	0	W	16	0	109	0		0	0	132.796077199979	132.896056699974
28091.5	0.0999952999991365	567	hunger	stimuli/foods\rice.jpg	1	5	1	rice	1	V	15	0	257	0		0	0	132.946071999962	133.046067299962
28129	0.0999944000504911	568	hunger	stimuli/foods\ice_cream.jpg	1	5	1	ice_cream	1	N	10	0	68	0		0	0	133.096060499956	133.196054900007
28166.5	0.0999821000150405	569	hunger	stimuli/foods\pork_and_rice.jpg	1	5	1	pork_and_rice	1	G	4	0	245	0		0	0	133.246069699991	133.346051800007
28204	0.099987699999474	570	hunger	stimuli/non_foods\non-food_animate_ant.jpg	1	5	1	non-food_animate_ant	0	X	17	0	91	0		0	0	133.396066299989	133.496053999988
28241.5	0.0999804000020958	571	hunger	stimuli/foods\red_beans.jpg	1	5	1	red_beans	1	B	0	0	255	0		0	0	133.546067399962	133.646047799964
28279	0.099990299961064	572	hunger	stimuli/non_foods\non-food_inanimate_broom.jpg	1	5	1	non-food_inanimate_broom	0	M	9	0	164	0		0	0	133.696061800001	133.796052099962
28316.5	0.0999775999807753	573	hunger	stimuli/foods\cupcake.jpg	1	5	1	cupcake	1	G	4	0	42	0		0	0	133.846064799989	133.94604239997
28354	0.0999812000081874	574	hunger	stimuli/foods\asparagus.jpg	1	5	1	asparagus	1	M	9	0	4	0		0	0	133.996071100002	134.09605230001
28391.5	0.0999861999880522	575	hunger	stimuli/foods\rockmelon.jpg	1	5	1	rockmelon	1	B	0	0	262	0		0	0	134.146066999994	134.246053199982
28429	0.0999833000241779	576	hunger	stimuli/foods\lamb_chops.jpg	1	5	1	lamb_chops	1	F	3	0	70	0		0	0	134.296066599956	134.39604989998
28466.5	0.0999868999933824	577	hunger	stimuli/non_foods\non-food_animate_mammoth.jpg	1	5	1	non-food_animate_mammoth	0	C	1	0	128	0		0	0	134.446060099988	134.546046999982
28504	0.0999777999822982	578	hunger	stimuli/foods\coconut.jpg	1	5	1	coconut	1	Z	18	0	33	0		0	0	134.596054999973	134.696032799955
28541.5	0.100006399967242	579	hunger	stimuli/non_foods\non-food_animate_seahorse.jpg	1	5	1	non-food_animate_seahorse	0	C	1	0	145	0		0	0	134.746039699996	134.846046099963
28579	0.0999967000097968	580	hunger	stimuli/non_foods\non-food_animate_woman.jpg	1	5	1	non-food_animate_woman	0	S	13	0	154	0		0	0	134.896051899996	134.996048600005
28616.5	0.0999971000128426	581	hunger	stimuli/foods\hazelnuts.jpg	1	5	1	hazelnuts	1	V	15	0	65	0		0	0	135.046048499993	135.146045600006
28654	0.0999817000119947	582	hunger	stimuli/foods\raisins.jpg	1	5	1	raisins	1	N	10	0	252	0		0	0	135.196057299967	135.296038999979
28691.5	0.0999843000317924	583	hunger	stimuli/non_foods\non-food_inanimate_lighter.jpg	1	5	1	non-food_inanimate_lighter	0	L	8	0	193	0		0	0	135.346047899977	135.446032200009
28729	0.099989700014703	584	hunger	stimuli/foods\watermelon.jpg	1	5	1	watermelon	1	H	5	0	279	0		0	0	135.496037799981	135.596027499996
28766.5	0.099981100007426	585	hunger	stimuli/foods\strawberry.jpg	1	5	1	strawberry	1	P	11	0	272	0		0	0	135.646055099962	135.746036199969
28804	0.0999850999796763	586	hunger	stimuli/non_foods\non-food_animate_bat.jpg	1	5	1	non-food_animate_bat	0	I	21	1	94	0		0	0	135.796055599989	135.896040699969
28841.5	0.0999843000317924	587	hunger	stimuli/foods\oyster.jpg	1	5	1	oyster	1	Z	18	0	233	0		0	0	135.946058299975	136.046042600006
28879	0.0999844999751076	588	hunger	stimuli/non_foods\non-food_inanimate_folding_chair.jpg	1	5	1	non-food_inanimate_folding_chair	0	S	13	0	182	0		0	0	136.096048799984	136.196033299959
28916.5	0.0999821999575943	589	hunger	stimuli/foods\fried_zucchini.jpg	1	5	1	fried_zucchini	1	N	10	0	51	0		0	0	136.246048900008	136.346031099965
28954	0.0999755000229925	590	hunger	stimuli/foods\cinnamon.jpg	1	5	1	cinnamon	1	X	17	0	30	1	a	0.59320880001178	1	136.396048199967	136.49602369999
28991.5	0.0999873000546359	591	hunger	stimuli/non_foods\non-food_inanimate_watering_can.jpg	1	5	1	non-food_inanimate_watering_can	0	L	8	0	225	0		0	0	136.546035999956	136.646023300011
29029	0.0999846999766305	592	hunger	stimuli/foods\onion.jpg	1	5	1	onion	1	T	14	0	229	0		0	0	136.69603609998	136.796020799957
29066.25	0.100022699974943	593	hunger	stimuli/non_foods\non-food_animate_killer_whale.jpg	1	5	1	non-food_animate_killer_whale	0	Z	18	0	123	0		0	0	136.846013800008	136.946036499983
29104	0.0999889000086114	594	hunger	stimuli/non_foods\non-food_animate_frog.jpg	1	5	1	non-food_animate_frog	0	T	14	0	113	0		0	0	136.996043399966	137.096032299974
29141.5	0.0999729000031948	595	hunger	stimuli/foods\hotdog.jpg	1	5	1	hotdog	1	M	9	0	67	0		0	0	137.146042499982	137.246015399985
29179	0.0999798999982886	596	hunger	stimuli/non_foods\non-food_animate_bee.jpg	1	5	1	non-food_animate_bee	0	G	4	0	95	0		0	0	137.296037999971	137.39601789997
29216.5	0.0999713000492193	597	hunger	stimuli/non_foods\non-food_inanimate_moss.jpg	1	5	1	non-food_inanimate_moss	0	H	5	0	194	0		0	0	137.446041499963	137.546012800012
29254	0.0999817999545485	598	hunger	stimuli/non_foods\non-food_animate_butterfly.jpg	1	5	1	non-food_animate_butterfly	0	V	15	0	96	0		0	0	137.596028100001	137.696009899955
29291.5	0.0999962000059895	599	hunger	stimuli/non_foods\non-food_inanimate_desk.jpg	1	5	1	non-food_inanimate_desk	0	B	0	0	178	0		0	0	137.746024299995	137.846020500001
29329	0.0999902000185102	600	hunger	stimuli/non_foods\non-food_inanimate_tulip.jpg	1	5	1	non-food_inanimate_tulip	0	H	5	0	224	0		0	0	137.896032199962	137.996022399981
29366.5	0.0999854999827221	601	hunger	stimuli/foods\brussel_sprouts.jpg	1	5	1	brussel_sprouts	1	M	9	0	15	0		0	0	138.046031199978	138.14601669996
29404	0.0999883000040427	602	hunger	stimuli/foods\clams.jpg	1	5	1	clams	1	F	3	0	32	0		0	0	138.196032999957	138.296021299961
29441.5	0.0999766000313684	603	hunger	stimuli/non_foods\non-food_inanimate_construction_helment.jpg	1	5	1	non-food_inanimate_construction_helment	0	S	13	0	175	0		0	0	138.346032499976	138.446009100007
29479	0.0999841000302695	604	hunger	stimuli/non_foods\non-food_animate_gorilla.jpg	1	5	1	non-food_animate_gorilla	0	G	4	0	116	0		0	0	138.496021099971	138.596005200001
29516.5	0.099985100037884	605	hunger	stimuli/non_foods\non-food_animate_rhino.jpg	1	5	1	non-food_animate_rhino	0	C	1	0	141	0		0	0	138.646016399958	138.746001499996
29554	0.0999764000298455	606	hunger	stimuli/non_foods\non-food_inanimate_fern.jpg	1	5	1	non-food_inanimate_fern	0	M	9	0	180	0		0	0	138.796014999971	138.895991400001
29591.25	0.100008399982471	607	hunger	stimuli/foods\grapes.jpg	1	5	1	grapes	1	F	3	0	60	0		0	0	138.946005199978	139.04601359996
29629	0.0999477000441402	608	hunger	stimuli/foods\pickles.jpg	1	5	1	pickles	1	X	17	0	242	0		0	0	139.096045999962	139.195993700007
29666.5	0.099999200028833	609	hunger	stimuli/non_foods\non-food_animate_chicken.jpg	1	5	1	non-food_animate_chicken	0	P	11	0	101	0		0	0	139.24599809997	139.345997299999
29704	0.0999853000394069	610	hunger	stimuli/foods\fries.jpg	1	5	1	fries	1	C	1	0	52	0		0	0	139.396010599972	139.495995900012
29741.5	0.099982000014279	611	hunger	stimuli/non_foods\non-food_inanimate_suitcase.jpg	1	5	1	non-food_inanimate_suitcase	0	B	0	0	215	0		0	0	139.546010799997	139.645992800011
29779	0.0999839999713004	612	hunger	stimuli/non_foods\non-food_animate_elephant.jpg	1	5	1	non-food_animate_elephant	0	C	1	0	111	0		0	0	139.696009300009	139.79599329998
29816.5	0.0999830000218935	613	hunger	stimuli/non_foods\non-food_animate_young_girl.jpg	1	5	1	non-food_animate_young_girl	0	B	0	0	157	0		0	0	139.846007299959	139.945990299981
29854	0.0999980000196956	614	hunger	stimuli/foods\brownie.jpg	1	5	1	brownie	1	P	11	0	14	0		0	0	139.996004899964	140.096002899983
29891.5	0.0999866999918595	615	hunger	stimuli/foods\cauliflower.jpg	1	5	1	cauliflower	1	H	5	0	20	0		0	0	140.146012799989	140.245999499981
29929	0.0999855000409298	616	hunger	stimuli/non_foods\non-food_inanimate_padlock.jpg	1	5	1	non-food_inanimate_padlock	0	X	17	0	199	0		0	0	140.296013899962	140.395999400003
29966.5	0.0999842999735847	617	hunger	stimuli/non_foods\non-food_inanimate_skateboard.jpg	1	5	1	non-food_inanimate_skateboard	0	H	5	0	208	0		0	0	140.446013399982	140.545997699955
30004	0.0999868999933824	618	hunger	stimuli/non_foods\non-food_animate_donkey.jpg	1	5	1	non-food_animate_donkey	0	X	17	0	107	0		0	0	140.596006200009	140.695993100002
30041.5	0.0999714999925345	619	hunger	stimuli/foods\wafer.jpg	1	5	1	wafer	1	V	15	0	277	0		0	0	140.746011300012	140.845982800005
30079	0.0999579000053927	620	hunger	stimuli/non_foods\non-food_animate_lion.jpg	1	5	1	non-food_animate_lion	0	W	16	0	125	0		0	0	140.896001599962	140.995959499967
30116.5	0.0999926999793388	621	hunger	stimuli/non_foods\non-food_inanimate_cap.jpg	1	5	1	non-food_inanimate_cap	0	N	10	0	171	0		0	0	141.045996000001	141.14598869998
30154	0.099982799962163	622	hunger	stimuli/foods\minestrone_soup.jpg	1	5	1	minestrone_soup	1	P	11	0	82	0		0	0	141.196008300001	141.295991099963
30191.5	0.0999726000009105	623	hunger	stimuli/non_foods\non-food_animate_giraffe.jpg	1	5	1	non-food_animate_giraffe	0	H	5	0	115	0		0	0	141.346003499988	141.445976099989
30228.75	0.0999738999526016	624	hunger	stimuli/non_foods\non-food_inanimate_bicycle.jpg	1	5	1	non-food_inanimate_bicycle	0	O	22	1	161	0		0	0	141.495988400013	141.595962299965
30266.5	0.0999720999971032	625	hunger	stimuli/foods\raw_ham.jpg	1	5	1	raw_ham	1	M	9	0	253	0		0	0	141.646001699963	141.74597379996
30303.75	0.100013300019782	626	hunger	stimuli/non_foods\non-food_inanimate_rope.jpg	1	5	1	non-food_inanimate_rope	0	P	11	0	204	0		0	0	141.795967799961	141.89598109998
30341.5	0.100014600029681	627	hunger	stimuli/non_foods\non-food_animate_skunk.jpg	1	5	1	non-food_animate_skunk	0	W	16	0	147	1	a	0.541841399972327	1	141.946003099962	142.046017699991
30379	0.099976500030607	628	hunger	stimuli/foods\raw_sausage.jpg	1	5	1	raw_sausage	1	T	14	0	254	0		0	0	142.095992899965	142.195969399996
30416.5	0.0999804000020958	629	hunger	stimuli/non_foods\non-food_animate_dachshund.jpg	1	5	1	non-food_animate_dachshund	0	M	9	0	104	0		0	0	142.245989899966	142.345970299968
30453.75	0.100011500006076	630	hunger	stimuli/non_foods\non-food_inanimate_chandelier.jpg	1	5	1	non-food_inanimate_chandelier	0	B	0	0	173	0		0	0	142.395975299994	142.495986800001
30491.5	0.0999768999754451	631	hunger	stimuli/non_foods\non-food_inanimate_hammer.jpg	1	5	1	non-food_inanimate_hammer	0	J	6	0	186	0		0	0	142.545996500005	142.64597339998
30529	0.0999806000036187	632	hunger	stimuli/non_foods\non-food_animate_young_boy.jpg	1	5	1	non-food_animate_young_boy	0	G	4	0	156	0		0	0	142.695990999986	142.79597159999
30566.5	0.0999713999917731	633	hunger	stimuli/non_foods\non-food_animate_sea_turtle.jpg	1	5	1	non-food_animate_sea_turtle	0	M	9	0	144	0		0	0	142.845988799992	142.945960199984
30603.75	0.0999824000173248	634	hunger	stimuli/non_foods\non-food_inanimate_button.jpg	1	5	1	non-food_inanimate_button	0	D	2	0	168	0		0	0	142.995983099972	143.09596549999
30641.25	0.0999965000082739	635	hunger	stimuli/non_foods\non-food_animate_cat.jpg	1	5	1	non-food_animate_cat	0	V	15	0	98	0		0	0	143.14596569998	143.245962199988
30678.75	0.0999838000279851	636	hunger	stimuli/non_foods\non-food_inanimate_rack.jpg	1	5	1	non-food_inanimate_rack	0	B	0	0	202	0		0	0	143.295974899956	143.395958699984
30716.25	0.0999824000173248	637	hunger	stimuli/foods\artichoke.jpg	1	5	1	artichoke	1	K	7	0	3	0		0	0	143.445975899987	143.545958300005
30753.75	0.100005199958105	638	hunger	stimuli/non_foods\non-food_inanimate_bamboo.jpg	1	5	1	non-food_inanimate_bamboo	0	G	4	0	159	0		0	0	143.595960600011	143.695965799969
30791.25	0.100029800029006	639	hunger	stimuli/non_foods\non-food_animate_monkey.jpg	1	5	1	non-food_animate_monkey	0	C	1	0	130	0		0	0	143.745951199962	143.845980999991
30828.75	0.0999800999998115	640	hunger	stimuli/foods\rice_cake.jpg	1	5	1	rice_cake	1	B	0	0	258	0		0	0	143.895975199994	143.995955299994
30866.5	0.0999926999793388	641	hunger	stimuli/foods\papaya.jpg	1	5	1	papaya	1	M	9	0	235	0		0	0	144.04596660001	144.145959299989
30904	0.0999839000287466	642	hunger	stimuli/foods\lasagna.jpg	1	5	1	lasagna	1	W	16	0	71	0		0	0	144.195971999958	144.295955899986
30941.5	0.0999896000139415	643	hunger	stimuli/foods\cabbage.jpg	1	5	1	cabbage	1	G	4	0	16	0		0	0	144.345970999973	144.445960599987
30978.75	0.100010800000746	644	hunger	stimuli/non_foods\non-food_inanimate_clover.jpg	1	5	1	non-food_inanimate_clover	0	D	2	0	174	0		0	0	144.495944999973	144.595955799974
31016.25	0.0999824000173248	645	hunger	stimuli/foods\lettuce.jpg	1	5	1	lettuce	1	W	16	0	75	0		0	0	144.64597339998	144.745955799997
31053.75	0.0999991000280716	646	hunger	stimuli/non_foods\non-food_inanimate_leaf.jpg	1	5	1	non-food_inanimate_leaf	0	F	3	0	192	0		0	0	144.795944699959	144.895943799987
