onset	duration	eventnumber	hunger_condition	stimfilename	blockno	trialno	is_faststream	stim	food_idx	letter	letter_idx	istarget	image_number	response	keypressed	rt	correct	time_stimon	time_stimoff
10183	0.0999809997156262	0	satiated	stimuli/non_foods\non-food_inanimate_short_sleeved_shirt.jpg	1	1	1	non-food_inanimate_short_sleeved_shirt	0	P	11	0	207	0		0	0	54.133000400383	54.2329814000987
10220.5	0.100037400145084	1	satiated	stimuli/non_foods\non-food_inanimate_watering_can.jpg	1	1	1	non-food_inanimate_watering_can	0	B	0	0	225	0		0	0	54.2829995001666	54.3830369003117
10258	0.100018499884754	2	satiated	stimuli/non_foods\non-food_animate_donkey.jpg	1	1	1	non-food_animate_donkey	0	L	8	0	107	0		0	0	54.4330076002516	54.5330261001363
10295.5	0.099959900137037	3	satiated	stimuli/non_foods\non-food_animate_seal.jpg	1	1	1	non-food_animate_seal	0	S	13	0	146	0		0	0	54.5830165999942	54.6829765001312
10333	0.0999838998541236	4	satiated	stimuli/non_foods\non-food_animate_gorilla.jpg	1	1	1	non-food_animate_gorilla	0	W	16	0	116	0		0	0	54.732990000397	54.8329739002511
10370.5	0.0999843999743462	5	satiated	stimuli/non_foods\non-food_inanimate_highlighter.jpg	1	1	1	non-food_inanimate_highlighter	0	L	8	0	189	0		0	0	54.8829923002049	54.9829767001793
10408	0.0999839003197849	6	satiated	stimuli/foods\pepperoni_pizza.jpg	1	1	1	pepperoni_pizza	1	B	0	0	241	0		0	0	55.032985100057	55.1329690003768
10445.5	0.0999904000200331	7	satiated	stimuli/foods\pineapple.jpg	1	1	1	pineapple	1	L	8	0	243	0		0	0	55.1829858003184	55.2829762003385
10483	0.0999819999560714	8	satiated	stimuli/non_foods\non-food_inanimate_protractor.jpg	1	1	1	non-food_inanimate_protractor	0	X	17	0	201	0		0	0	55.3329854002222	55.4329674001783
10520.5	0.0999821000732481	9	satiated	stimuli/foods\hamburger.jpg	1	1	1	hamburger	1	J	6	0	64	0		0	0	55.4829818001017	55.5829639001749
10558	0.0999771999195218	10	satiated	stimuli/non_foods\non-food_inanimate_horn.jpg	1	1	1	non-food_inanimate_horn	0	F	3	0	190	0		0	0	55.6329885004088	55.7329657003284
10595.5	0.0999572998844087	11	satiated	stimuli/non_foods\non-food_animate_lizard.jpg	1	1	1	non-food_animate_lizard	0	R	12	0	126	0		0	0	55.7829785002396	55.882935800124
10633	0.0999835999682546	12	satiated	stimuli/non_foods\non-food_animate_iguana.jpg	1	1	1	non-food_animate_iguana	0	Z	18	0	121	0		0	0	55.9329710002057	56.032954600174
10670.5	0.0997378998436034	13	satiated	stimuli/non_foods\non-food_animate_cat.jpg	1	1	1	non-food_animate_cat	0	X	17	0	98	1	a	0	0	56.0832294002175	56.1829673000611
10708	0.099983099848032	14	satiated	stimuli/foods\garlic.jpg	1	1	1	garlic	1	W	16	0	56	0		0	0	56.2329720002599	56.3329551001079
10745.5	0.0999929998070002	15	satiated	stimuli/non_foods\non-food_inanimate_buds.jpg	1	1	1	non-food_inanimate_buds	0	T	14	0	166	0		0	0	56.3829645002261	56.4829575000331
10783	0.0999866998754442	16	satiated	stimuli/non_foods\non-food_inanimate_chair.jpg	1	1	1	non-food_inanimate_chair	0	R	12	0	172	0		0	0	56.5329665001482	56.6329532000236
10820.5	0.0999493002891541	17	satiated	stimuli/foods\oregano.jpg	1	1	1	oregano	1	U	23	1	231	0		0	0	56.6829705000855	56.7829198003747
10858	0.0999948997050524	18	satiated	stimuli/non_foods\non-food_animate_caterpillar.jpg	1	1	1	non-food_animate_caterpillar	0	L	8	0	99	0		0	0	56.832942600362	56.9329375000671
10895.5	0.0999817000702024	19	satiated	stimuli/foods\steak.jpg	1	1	1	steak	1	H	5	0	270	0		0	0	56.9829597002827	57.0829414003529
10933	0.0999896000139415	20	satiated	stimuli/non_foods\non-food_animate_chicken.jpg	1	1	1	non-food_animate_chicken	0	V	15	0	101	0		0	0	57.1329539003782	57.2329435003921
10970.5	0.0999756003729999	21	satiated	stimuli/non_foods\non-food_inanimate_moss.jpg	1	1	1	non-food_inanimate_moss	0	N	10	0	194	0		0	0	57.2829619999975	57.3829376003705
11008	0.0999793000519276	22	satiated	stimuli/foods\figs.jpg	1	1	1	figs	1	T	14	0	48	0		0	0	57.4329512002878	57.5329305003397
11045.5	0.099978500045836	23	satiated	stimuli/non_foods\non-food_inanimate_nettle.jpg	1	1	1	non-food_inanimate_nettle	0	R	12	0	197	0		0	0	57.5829583001323	57.6829368001781
11083	0.0999791999347508	24	satiated	stimuli/non_foods\non-food_inanimate_bicycle.jpg	1	1	1	non-food_inanimate_bicycle	0	H	5	0	161	0		0	0	57.7329562003724	57.8329354003072
11120.5	0.0999887003563344	25	satiated	stimuli/non_foods\non-food_inanimate_desk.jpg	1	1	1	non-food_inanimate_desk	0	T	14	0	178	0		0	0	57.8829540000297	57.982942700386
11158	0.0999834001995623	26	satiated	stimuli/non_foods\non-food_inanimate_soccer_ball.jpg	1	1	1	non-food_inanimate_soccer_ball	0	P	11	0	210	0		0	0	58.0329538001679	58.1329372003675
11195.5	0.0999694000929594	27	satiated	stimuli/foods\blackberry.jpg	1	1	1	blackberry	1	M	9	0	11	0		0	0	58.1829491001554	58.2829185002483
11233	0.100002100225538	28	satiated	stimuli/foods\carrot.jpg	1	1	1	carrot	1	B	0	0	19	0		0	0	58.3329352000728	58.4329373002984
11270.5	0.0999855003319681	29	satiated	stimuli/non_foods\non-food_animate_killer_whale.jpg	1	1	1	non-food_animate_killer_whale	0	X	17	0	123	0		0	0	58.4829448000528	58.5829303003848
11308	0.0999838002026081	30	satiated	stimuli/foods\rice.jpg	1	1	1	rice	1	R	12	0	257	0		0	0	58.632946100086	58.7329299002886
11345.5	0.0999803002923727	31	satiated	stimuli/foods\grapes.jpg	1	1	1	grapes	1	D	2	0	60	0		0	0	58.78294620011	58.8829265004024
11383	0.0999560998752713	32	satiated	stimuli/non_foods\non-food_animate_slug.jpg	1	1	1	non-food_animate_slug	0	J	6	0	148	0		0	0	58.9329682001844	59.0329243000597
11420.5	0.0999835003167391	33	satiated	stimuli/non_foods\non-food_inanimate_padlock.jpg	1	1	1	non-food_inanimate_padlock	0	M	9	0	199	0		0	0	59.0829415000044	59.1829250003211
11458	0.0999890002422035	34	satiated	stimuli/non_foods\non-food_animate_mammoth.jpg	1	1	1	non-food_animate_mammoth	0	R	12	0	128	1	a	0	0	59.2329313000664	59.3329203003086
11495.5	0.0999776003882289	35	satiated	stimuli/foods\papaya.jpg	1	1	1	papaya	1	X	17	0	235	0		0	0	59.382937700022	59.4829153004102
11533	0.0999854002147913	36	satiated	stimuli/non_foods\non-food_inanimate_stoplight.jpg	1	1	1	non-food_inanimate_stoplight	0	K	7	0	214	0		0	0	59.5329351001419	59.6329205003567
11570.5	0.0999793997034431	37	satiated	stimuli/non_foods\non-food_animate_alligator.jpg	1	1	1	non-food_animate_alligator	0	Z	18	0	90	0		0	0	59.6829358004034	59.7829152001068
11608	0.0999885001219809	38	satiated	stimuli/foods\potato_and_green_bean_salad.jpg	1	1	1	potato_and_green_bean_salad	1	G	4	0	246	0		0	0	59.8329321001656	59.9329206002876
11645.5	0.099993800278753	39	satiated	stimuli/foods\orange.jpg	1	1	1	orange	1	W	16	0	230	0		0	0	59.9829202000983	60.0829140003771
11683	0.0999805997125804	40	satiated	stimuli/foods\beetroots.jpg	1	1	1	beetroots	1	L	8	0	10	0		0	0	60.132932100445	60.2329127001576
11720.5	0.0999365001916885	41	satiated	stimuli/non_foods\non-food_inanimate_orchid.jpg	1	1	1	non-food_inanimate_orchid	0	T	14	0	198	0		0	0	60.2829501000233	60.382886600215
11758	0.099989399779588	42	satiated	stimuli/foods\spinach.jpg	1	1	1	spinach	1	M	9	0	268	0		0	0	60.4329211004078	60.5329105001874
11795.5	0.0999849000945687	43	satiated	stimuli/non_foods\non-food_animate_frog.jpg	1	1	1	non-food_animate_frog	0	J	6	0	113	0		0	0	60.5829257001169	60.6829106002115
11833	0.0999611997976899	44	satiated	stimuli/foods\omelette.jpg	1	1	1	omelette	1	S	13	0	228	0		0	0	60.7329422002658	60.8329034000635
11870.5	0.099987399764359	45	satiated	stimuli/non_foods\non-food_animate_green_bug.jpg	1	1	1	non-food_animate_green_bug	0	E	20	1	118	0		0	0	60.8829184002243	60.9829057999887
11908	0.099983099848032	46	satiated	stimuli/non_foods\non-food_inanimate_headphones.jpg	1	1	1	non-food_inanimate_headphones	0	X	17	0	188	0		0	0	61.0329194003716	61.1329025002196
11945.5	0.0999861997552216	47	satiated	stimuli/foods\lettuce.jpg	1	1	1	lettuce	1	G	4	0	75	0		0	0	61.1829138002358	61.2828999999911
11983	0.0999842998571694	48	satiated	stimuli/non_foods\non-food_inanimate_cap.jpg	1	1	1	non-food_inanimate_cap	0	H	5	0	171	1	a	0.541819899808615	1	61.3329142001458	61.4328985000029
12020.5	0.0999817000702024	49	satiated	stimuli/foods\salmon.jpg	1	1	1	salmon	1	T	14	0	264	0		0	0	61.4829135001637	61.5828952002339
12058	0.099983099848032	50	satiated	stimuli/non_foods\non-food_animate_pigeon.jpg	1	1	1	non-food_animate_pigeon	0	H	5	0	136	0		0	0	61.6329102003947	61.7328933002427
12095.5	0.0999660999514163	51	satiated	stimuli/foods\rice_cake.jpg	1	1	1	rice_cake	1	G	4	0	258	0		0	0	61.7829296002164	61.8828957001679
12133	0.0999845000915229	52	satiated	stimuli/foods\chocolate_bar.jpg	1	1	1	chocolate_bar	1	H	5	0	26	0		0	0	61.9329087003134	62.0328932004049
12170.5	0.0999841000884771	53	satiated	stimuli/foods\taco.jpg	1	1	1	taco	1	X	17	0	274	0		0	0	62.0829046000727	62.1828887001611
12208	0.100011200178415	54	satiated	stimuli/foods\nectarine.jpg	1	1	1	nectarine	1	C	1	0	87	0		0	0	62.2329047000967	62.3329159002751
12245.5	0.0999850002117455	55	satiated	stimuli/non_foods\non-food_inanimate_leaf.jpg	1	1	1	non-food_inanimate_leaf	0	W	16	0	192	0		0	0	62.3829022999853	62.482887300197
12283	0.0999635998159647	56	satiated	stimuli/non_foods\non-food_inanimate_toilet.jpg	1	1	1	non-food_inanimate_toilet	0	B	0	0	220	0		0	0	62.5329229002818	62.6328865000978
12320.5	0.0999848004430532	57	satiated	stimuli/non_foods\non-food_animate_grasshopper.jpg	1	1	1	non-food_animate_grasshopper	0	R	12	0	117	0		0	0	62.6828972999938	62.7828821004368
12358	0.0999955995939672	58	satiated	stimuli/foods\gnocchi.jpg	1	1	1	gnocchi	1	P	11	0	58	0		0	0	62.8328894004226	62.9328850000165
12395.5	0.0999841000884771	59	satiated	stimuli/foods\avocado.jpg	1	1	1	avocado	1	M	9	0	5	0		0	0	62.9828964001499	63.0828805002384
12433	0.0999831999652088	60	satiated	stimuli/foods\lentils.jpg	1	1	1	lentils	1	T	14	0	74	0		0	0	63.1328928000294	63.2328759999946
12470.5	0.0999706001020968	61	satiated	stimuli/non_foods\non-food_animate_monkey.jpg	1	1	1	non-food_animate_monkey	0	M	9	0	130	0		0	0	63.2828905000351	63.3828611001372
12508	0.0999874002300203	62	satiated	stimuli/foods\pork_and_rice.jpg	1	1	1	pork_and_rice	1	X	17	0	245	0		0	0	63.4328827001154	63.5328701003455
12545.5	0.0999941998161376	63	satiated	stimuli/foods\fruit_flan.jpg	1	1	1	fruit_flan	1	R	12	0	53	0		0	0	63.5828908002004	63.6828850000165
12583	0.100012199953198	64	satiated	stimuli/non_foods\non-food_animate_student_female.jpg	1	1	1	non-food_animate_student_female	0	H	5	0	151	0		0	0	63.7328559001908	63.832868100144
12620.5	0.0999838998541236	65	satiated	stimuli/non_foods\non-food_animate_mouse.jpg	1	1	1	non-food_animate_mouse	0	G	4	0	131	0		0	0	63.8828848004341	63.9828687002882
12658	0.0999916000291705	66	satiated	stimuli/non_foods\non-food_inanimate_toy_airplane.jpg	1	1	1	non-food_inanimate_toy_airplane	0	B	0	0	222	0		0	0	64.032877900172	64.1328695002012
12695.5	0.0999845997430384	67	satiated	stimuli/foods\clams.jpg	1	1	1	clams	1	N	10	0	32	0		0	0	64.1828840002418	64.2828685999848
12733	0.0999869997613132	68	satiated	stimuli/foods\onion.jpg	1	1	1	onion	1	V	15	0	229	0		0	0	64.3328699003905	64.4328569001518
12770.5	0.099984799977392	69	satiated	stimuli/foods\capsicum.jpg	1	1	1	capsicum	1	H	5	0	18	0		0	0	64.48287850013	64.5828633001074
12808	0.100007900036871	70	satiated	stimuli/non_foods\non-food_inanimate_chandelier.jpg	1	1	1	non-food_inanimate_chandelier	0	W	16	0	173	0		0	0	64.6328511000611	64.732859000098
12845.5	0.099980799946934	71	satiated	stimuli/non_foods\non-food_inanimate_speakers.jpg	1	1	1	non-food_inanimate_speakers	0	S	13	0	212	0		0	0	64.7828767001629	64.8828575001098
12883	0.0999805997125804	72	satiated	stimuli/foods\minestrone_soup.jpg	1	1	1	minestrone_soup	1	P	11	0	82	0		0	0	64.9328726003878	65.0328532001004
12920.5	0.099991699680686	73	satiated	stimuli/non_foods\non-food_animate_dragonfly.jpg	1	1	1	non-food_animate_dragonfly	0	S	13	0	108	0		0	0	65.0828671003692	65.1828588000499
12958	0.0999866002239287	74	satiated	stimuli/foods\croissant.jpg	1	1	1	croissant	1	D	2	0	40	0		0	0	65.2328689000569	65.3328555002809
12995.5	0.0999750997871161	75	satiated	stimuli/non_foods\non-food_inanimate_canoe.jpg	1	1	1	non-food_inanimate_canoe	0	C	1	0	170	0		0	0	65.3828739002347	65.4828490000218
13033	0.0999904000200331	76	satiated	stimuli/non_foods\non-food_animate_seahorse.jpg	1	1	1	non-food_animate_seahorse	0	H	5	0	145	0		0	0	65.5328627000563	65.6328531000763
13070.5	0.0999822998419404	77	satiated	stimuli/foods\brussel_sprouts.jpg	1	1	1	brussel_sprouts	1	F	3	0	15	0		0	0	65.6828649002127	65.7828472000547
13108	0.0999866002239287	78	satiated	stimuli/non_foods\non-food_inanimate_sun_flower.jpg	1	1	1	non-food_inanimate_sun_flower	0	M	9	0	216	0		0	0	65.8328618002124	65.9328484004363
13145.5	0.0999795999377966	79	satiated	stimuli/foods\pasta_carbonara.jpg	1	1	1	pasta_carbonara	1	X	17	0	236	0		0	0	65.9828671002761	66.0828467002138
13183	0.0999829000793397	80	satiated	stimuli/foods\radish.jpg	1	1	1	radish	1	D	2	0	251	0		0	0	66.1328594000079	66.2328423000872
13220.5	0.0999859999865294	81	satiated	stimuli/non_foods\non-food_inanimate_hammer.jpg	1	1	1	non-food_inanimate_hammer	0	J	6	0	186	0		0	0	66.2828548001125	66.3828408000991
13258	0.099987399764359	82	satiated	stimuli/foods\cinnamon_sroll.jpg	1	1	1	cinnamon_sroll	1	V	15	0	31	0		0	0	66.4328523003496	66.532839700114
13295.5	0.0999838998541236	83	satiated	stimuli/non_foods\non-food_animate_dolphin.jpg	1	1	1	non-food_animate_dolphin	0	X	17	0	106	0		0	0	66.5828532003798	66.6828371002339
13333	0.0999820996075869	84	satiated	stimuli/non_foods\non-food_inanimate_pine_cone.jpg	1	1	1	non-food_inanimate_pine_cone	0	D	2	0	200	0		0	0	66.7328517003916	66.8328337999992
13370.5	0.0999905001372099	85	satiated	stimuli/foods\lamb_chops.jpg	1	1	1	lamb_chops	1	S	13	0	70	0		0	0	66.8828428001143	66.9828333002515
13408	0.0999823999591172	86	satiated	stimuli/foods\cucumber.jpg	1	1	1	cucumber	1	P	11	0	41	0		0	0	67.0328469001688	67.1328293001279
13445.5	0.0999826998449862	87	satiated	stimuli/non_foods\non-food_animate_tortoise.jpg	1	1	1	non-food_animate_tortoise	0	X	17	0	153	0		0	0	67.1828463003039	67.2828290001489
13483	0.0999831003136933	88	satiated	stimuli/non_foods\non-food_animate_kangaroo.jpg	1	1	1	non-food_animate_kangaroo	0	H	5	0	122	0		0	0	67.3328450000845	67.4328281003982
13520.5	0.0999834998510778	89	satiated	stimuli/foods\donut.jpg	1	1	1	donut	1	R	12	0	44	0		0	0	67.4828333002515	67.5828168001026
13558	0.0999809997156262	90	satiated	stimuli/foods\fries.jpg	1	1	1	fries	1	V	15	0	52	0		0	0	67.6328347004019	67.7328157001175
13595.5	0.0999946999363601	91	satiated	stimuli/foods\lemon.jpg	1	1	1	lemon	1	M	9	0	72	0		0	0	67.7828317000531	67.8828263999894
13633	0.0999902999028563	92	satiated	stimuli/non_foods\non-food_animate_millipede.jpg	1	1	1	non-food_animate_millipede	0	C	1	0	129	0		0	0	67.9328305004165	68.0328208003193
13670.5	0.0999809000641108	93	satiated	stimuli/non_foods\non-food_inanimate_suitcase.jpg	1	1	1	non-food_inanimate_suitcase	0	R	12	0	215	0		0	0	68.0828369003721	68.1828178004362
13708	0.0999888000078499	94	satiated	stimuli/foods\mandarin.jpg	1	1	1	mandarin	1	L	8	0	79	0		0	0	68.2328238002956	68.3328126003034
13745.5	0.0999835999682546	95	satiated	stimuli/foods\asparagus.jpg	1	1	1	asparagus	1	D	2	0	4	0		0	0	68.3828306002542	68.4828142002225
13783	0.0999980997294188	96	satiated	stimuli/foods\chocolate_chip_cookies.jpg	1	1	1	chocolate_chip_cookies	1	R	12	0	27	0		0	0	68.5328204003163	68.6328185000457
13820.5	0.0999867999926209	97	satiated	stimuli/foods\cauliflower.jpg	1	1	1	cauliflower	1	C	1	0	20	0		0	0	68.682827600278	68.7828144002706
13858	0.0999875003471971	98	satiated	stimuli/non_foods\non-food_inanimate_guitar.jpg	1	1	1	non-food_inanimate_guitar	0	H	5	0	185	0		0	0	68.8328259000555	68.9328134004027
13895.5	0.0999893001280725	99	satiated	stimuli/foods\cooked_ham.jpg	1	1	1	cooked_ham	1	R	12	0	35	0		0	0	68.9828221001662	69.0828114002943
13933	0.099980500061065	100	satiated	stimuli/foods\pickles.jpg	1	1	1	pickles	1	W	16	0	242	0		0	0	69.1328237000853	69.2328042001463
13970.5	0.0999798001721501	101	satiated	stimuli/foods\prawn.jpg	1	1	1	prawn	1	P	11	0	249	0		0	0	69.2828222000971	69.3828020002693
14008	0.0999879003502429	102	satiated	stimuli/foods\risotto_with_peas_and_asparagus_tips.jpg	1	1	1	risotto_with_peas_and_asparagus_tips	1	J	6	0	259	0		0	0	69.4328201999888	69.532808100339
14045.5	0.0999865997582674	103	satiated	stimuli/foods\fennel.jpg	1	1	1	fennel	1	K	7	0	47	0		0	0	69.5828166003339	69.6828032000922
14083	0.0999814001843333	104	satiated	stimuli/non_foods\non-food_animate_owl.jpg	1	1	1	non-food_animate_owl	0	H	5	0	132	0		0	0	69.7328178002499	69.8327992004342
14120.5	0.099976799916476	105	satiated	stimuli/non_foods\non-food_animate_young_boy.jpg	1	1	1	non-food_animate_young_boy	0	P	11	0	156	0		0	0	69.8828123002313	69.9827891001478
14158	0.0999849997460842	106	satiated	stimuli/foods\mussels.jpg	1	1	1	mussels	1	B	0	0	86	0		0	0	70.0328101003543	70.1327951001003
14195.5	0.0999869001097977	107	satiated	stimuli/foods\egg.jpg	1	1	1	egg	1	J	6	0	45	0		0	0	70.1828087000176	70.2827956001274
14233	0.0999623001553118	108	satiated	stimuli/foods\raw_ham.jpg	1	1	1	raw_ham	1	P	11	0	253	0		0	0	70.3328125001863	70.4327748003416
14270.5	0.0999590000137687	109	satiated	stimuli/non_foods\non-food_inanimate_broom.jpg	1	1	1	non-food_inanimate_broom	0	J	6	0	164	0		0	0	70.4828054001555	70.5827644001693
14308	0.0999914002604783	110	satiated	stimuli/non_foods\non-food_animate_elephant.jpg	1	1	1	non-food_animate_elephant	0	L	8	0	111	0		0	0	70.6327899000607	70.7327813003212
14345.5	0.0999786998145282	111	satiated	stimuli/foods\roasted_chicken.jpg	1	1	1	roasted_chicken	1	X	17	0	261	0		0	0	70.7828021002933	70.8827808001079
14383	0.0999846998602152	112	satiated	stimuli/non_foods\non-food_inanimate_button.jpg	1	1	1	non-food_inanimate_button	0	P	11	0	168	0		0	0	70.9327931003645	71.0327778002247
14420.5	0.0999926002696157	113	satiated	stimuli/foods\pear.jpg	1	1	1	pear	1	D	2	0	239	0		0	0	71.0827862001024	71.182778800372
14458	0.0999857001006603	114	satiated	stimuli/non_foods\non-food_animate_baby_crawling.jpg	1	1	1	non-food_animate_baby_crawling	0	P	11	0	92	0		0	0	71.2327927001752	71.3327784002759
14495.5	0.0999716999940574	115	satiated	stimuli/non_foods\non-food_inanimate_bowling_ball.jpg	1	1	1	non-food_inanimate_bowling_ball	0	J	6	0	162	0		0	0	71.382812099997	71.482783799991
14533	0.0999739998951554	116	satiated	stimuli/foods\dates.jpg	1	1	1	dates	1	X	17	0	43	0		0	0	71.5327966003679	71.632770600263
14570.5	0.0999952000565827	117	satiated	stimuli/foods\spaghetti_with_meat_sauce.jpg	1	1	1	spaghetti_with_meat_sauce	1	P	11	0	267	0		0	0	71.6827865000814	71.782781700138
14608	0.0999780003912747	118	satiated	stimuli/foods\meatballs.jpg	1	1	1	meatballs	1	C	1	0	81	0		0	0	71.8327941000462	71.9327721004374
14645.5	0.0999842998571694	119	satiated	stimuli/non_foods\non-food_animate_Asian_man.jpg	1	1	1	non-food_animate_Asian_man	0	R	12	0	88	0		0	0	71.9827814004384	72.0827657002956
14683	0.0999857001006603	120	satiated	stimuli/foods\linguine_with_clams.jpg	1	1	1	linguine_with_clams	1	K	7	0	77	0		0	0	72.1327781002037	72.2327638003044
14720.5	0.0999854002147913	121	satiated	stimuli/non_foods\non-food_inanimate_bucket.jpg	1	1	1	non-food_inanimate_bucket	0	P	11	0	165	0		0	0	72.2827749000862	72.382760300301
14758	0.100010700058192	122	satiated	stimuli/non_foods\non-food_inanimate_clover.jpg	1	1	1	non-food_inanimate_clover	0	W	16	0	174	0		0	0	72.4327759002335	72.5327866002917
14795.5	0.100004599895328	123	satiated	stimuli/foods\cracker.jpg	1	1	1	cracker	1	R	12	0	38	0		0	0	72.5827703000978	72.6827748999931
14833	0.100011500064284	124	satiated	stimuli/foods\risotto_with_zucchini.jpg	1	1	1	risotto_with_zucchini	1	P	11	0	260	0		0	0	72.7327515003271	72.8327630003914
14870.5	0.0999832004308701	125	satiated	stimuli/non_foods\non-food_animate_cow.jpg	1	1	1	non-food_animate_cow	0	X	17	0	103	0		0	0	72.882783100009	72.9827663004398
14908	0.0999865997582674	126	satiated	stimuli/foods\rockmelon.jpg	1	1	1	rockmelon	1	M	9	0	262	0		0	0	73.0327747003175	73.1327613000758
14945.5	0.099964200053364	127	satiated	stimuli/foods\kiwi.jpg	1	1	1	kiwi	1	W	16	0	69	0		0	0	73.1827955003828	73.2827597004361
14983	0.0999831999652088	128	satiated	stimuli/non_foods\non-food_animate_giraffe.jpg	1	1	1	non-food_animate_giraffe	0	K	7	0	115	0		0	0	73.3327749003656	73.4327581003308
15020.5	0.0999834001995623	129	satiated	stimuli/foods\green_beans.jpg	1	1	1	green_beans	1	F	3	0	61	0		0	0	73.4827701002359	73.5827535004355
15058	0.0999844996258616	130	satiated	stimuli/foods\grilled_chicken_breast.jpg	1	1	1	grilled_chicken_breast	1	B	0	0	63	0		0	0	73.6327719003893	73.7327564000152
15095.5	0.09998709987849	131	satiated	stimuli/non_foods\non-food_inanimate_bamboo.jpg	1	1	1	non-food_inanimate_bamboo	0	L	8	0	159	0		0	0	73.7827648003586	73.8827519002371
15133	0.0999821000732481	132	satiated	stimuli/foods\mushroom.jpg	1	1	1	mushroom	1	T	14	0	85	0		0	0	73.9327680002898	74.032750100363
15170.5	0.0999843999743462	133	satiated	stimuli/foods\potato_chips.jpg	1	1	1	potato_chips	1	L	8	0	247	0		0	0	74.0827642004006	74.1827486003749
15208	0.0999803999438882	134	satiated	stimuli/non_foods\non-food_animate_fox.jpg	1	1	1	non-food_animate_fox	0	F	3	0	112	0		0	0	74.2327664000914	74.3327468000352
15245.5	0.0999885001219809	135	satiated	stimuli/non_foods\non-food_animate_skunk.jpg	1	1	1	non-food_animate_skunk	0	D	2	0	147	0		0	0	74.3827630002052	74.4827515003271
15283	0.0999831003136933	136	satiated	stimuli/foods\salami.jpg	1	1	1	salami	1	P	11	0	263	0		0	0	74.5327594000846	74.6327425003983
15320.5	0.0999873001128435	137	satiated	stimuli/non_foods\non-food_inanimate_gloves.jpg	1	1	1	non-food_inanimate_gloves	0	F	3	0	183	0		0	0	74.6827607001178	74.7827480002306
15358	0.0999871999956667	138	satiated	stimuli/foods\celery.jpg	1	1	1	celery	1	H	5	0	21	0		0	0	74.8327574003488	74.9327446003444
15395.5	0.0999707002192736	139	satiated	stimuli/non_foods\non-food_animate_raccoon.jpg	1	1	1	non-food_animate_raccoon	0	T	14	0	139	0		0	0	74.9827673002146	75.0827380004339
16599.5	0.0999771002680063	140	satiated	stimuli/non_foods\non-food_inanimate_cactus_pot_plant.jpg	1	2	1	non-food_inanimate_cactus_pot_plant	0	P	11	0	169	0		0	0	79.7993719000369	79.8993490003049
16637	0.099972500000149	141	satiated	stimuli/foods\corncob.jpg	1	2	1	corncob	1	L	8	0	37	0		0	0	79.9493764000945	80.0493489000946
16674.5	0.0999823003076017	142	satiated	stimuli/non_foods\non-food_inanimate_hay.jpg	1	2	1	non-food_inanimate_hay	0	B	0	0	187	0		0	0	80.0993622001261	80.1993445004337
16712	0.0999822001904249	143	satiated	stimuli/foods\oven-roasted_tomatoes.jpg	1	2	1	oven-roasted_tomatoes	1	M	9	0	232	0		0	0	80.249360000249	80.3493422004394
16749.5	0.0999803999438882	144	satiated	stimuli/foods\coffee_beans.jpg	1	2	1	coffee_beans	1	G	4	0	34	0		0	0	80.3993599000387	80.4993402999826
16787	0.100024200044572	145	satiated	stimuli/foods\honey.jpg	1	2	1	honey	1	H	5	0	66	0		0	0	80.5493600000627	80.6493842001073
16824.5	0.100022899918258	146	satiated	stimuli/non_foods\non-food_inanimate_bed.jpg	1	2	1	non-food_inanimate_bed	0	B	0	0	160	0		0	0	80.6993759004399	80.7993988003582
16862	0.0999808995984495	147	satiated	stimuli/non_foods\non-food_animate_squirrel.jpg	1	2	1	non-food_animate_squirrel	0	P	11	0	150	0		0	0	80.8493553004228	80.9493362000212
16899.5	0.0999838998541236	148	satiated	stimuli/non_foods\non-food_animate_rhino.jpg	1	2	1	non-food_animate_rhino	0	K	7	0	141	0		0	0	80.999349700287	81.0993336001411
16937	0.0999845997430384	149	satiated	stimuli/non_foods\non-food_inanimate_scissors.jpg	1	2	1	non-food_inanimate_scissors	0	L	8	0	205	0		0	0	81.1493478002958	81.2493324000388
16974.5	0.0999863999895751	150	satiated	stimuli/foods\peach.jpg	1	2	1	peach	1	W	16	0	238	0		0	0	81.2993459003046	81.3993323002942
17012	0.0999843003228307	151	satiated	stimuli/non_foods\non-food_animate_young_girl.jpg	1	2	1	non-food_animate_young_girl	0	X	17	0	157	0		0	0	81.4493438000791	81.5493281004019
17049.5	0.0999836004339159	152	satiated	stimuli/non_foods\non-food_inanimate_fern.jpg	1	2	1	non-food_inanimate_fern	0	B	0	0	180	0		0	0	81.5993458000012	81.6993294004351
17087	0.0999665004201233	153	satiated	stimuli/non_foods\non-food_animate_bee.jpg	1	2	1	non-food_animate_bee	0	C	1	0	95	0		0	0	81.7493586000055	81.8493251004256
17124.5	0.0999853000976145	154	satiated	stimuli/foods\eggplant.jpg	1	2	1	eggplant	1	R	12	0	46	0		0	0	81.8993398002349	81.9993251003325
17162	0.0999866998754442	155	satiated	stimuli/foods\frankfurter_and_provolone_salad.jpg	1	2	1	frankfurter_and_provolone_salad	1	V	15	0	49	0		0	0	82.049338800367	82.1493255002424
17199.5	0.0999865001067519	156	satiated	stimuli/foods\mortadella.jpg	1	2	1	mortadella	1	Z	18	0	83	0		0	0	82.1993356002495	82.2993221003562
17237	0.0999616999179125	157	satiated	stimuli/foods\ice_cream.jpg	1	2	1	ice_cream	1	S	13	0	68	0		0	0	82.3493479001336	82.4493096000515
17274.5	0.0999638000503182	158	satiated	stimuli/foods\bagel.jpg	1	2	1	bagel	1	R	12	0	6	0		0	0	82.4993454003707	82.599309200421
17312	0.0999942002817988	159	satiated	stimuli/foods\chocolate_pudding.jpg	1	2	1	chocolate_pudding	1	B	0	0	29	0		0	0	82.6493253000081	82.7493195002899
17349.5	0.0999781000427902	160	satiated	stimuli/foods\baked_cod_with_carrots_and_green_beans.jpg	1	2	1	baked_cod_with_carrots_and_green_beans	1	F	3	0	7	0		0	0	82.7993352999911	82.8993134000339
17387	0.0999873001128435	161	satiated	stimuli/non_foods\non-food_animate_dachshund.jpg	1	2	1	non-food_animate_dachshund	0	Z	18	0	104	0		0	0	82.9493273003027	83.0493146004155
17424.5	0.0999854998663068	162	satiated	stimuli/foods\fried_calamari.jpg	1	2	1	fried_calamari	1	M	9	0	50	0		0	0	83.0993267004378	83.1993122003041
17462	0.0999819003045559	163	satiated	stimuli/non_foods\non-food_animate_runner.jpg	1	2	1	non-food_animate_runner	0	K	7	0	142	0		0	0	83.2493253001012	83.3493072004057
17499.5	0.0999855999834836	164	satiated	stimuli/foods\pomegranate.jpg	1	2	1	pomegranate	1	J	6	0	244	0		0	0	83.3993205004372	83.4993061004207
17537	0.0999586996622384	165	satiated	stimuli/non_foods\non-food_inanimate_tree.jpg	1	2	1	non-food_inanimate_tree	0	D	2	0	223	0		0	0	83.5493484004401	83.6493071001023
17574.5	0.0999878998845816	166	satiated	stimuli/foods\apple.jpg	1	2	1	apple	1	V	15	0	1	0		0	0	83.6993162003346	83.7993041002192
17612	0.0999869001097977	167	satiated	stimuli/non_foods\non-food_inanimate_skateboard.jpg	1	2	1	non-food_inanimate_skateboard	0	W	16	0	208	0		0	0	83.8493158002384	83.9493027003482
17649.5	0.0999884996563196	168	satiated	stimuli/foods\peas.jpg	1	2	1	peas	1	J	6	0	240	0		0	0	83.9993160003796	84.0993045000359
17687	0.0999842998571694	169	satiated	stimuli/foods\savory_pie.jpg	1	2	1	savory_pie	1	C	1	0	265	0		0	0	84.1493278001435	84.2493121000007
17724.5	0.0999553999863565	170	satiated	stimuli/foods\museli_bars.jpg	1	2	1	museli_bars	1	G	4	0	84	0		0	0	84.2993411002681	84.3992965002544
17762	0.0999821000732481	171	satiated	stimuli/non_foods\non-food_animate_ram.jpg	1	2	1	non-food_animate_ram	0	Z	18	0	140	0		0	0	84.4493088000454	84.5492909001186
17799.5	0.0999913001433015	172	satiated	stimuli/foods\chilli.jpg	1	2	1	chilli	1	B	0	0	25	0		0	0	84.5993018001318	84.6992931002751
17837	0.0999868996441364	173	satiated	stimuli/non_foods\non-food_animate_polar_bear.jpg	1	2	1	non-food_animate_polar_bear	0	G	4	0	137	0		0	0	84.7493049004115	84.8492918000557
17874.5	0.0999824996106327	174	satiated	stimuli/non_foods\non-food_inanimate_nest.jpg	1	2	1	non-food_inanimate_nest	0	N	10	0	196	0		0	0	84.8993046004325	84.9992871000431
17912	0.099981099832803	175	satiated	stimuli/foods\red_beans.jpg	1	2	1	red_beans	1	T	14	0	255	0		0	0	85.0493062003516	85.1492873001844
17949.5	0.0999994999729097	176	satiated	stimuli/foods\wafer.jpg	1	2	1	wafer	1	L	8	0	277	0		0	0	85.199300700333	85.2993002003059
17987	0.0999388000927866	177	satiated	stimuli/foods\pumpkin.jpg	1	2	1	pumpkin	1	W	16	0	250	0		0	0	85.3493486000225	85.4492874001153
18024.5	0.0999880000017583	178	satiated	stimuli/foods\cannoli.jpg	1	2	1	cannoli	1	E	20	1	17	0		0	0	85.4992974000052	85.5992854000069
18062	0.0999866002239287	179	satiated	stimuli/foods\almonds.jpg	1	2	1	almonds	1	S	13	0	0	0		0	0	85.6492947000079	85.7492813002318
18099.5	0.099987699650228	180	satiated	stimuli/non_foods\non-food_inanimate_table.jpg	1	2	1	non-food_inanimate_table	0	G	4	0	217	0		0	0	85.7992947003804	85.8992824000306
18137	0.0999577003531158	181	satiated	stimuli/foods\lemon_meringue_pie.jpg	1	2	1	lemon_meringue_pie	1	R	12	0	73	1	a	0.443258600309491	1	85.9493203000166	86.0492780003697
18174.5	0.0999742997810245	182	satiated	stimuli/foods\swordfish.jpg	1	2	1	swordfish	1	D	2	0	273	0		0	0	86.0993024003692	86.1992767001502
18212	0.09998539974913	183	satiated	stimuli/non_foods\non-food_inanimate_stapler.jpg	1	2	1	non-food_inanimate_stapler	0	Z	18	0	213	0		0	0	86.249291700311	86.3492771000601
18249.5	0.0999849000945687	184	satiated	stimuli/foods\grapefruits.jpg	1	2	1	grapefruits	1	D	2	0	59	0		0	0	86.3992873001844	86.4992722002789
18287	0.0999823003076017	185	satiated	stimuli/non_foods\non-food_inanimate_towel.jpg	1	2	1	non-food_inanimate_towel	0	Z	18	0	221	0		0	0	86.5492857000791	86.6492680003867
18324.5	0.0999900996685028	186	satiated	stimuli/non_foods\non-food_inanimate_cupboard.jpg	1	2	1	non-food_inanimate_cupboard	0	W	16	0	177	0		0	0	86.6992833004333	86.7992734001018
18362	0.0999870002269745	187	satiated	stimuli/foods\broccoli.jpg	1	2	1	broccoli	1	R	12	0	13	0		0	0	86.8492800001986	86.9492670004256
18399.5	0.0999964000657201	188	satiated	stimuli/foods\cherry.jpg	1	2	1	cherry	1	W	16	0	23	0		0	0	86.9992804001085	87.0992768001743
18437	0.0999795002862811	189	satiated	stimuli/non_foods\non-food_animate_sea_lion.jpg	1	2	1	non-food_animate_sea_lion	0	J	6	0	143	0		0	0	87.1492829001509	87.2492624004371
18474.5	0.0999841000884771	190	satiated	stimuli/foods\chocolate_pralines.jpg	1	2	1	chocolate_pralines	1	Z	18	0	28	0		0	0	87.2992764003575	87.399260500446
18512	0.0999838998541236	191	satiated	stimuli/foods\lollies.jpg	1	2	1	lollies	1	B	0	0	78	0		0	0	87.4492785003968	87.5492624002509
18549.5	0.0999867003411055	192	satiated	stimuli/non_foods\non-food_animate_german_shepherd.jpg	1	2	1	non-food_animate_german_shepherd	0	J	6	0	114	0		0	0	87.5992723000236	87.6992590003647
18587	0.0999854002147913	193	satiated	stimuli/non_foods\non-food_inanimate_socks.jpg	1	2	1	non-food_inanimate_socks	0	W	16	0	211	0		0	0	87.7492781002074	87.8492635004222
18624.5	0.0999829997308552	194	satiated	stimuli/non_foods\non-food_inanimate_tent.jpg	1	2	1	non-food_inanimate_tent	0	D	2	0	219	0		0	0	87.8992715002969	87.9992545000277
18662	0.0999819999560714	195	satiated	stimuli/foods\cupcake.jpg	1	2	1	cupcake	1	P	11	0	42	0		0	0	88.0492701004259	88.149252100382
18699.5	0.09998709987849	196	satiated	stimuli/non_foods\non-food_animate_ladybug.jpg	1	2	1	non-food_animate_ladybug	0	R	12	0	124	0		0	0	88.1992661003023	88.2992532001808
18737	0.0999870002269745	197	satiated	stimuli/non_foods\non-food_inanimate_waterlily.jpg	1	2	1	non-food_inanimate_waterlily	0	T	14	0	226	0		0	0	88.3492657002062	88.4492527004331
18774.5	0.0999843999743462	198	satiated	stimuli/foods\brownie.jpg	1	2	1	brownie	1	B	0	0	14	0		0	0	88.4992626002058	88.5992470001802
18812	0.099982799962163	199	satiated	stimuli/non_foods\non-food_inanimate_couch.jpg	1	2	1	non-food_inanimate_couch	0	L	8	0	176	0		0	0	88.6492638001218	88.749246600084
18849.5	0.0999976000748575	200	satiated	stimuli/foods\cream_donuts.jpg	1	2	1	cream_donuts	1	X	17	0	39	0		0	0	88.799261700362	88.8992593004368
18887	0.0999837000854313	201	satiated	stimuli/non_foods\non-food_inanimate_folding_chair.jpg	1	2	1	non-food_inanimate_folding_chair	0	D	2	0	182	0		0	0	88.9492605002597	89.0492442003451
18924.5	0.0999849000945687	202	satiated	stimuli/foods\fruit_salad.jpg	1	2	1	fruit_salad	1	J	6	0	55	0		0	0	89.0992573001422	89.1992422002368
18962	0.099991399794817	203	satiated	stimuli/non_foods\non-food_animate_butterfly.jpg	1	2	1	non-food_animate_butterfly	0	M	9	0	96	0		0	0	89.2492500003427	89.3492414001375
18999.5	0.0999813000671566	204	satiated	stimuli/foods\waffle.jpg	1	2	1	waffle	1	C	1	0	278	0		0	0	89.399253200274	89.4992345003411
19037	0.0999666000716388	205	satiated	stimuli/foods\pea_pod.jpg	1	2	1	pea_pod	1	J	6	0	237	0		0	0	89.5492706000805	89.6492372001521
19074.5	0.0999905001372099	206	satiated	stimuli/foods\tomato.jpg	1	2	1	tomato	1	D	2	0	276	0		0	0	89.6992480000481	89.7992385001853
19112	0.0999853000976145	207	satiated	stimuli/foods\spring_onions.jpg	1	2	1	spring_onions	1	F	3	0	269	0		0	0	89.8492473000661	89.9492326001637
19149.5	0.0999880000017583	208	satiated	stimuli/non_foods\non-food_inanimate_lighter.jpg	1	2	1	non-food_inanimate_lighter	0	E	20	1	193	0		0	0	89.9992426000535	90.0992306000553
19187	0.0999880000017583	209	satiated	stimuli/non_foods\non-food_animate_eagle.jpg	1	2	1	non-food_animate_eagle	0	V	15	0	110	0		0	0	90.1492443000898	90.2492323000915
19224.5	0.09998539974913	210	satiated	stimuli/foods\lasagna.jpg	1	2	1	lasagna	1	F	3	0	71	0		0	0	90.2992426003329	90.3992280000821
19262	0.0999861997552216	211	satiated	stimuli/non_foods\non-food_inanimate_shell.jpg	1	2	1	non-food_inanimate_shell	0	H	5	0	206	0		0	0	90.4492399003357	90.5492261000909
19299.5	0.0999658000655472	212	satiated	stimuli/non_foods\non-food_inanimate_tulip.jpg	1	2	1	non-food_inanimate_tulip	0	V	15	0	224	0		0	0	90.5992588000372	90.6992246001028
19337	0.0999851999804378	213	satiated	stimuli/non_foods\non-food_animate_horse.jpg	1	2	1	non-food_animate_horse	0	K	7	0	119	0		0	0	90.7492371001281	90.8492223001085
19374.5	0.0999882002361119	214	satiated	stimuli/non_foods\non-food_animate_porcupine.jpg	1	2	1	non-food_animate_porcupine	0	N	10	0	138	0		0	0	90.8992332001217	90.9992214003578
19412	0.0999908996745944	215	satiated	stimuli/non_foods\non-food_inanimate_fire_extinguisher.jpg	1	2	1	non-food_inanimate_fire_extinguisher	0	F	3	0	181	0		0	0	91.0492275003344	91.149218400009
19449.5	0.100008400157094	216	satiated	stimuli/foods\hotdog.jpg	1	2	1	hotdog	1	R	12	0	67	0		0	0	91.1992277000099	91.299236100167
19487	0.0999453999102116	217	satiated	stimuli/foods\chestnut.jpg	1	2	1	chestnut	1	P	11	0	24	0		0	0	91.3492716001347	91.4492170000449
19524.5	0.0999855999834836	218	satiated	stimuli/foods\potatoes.jpg	1	2	1	potatoes	1	M	9	0	248	0		0	0	91.4992276001722	91.5992132001556
19562	0.0999904996715486	219	satiated	stimuli/non_foods\non-food_inanimate_drum_set.jpg	1	2	1	non-food_inanimate_drum_set	0	S	13	0	179	0		0	0	91.6492235003971	91.7492140000686
19599.5	0.0999846998602152	220	satiated	stimuli/non_foods\non-food_inanimate_rope.jpg	1	2	1	non-food_inanimate_rope	0	W	16	0	204	0		0	0	91.7992266002111	91.8992113000713
19637	0.0999853000976145	221	satiated	stimuli/non_foods\non-food_inanimate_construction_helment.jpg	1	2	1	non-food_inanimate_construction_helment	0	G	4	0	175	0		0	0	91.9492231002077	92.0492084003054
19674.5	0.0999930999241769	222	satiated	stimuli/foods\fruit_pie.jpg	1	2	1	fruit_pie	1	X	17	0	54	0		0	0	92.0992163000628	92.199209399987
19712	0.0999842002056539	223	satiated	stimuli/non_foods\non-food_inanimate_wrench.jpg	1	2	1	non-food_inanimate_wrench	0	T	14	0	227	0		0	0	92.2492209002376	92.3492051004432
19749.5	0.099972799886018	224	satiated	stimuli/non_foods\non-food_animate_ant.jpg	1	2	1	non-food_animate_ant	0	B	0	0	91	0		0	0	92.3992298003286	92.4992026002146
19787	0.0999869001097977	225	satiated	stimuli/foods\hazelnuts.jpg	1	2	1	hazelnuts	1	N	10	0	65	0		0	0	92.5492169000208	92.6492038001306
19824.5	0.099978799931705	226	satiated	stimuli/non_foods\non-food_animate_swan.jpg	1	2	1	non-food_animate_swan	0	C	1	0	152	0		0	0	92.6992164002731	92.7991952002048
19862	0.0999814998358488	227	satiated	stimuli/non_foods\non-food_inanimate_ring.jpg	1	2	1	non-food_inanimate_ring	0	W	16	0	203	0		0	0	92.849205700215	92.9491872000508
19899.5	0.10001129982993	228	satiated	stimuli/foods\lime.jpg	1	2	1	lime	1	J	6	0	76	0		0	0	92.9991939002648	93.0992052000947
19937	0.0999583997763693	229	satiated	stimuli/foods\fried_zucchini.jpg	1	2	1	fried_zucchini	1	C	1	0	51	0		0	0	93.1492318003438	93.2491902001202
19974.5	0.0999892000108957	230	satiated	stimuli/foods\baked_lamb_with_potatoes.jpg	1	2	1	baked_lamb_with_potatoes	1	F	3	0	8	0		0	0	93.2992034000345	93.3991926000454
20012	0.0999845000915229	231	satiated	stimuli/foods\pancakes.jpg	1	2	1	pancakes	1	T	14	0	234	0		0	0	93.4492097999901	93.5491943000816
20049.5	0.099985099863261	232	satiated	stimuli/non_foods\non-food_animate_cheetah.jpg	1	2	1	non-food_animate_cheetah	0	R	12	0	100	0		0	0	93.5992042003199	93.6991893001832
20087	0.0999866002239287	233	satiated	stimuli/non_foods\non-food_animate_sea_turtle.jpg	1	2	1	non-food_animate_sea_turtle	0	T	14	0	144	0		0	0	93.7492037001066	93.8491903003305
20124.5	0.0999859999865294	234	satiated	stimuli/non_foods\non-food_animate_deer.jpg	1	2	1	non-food_animate_deer	0	J	6	0	105	0		0	0	93.8991981004365	93.999184100423
20162	0.0999881001189351	235	satiated	stimuli/foods\cereal.jpg	1	2	1	cereal	1	Z	18	0	22	0		0	0	94.0491973999888	94.1491855001077
20199.5	0.099964200053364	236	satiated	stimuli/non_foods\non-food_animate_woman.jpg	1	2	1	non-food_animate_woman	0	L	8	0	154	0		0	0	94.1992170000449	94.2991812000982
20237	0.0999859999865294	237	satiated	stimuli/foods\mango.jpg	1	2	1	mango	1	C	1	0	80	0		0	0	94.3491942002438	94.4491802002303
20274.5	0.099972500000149	238	satiated	stimuli/non_foods\non-food_inanimate_briefcase.jpg	1	2	1	non-food_inanimate_briefcase	0	T	14	0	163	0		0	0	94.4992066002451	94.5991791002452
20312	0.0999849997460842	239	satiated	stimuli/non_foods\non-food_inanimate_grass.jpg	1	2	1	non-food_inanimate_grass	0	H	5	0	184	0		0	0	94.6491912002675	94.7491762000136
20349.5	0.100021500140429	240	satiated	stimuli/foods\banana.jpg	1	2	1	banana	1	F	3	0	9	0		0	0	94.7992026000284	94.8992241001688
20387	0.0999937001615763	241	satiated	stimuli/foods\raw_sausage.jpg	1	2	1	raw_sausage	1	Z	18	0	254	0		0	0	94.9491742001846	95.0491679003462
20424.5	0.0999868996441364	242	satiated	stimuli/non_foods\non-food_animate_hummingbird.jpg	1	2	1	non-food_animate_hummingbird	0	K	7	0	120	0		0	0	95.0991776003502	95.1991644999944
20462	0.0999968997202814	243	satiated	stimuli/foods\coconut.jpg	1	2	1	coconut	1	H	5	0	33	0		0	0	95.2491788002662	95.3491756999865
20499.5	0.0999865001067519	244	satiated	stimuli/non_foods\non-food_inanimate_alarm_clock.jpg	1	2	1	non-food_inanimate_alarm_clock	0	T	14	0	158	0		0	0	95.3991749002598	95.4991614003666
20537	0.0999849997460842	245	satiated	stimuli/non_foods\non-food_animate_Causasian_man.jpg	1	2	1	non-food_animate_Causasian_man	0	G	4	0	89	0		0	0	95.5491734002717	95.6491584000178
20574.5	0.0999991996213794	246	satiated	stimuli/foods\ginger_root.jpg	1	2	1	ginger_root	1	J	6	0	57	0		0	0	95.6991688003764	95.7991679999977
20612	0.0999891003593802	247	satiated	stimuli/non_foods\non-food_animate_penguin.jpg	1	2	1	non-food_animate_penguin	0	S	13	0	135	0		0	0	95.849169400055	95.9491585004143
20649.5	0.099968200083822	248	satiated	stimuli/non_foods\non-food_animate_camel.jpg	1	2	1	non-food_animate_camel	0	J	6	0	97	0		0	0	95.9991892999969	96.0991575000808
20687	0.100009699817747	249	satiated	stimuli/non_foods\non-food_animate_llama.jpg	1	2	1	non-food_animate_llama	0	D	2	0	127	0		0	0	96.1491508004256	96.2491605002433
20724.5	0.0999855999834836	250	satiated	stimuli/foods\artichoke.jpg	1	2	1	artichoke	1	T	14	0	3	0		0	0	96.2991708000191	96.3991564000025
20762	0.0999854002147913	251	satiated	stimuli/foods\oyster.jpg	1	2	1	oyster	1	J	6	0	233	0		0	0	96.4491717000492	96.549157100264
20799.5	0.0999854002147913	252	satiated	stimuli/non_foods\non-food_animate_yellow_bug.jpg	1	2	1	non-food_animate_yellow_bug	0	T	14	0	155	0		0	0	96.5991838001646	96.6991692003794
20837	0.0999861001037061	253	satiated	stimuli/non_foods\non-food_animate_duck.jpg	1	2	1	non-food_animate_duck	0	B	0	0	109	0		0	0	96.7491667000577	96.8491528001614
20874.5	0.0999845997430384	254	satiated	stimuli/non_foods\non-food_inanimate_jeans.jpg	1	2	1	non-food_inanimate_jeans	0	V	15	0	191	0		0	0	96.899166600313	96.9991512000561
20912	0.0999877001158893	255	satiated	stimuli/foods\stew_with_potatoes_and_carrots.jpg	1	2	1	stew_with_potatoes_and_carrots	1	Z	18	0	271	0		0	0	97.0491633000784	97.1491510001943
20949.5	0.0999882002361119	256	satiated	stimuli/foods\apricot.jpg	1	2	1	apricot	1	M	9	0	2	0		0	0	97.1991618000902	97.2991500003263
20987	0.0999798001721501	257	satiated	stimuli/foods\cinnamon.jpg	1	2	1	cinnamon	1	G	4	0	30	0		0	0	97.3491622000001	97.4491420001723
21024.5	0.0999833000823855	258	satiated	stimuli/non_foods\non-food_animate_bat.jpg	1	2	1	non-food_animate_bat	0	B	0	0	94	0		0	0	97.4991597002372	97.5991430003196
21062	0.100002400111407	259	satiated	stimuli/foods\watermelon.jpg	1	2	1	watermelon	1	M	9	0	279	0		0	0	97.6491577001289	97.7491601002403
21099.5	0.0999698000960052	260	satiated	stimuli/foods\toasted_bread_with_tomatoes.jpg	1	2	1	toasted_bread_with_tomatoes	1	V	15	0	275	0		0	0	97.799170400016	97.899140200112
21137	0.0999887003563344	261	satiated	stimuli/foods\raisins.jpg	1	2	1	raisins	1	H	5	0	252	0		0	0	97.9491530000232	98.0491417003796
21174.5	0.0999654997140169	262	satiated	stimuli/non_foods\non-food_animate_lion.jpg	1	2	1	non-food_animate_lion	0	B	0	0	125	0		0	0	98.0991537002847	98.1991191999987
21212	0.0999771002680063	263	satiated	stimuli/non_foods\non-food_animate_snail.jpg	1	2	1	non-food_animate_snail	0	H	5	0	149	0		0	0	98.2491480000317	98.3491251002997
21249.5	0.0999623998068273	264	satiated	stimuli/non_foods\non-food_inanimate_teddy_bear.jpg	1	2	1	non-food_inanimate_teddy_bear	0	F	3	0	218	0		0	0	98.3991622002795	98.4991246000864
21287	0.0999866998754442	265	satiated	stimuli/non_foods\non-food_inanimate_bush.jpg	1	2	1	non-food_inanimate_bush	0	Z	18	0	167	0		0	0	98.5491346004419	98.6491213003173
21324.5	0.0999680003151298	266	satiated	stimuli/foods\cooked_prawn.jpg	1	2	1	cooked_prawn	1	C	1	0	36	0		0	0	98.6991391000338	98.7991071003489
21362	0.0999816004186869	267	satiated	stimuli/non_foods\non-food_inanimate_rack.jpg	1	2	1	non-food_inanimate_rack	0	L	8	0	202	0		0	0	98.8491458999924	98.9491275004111
21399.5	0.0999866998754442	268	satiated	stimuli/foods\brie.jpg	1	2	1	brie	1	B	0	0	12	0		0	0	98.9991407003254	99.0991274002008
21437	0.0999833000823855	269	satiated	stimuli/foods\smoked_ham.jpg	1	2	1	smoked_ham	1	L	8	0	266	0		0	0	99.1491422001272	99.2491255002096
21474.5	0.0999865001067519	270	satiated	stimuli/foods\cabbage.jpg	1	2	1	cabbage	1	K	7	0	16	0		0	0	99.29913650034	99.3991230004467
21512	0.0999976000748575	271	satiated	stimuli/foods\red_cabbage.jpg	1	2	1	red_cabbage	1	D	2	0	256	0		0	0	99.4491363000125	99.5491339000873
21549.5	0.099983099848032	272	satiated	stimuli/non_foods\non-food_animate_clown.jpg	1	2	1	non-food_animate_clown	0	C	1	0	102	0		0	0	99.5991373001598	99.6991204000078
21587	0.0999885997734964	273	satiated	stimuli/non_foods\non-food_animate_peacock.jpg	1	2	1	non-food_animate_peacock	0	D	2	0	134	0		0	0	99.7491315002553	99.8491201000288
21624.5	0.0999857001006603	274	satiated	stimuli/non_foods\non-food_inanimate_skirt.jpg	1	2	1	non-food_inanimate_skirt	0	P	11	0	209	0		0	0	99.8991315001622	99.9991172002628
21662	0.0999889001250267	275	satiated	stimuli/foods\strawberry.jpg	1	2	1	strawberry	1	C	1	0	272	1	a	0	0	100.04913030006	100.149119200185
21699.5	0.0999754001386464	276	satiated	stimuli/non_foods\non-food_animate_parrot.jpg	1	2	1	non-food_animate_parrot	0	H	5	0	133	0		0	0	100.199135700241	100.299111100379
21737	0.0999853000976145	277	satiated	stimuli/foods\green_olives.jpg	1	2	1	green_olives	1	F	3	0	62	0		0	0	100.34912810009	100.449113400187
21774.5	0.0999834001995623	278	satiated	stimuli/non_foods\non-food_animate_baby_sitting.jpg	1	2	1	non-food_animate_baby_sitting	0	B	0	0	93	0		0	0	100.499125800095	100.599109200295
21812	0.0999871999956667	279	satiated	stimuli/non_foods\non-food_inanimate_nailpolish.jpg	1	2	1	non-food_inanimate_nailpolish	0	R	12	0	195	0		0	0	100.649122800212	100.749110000208
22424.5	0.0999305001460016	280	satiated	stimuli/foods\cabbage.jpg	1	3	1	cabbage	1	J	6	0	16	0		0	0	103.099147600122	103.199078100268
22462	0.0999809000641108	281	satiated	stimuli/foods\apple.jpg	1	3	1	apple	1	Z	18	0	1	0		0	0	103.249095300213	103.349076200277
22499.5	0.099981399718672	282	satiated	stimuli/non_foods\non-food_inanimate_clover.jpg	1	3	1	non-food_inanimate_clover	0	V	15	0	174	0		0	0	103.399091200437	103.499072600156
22537	0.0999783999286592	283	satiated	stimuli/non_foods\non-food_animate_penguin.jpg	1	3	1	non-food_animate_penguin	0	C	1	0	135	0		0	0	103.549086600076	103.649065000005
22574.5	0.0999841000884771	284	satiated	stimuli/foods\avocado.jpg	1	3	1	avocado	1	N	10	0	5	0		0	0	103.699090000242	103.79907410033
22612	0.100015100091696	285	satiated	stimuli/foods\frankfurter_and_provolone_salad.jpg	1	3	1	frankfurter_and_provolone_salad	1	K	7	0	49	0		0	0	103.849056200124	103.949071300216
22649.5	0.0999863999895751	286	satiated	stimuli/non_foods\non-food_inanimate_canoe.jpg	1	3	1	non-food_inanimate_canoe	0	H	5	0	170	0		0	0	103.999085300136	104.099071700126
22687	0.0999676999635994	287	satiated	stimuli/foods\stew_with_potatoes_and_carrots.jpg	1	3	1	stew_with_potatoes_and_carrots	1	V	15	0	271	0		0	0	104.14909980027	104.249067500234
22724.5	0.0999862002208829	288	satiated	stimuli/foods\cannoli.jpg	1	3	1	cannoli	1	W	16	0	17	0		0	0	104.299080200028	104.399066400249
22762	0.0999815999530256	289	satiated	stimuli/foods\raw_ham.jpg	1	3	1	raw_ham	1	V	15	0	253	0		0	0	104.449080400169	104.549062000122
22799.5	0.100004599895328	290	satiated	stimuli/non_foods\non-food_animate_sea_lion.jpg	1	3	1	non-food_animate_sea_lion	0	F	3	0	143	0		0	0	104.599078200292	104.699082800187
22837	0.10003439988941	291	satiated	stimuli/foods\coconut.jpg	1	3	1	coconut	1	N	10	0	33	0		0	0	104.749071600381	104.849106000271
22874.5	0.0999602996744215	292	satiated	stimuli/non_foods\non-food_inanimate_bucket.jpg	1	3	1	non-food_inanimate_bucket	0	W	16	0	165	0		0	0	104.899090800434	104.999051100109
22912	0.0999819999560714	293	satiated	stimuli/non_foods\non-food_inanimate_chandelier.jpg	1	3	1	non-food_inanimate_chandelier	0	K	7	0	173	0		0	0	105.049062200356	105.149044200312
22949.5	0.099993800278753	294	satiated	stimuli/foods\cream_donuts.jpg	1	3	1	cream_donuts	1	B	0	0	39	0		0	0	105.199051300064	105.299045100342
22987	0.0999841000884771	295	satiated	stimuli/foods\salami.jpg	1	3	1	salami	1	U	23	1	263	0		0	0	105.349064700305	105.449048800394
23024.5	0.0999930002726614	296	satiated	stimuli/non_foods\non-food_inanimate_cap.jpg	1	3	1	non-food_inanimate_cap	0	V	15	0	171	0		0	0	105.499061800074	105.599054800346
23062	0.100009500049055	297	satiated	stimuli/foods\pancakes.jpg	1	3	1	pancakes	1	D	2	0	234	0		0	0	105.649038500153	105.749048000202
23099.5	0.0999867999926209	298	satiated	stimuli/foods\baked_cod_with_carrots_and_green_beans.jpg	1	3	1	baked_cod_with_carrots_and_green_beans	1	W	16	0	7	0		0	0	105.799062000122	105.899048800115
23137	0.099974799901247	299	satiated	stimuli/non_foods\non-food_animate_cheetah.jpg	1	3	1	non-food_animate_cheetah	0	B	0	0	100	0		0	0	105.949072000105	106.049046800006
23174.5	0.0999779999256134	300	satiated	stimuli/non_foods\non-food_inanimate_bowling_ball.jpg	1	3	1	non-food_inanimate_bowling_ball	0	V	15	0	162	0		0	0	106.099064900074	106.1990429
23212	0.0999903003685176	301	satiated	stimuli/non_foods\non-food_animate_donkey.jpg	1	3	1	non-food_animate_donkey	0	Z	18	0	107	0		0	0	106.249055800028	106.349046100397
23249.5	0.100002699997276	302	satiated	stimuli/foods\lettuce.jpg	1	3	1	lettuce	1	R	12	0	75	0		0	0	106.399038200267	106.499040900264
23287	0.100017500109971	303	satiated	stimuli/foods\omelette.jpg	1	3	1	omelette	1	M	9	0	228	0		0	0	106.54906790005	106.64908540016
23324.5	0.0999819003045559	304	satiated	stimuli/foods\ginger_root.jpg	1	3	1	ginger_root	1	B	0	0	57	0		0	0	106.699055999983	106.799037900288
23362	0.0999759002588689	305	satiated	stimuli/non_foods\non-food_inanimate_skateboard.jpg	1	3	1	non-food_inanimate_skateboard	0	N	10	0	208	0		0	0	106.849054099992	106.949030000251
23399.5	0.0999942999333143	306	satiated	stimuli/non_foods\non-food_animate_young_boy.jpg	1	3	1	non-food_animate_young_boy	0	G	4	0	156	0		0	0	106.999042900279	107.099037200212
23437	0.0999888996593654	307	satiated	stimuli/foods\peas.jpg	1	3	1	peas	1	W	16	0	240	0		0	0	107.149036700372	107.249025600031
23474.5	0.100012499839067	308	satiated	stimuli/non_foods\non-food_animate_mammoth.jpg	1	3	1	non-food_animate_mammoth	0	N	10	0	128	0		0	0	107.299018000253	107.399030500092
23512	0.0999822001904249	309	satiated	stimuli/non_foods\non-food_inanimate_guitar.jpg	1	3	1	non-food_inanimate_guitar	0	X	17	0	185	0		0	0	107.449046100024	107.549028300215
23549.5	0.0999799999408424	310	satiated	stimuli/foods\donut.jpg	1	3	1	donut	1	S	13	0	44	0		0	0	107.599042000249	107.69902200019
23587	0.0999904000200331	311	satiated	stimuli/non_foods\non-food_animate_clown.jpg	1	3	1	non-food_animate_clown	0	W	16	0	102	0		0	0	107.749039000366	107.849029400386
23624.5	0.0999846002086997	312	satiated	stimuli/foods\mushroom.jpg	1	3	1	mushroom	1	A	19	1	85	0		0	0	107.899038400035	107.999023000244
23662	0.0999898998998106	313	satiated	stimuli/non_foods\non-food_inanimate_couch.jpg	1	3	1	non-food_inanimate_couch	0	F	3	0	176	0		0	0	108.049034200143	108.149024100043
23699.5	0.099980500061065	314	satiated	stimuli/non_foods\non-food_inanimate_ring.jpg	1	3	1	non-food_inanimate_ring	0	P	11	0	203	0		0	0	108.199037600309	108.29901810037
23737	0.10000290023163	315	satiated	stimuli/non_foods\non-food_animate_horse.jpg	1	3	1	non-food_animate_horse	0	F	3	0	119	0		0	0	108.349042600021	108.449045500252
23774.5	0.0999822001904249	316	satiated	stimuli/non_foods\non-food_animate_peacock.jpg	1	3	1	non-food_animate_peacock	0	V	15	0	134	1	a	0.6918268003501	1	108.499037100002	108.599019300193
23812	0.0999884000048041	317	satiated	stimuli/non_foods\non-food_animate_tortoise.jpg	1	3	1	non-food_animate_tortoise	0	S	13	0	153	0		0	0	108.649028700311	108.749017100316
23849.5	0.0999851999804378	318	satiated	stimuli/foods\raw_sausage.jpg	1	3	1	raw_sausage	1	C	1	0	254	0		0	0	108.799029500224	108.899014700204
23887	0.0999846998602152	319	satiated	stimuli/foods\chestnut.jpg	1	3	1	chestnut	1	S	13	0	24	0		0	0	108.949026500341	109.049011200201
23924.5	0.0999862998723984	320	satiated	stimuli/foods\fennel.jpg	1	3	1	fennel	1	H	5	0	47	0		0	0	109.09902690025	109.199013200123
23962	0.0999823999591172	321	satiated	stimuli/foods\green_beans.jpg	1	3	1	green_beans	1	D	2	0	61	0		0	0	109.249015800189	109.348998200148
23999.5	0.0999863003380597	322	satiated	stimuli/foods\apricot.jpg	1	3	1	apricot	1	P	11	0	2	0		0	0	109.399021300022	109.49900760036
24037	0.0999922002665699	323	satiated	stimuli/non_foods\non-food_animate_camel.jpg	1	3	1	non-food_animate_camel	0	C	1	0	97	0		0	0	109.549014199991	109.649006400257
24074.5	0.100004400126636	324	satiated	stimuli/non_foods\non-food_inanimate_bicycle.jpg	1	3	1	non-food_inanimate_bicycle	0	S	13	0	161	0		0	0	109.69900060026	109.799005000386
24112	0.0999845000915229	325	satiated	stimuli/non_foods\non-food_animate_frog.jpg	1	3	1	non-food_animate_frog	0	G	4	0	113	0		0	0	109.849020400085	109.949004900176
24149.5	0.0999863999895751	326	satiated	stimuli/foods\rice_cake.jpg	1	3	1	rice_cake	1	H	5	0	258	0		0	0	109.999015800189	110.099002200179
24187	0.100002100225538	327	satiated	stimuli/foods\cooked_prawn.jpg	1	3	1	cooked_prawn	1	C	1	0	36	0		0	0	110.149009000044	110.24901110027
24224.5	0.0999630000442266	328	satiated	stimuli/non_foods\non-food_animate_baby_sitting.jpg	1	3	1	non-food_animate_baby_sitting	0	Z	18	0	93	0		0	0	110.29903430026	110.398997300304
24262	0.0999829000793397	329	satiated	stimuli/foods\oyster.jpg	1	3	1	oyster	1	H	5	0	233	0		0	0	110.449009200092	110.548992100172
24299.5	0.099987399764359	330	satiated	stimuli/non_foods\non-food_animate_cat.jpg	1	3	1	non-food_animate_cat	0	R	12	0	98	0		0	0	110.599007100333	110.698994500097
24337	0.0999861001037061	331	satiated	stimuli/foods\mandarin.jpg	1	3	1	mandarin	1	S	13	0	79	0		0	0	110.749004800338	110.848990900442
24374.5	0.0999885997734964	332	satiated	stimuli/foods\cupcake.jpg	1	3	1	cupcake	1	W	16	0	42	0		0	0	110.899001300335	110.998989900108
24412	0.0999890002422035	333	satiated	stimuli/foods\cereal.jpg	1	3	1	cereal	1	S	13	0	22	0		0	0	111.04900150001	111.148990500253
24449.5	0.0999970003031194	334	satiated	stimuli/non_foods\non-food_inanimate_stoplight.jpg	1	3	1	non-food_inanimate_stoplight	0	Z	18	0	214	0		0	0	111.198999700136	111.29899670044
24487	0.0999859999865294	335	satiated	stimuli/non_foods\non-food_inanimate_cactus_pot_plant.jpg	1	3	1	non-food_inanimate_cactus_pot_plant	0	R	12	0	169	0		0	0	111.349000300281	111.448986300267
24524.5	0.0999834998510778	336	satiated	stimuli/non_foods\non-food_animate_bat.jpg	1	3	1	non-food_animate_bat	0	F	3	0	94	0		0	0	111.498997500166	111.598981000017
24562	0.0999871003441513	337	satiated	stimuli/non_foods\non-food_animate_slug.jpg	1	3	1	non-food_animate_slug	0	X	17	0	148	0		0	0	111.64899310004	111.748980200384
24599.5	0.099987699650228	338	satiated	stimuli/non_foods\non-food_inanimate_briefcase.jpg	1	3	1	non-food_inanimate_briefcase	0	F	3	0	163	0		0	0	111.798994700424	111.898982400075
24637	0.0999600999057293	339	satiated	stimuli/non_foods\non-food_animate_owl.jpg	1	3	1	non-food_animate_owl	0	J	6	0	132	0		0	0	111.949016100261	112.048976200167
24674.5	0.0999885997734964	340	satiated	stimuli/foods\salmon.jpg	1	3	1	salmon	1	V	15	0	264	0		0	0	112.098991100211	112.198979699984
24712	0.0999741000123322	341	satiated	stimuli/foods\roasted_chicken.jpg	1	3	1	roasted_chicken	1	C	1	0	261	0		0	0	112.248987600207	112.34896170022
24749.5	0.0999770001508296	342	satiated	stimuli/non_foods\non-food_inanimate_scissors.jpg	1	3	1	non-food_inanimate_scissors	0	G	4	0	205	0		0	0	112.398985200096	112.498962200247
24787	0.0999899003654718	343	satiated	stimuli/foods\cucumber.jpg	1	3	1	cucumber	1	X	17	0	41	0		0	0	112.548982799985	112.64897270035
24824.5	0.0999706997536123	344	satiated	stimuli/non_foods\non-food_inanimate_hay.jpg	1	3	1	non-food_inanimate_hay	0	L	8	0	187	0		0	0	112.698981200345	112.798951900098
24862	0.0999863999895751	345	satiated	stimuli/non_foods\non-food_inanimate_button.jpg	1	3	1	non-food_inanimate_button	0	S	13	0	168	0		0	0	112.848983700387	112.948970100377
24899.5	0.0999984000809491	346	satiated	stimuli/non_foods\non-food_inanimate_suitcase.jpg	1	3	1	non-food_inanimate_suitcase	0	T	14	0	215	0		0	0	112.998979300261	113.098977700341
24937	0.0999867003411055	347	satiated	stimuli/non_foods\non-food_animate_dachshund.jpg	1	3	1	non-food_animate_dachshund	0	D	2	0	104	0		0	0	113.148976400029	113.24896310037
24974.5	0.0999897001311183	348	satiated	stimuli/foods\potato_chips.jpg	1	3	1	potato_chips	1	N	10	0	247	0		0	0	113.298975100275	113.398964800406
25012	0.0999760003760457	349	satiated	stimuli/non_foods\non-food_animate_raccoon.jpg	1	3	1	non-food_animate_raccoon	0	H	5	0	139	0		0	0	113.448983700015	113.548959700391
25049.5	0.0999735002405941	350	satiated	stimuli/foods\chocolate_pudding.jpg	1	3	1	chocolate_pudding	1	B	0	0	29	0		0	0	113.598971100058	113.698944600299
25087	0.0999671998433769	351	satiated	stimuli/non_foods\non-food_inanimate_desk.jpg	1	3	1	non-food_inanimate_desk	0	S	13	0	178	0		0	0	113.748990900349	113.848958100192
25124.5	0.0999855999834836	352	satiated	stimuli/non_foods\non-food_inanimate_fire_extinguisher.jpg	1	3	1	non-food_inanimate_fire_extinguisher	0	H	5	0	181	0		0	0	113.898969300091	113.998954900075
25162	0.0999859999865294	353	satiated	stimuli/non_foods\non-food_animate_duck.jpg	1	3	1	non-food_animate_duck	0	M	9	0	109	0		0	0	114.04894650029	114.148932500277
25199.5	0.09998539974913	354	satiated	stimuli/foods\mortadella.jpg	1	3	1	mortadella	1	G	4	0	83	0		0	0	114.198967300355	114.298952700105
25237	0.0999920996837318	355	satiated	stimuli/non_foods\non-food_inanimate_highlighter.jpg	1	3	1	non-food_inanimate_highlighter	0	Z	18	0	189	0		0	0	114.348956700414	114.448948800098
25274.5	0.0999817000702024	356	satiated	stimuli/foods\fries.jpg	1	3	1	fries	1	X	17	0	52	0		0	0	114.498963200022	114.598944900092
25312	0.0999814998358488	357	satiated	stimuli/foods\fruit_salad.jpg	1	3	1	fruit_salad	1	T	14	0	55	0		0	0	114.648962300271	114.748943800107
25349.5	0.100037100259215	358	satiated	stimuli/non_foods\non-food_animate_chicken.jpg	1	3	1	non-food_animate_chicken	0	Z	18	0	101	0		0	0	114.798939500004	114.898976600263
25387	0.100003200117499	359	satiated	stimuli/non_foods\non-food_animate_gorilla.jpg	1	3	1	non-food_animate_gorilla	0	S	13	0	116	0		0	0	114.94894290017	115.048946100287
25424.5	0.0999829000793397	360	satiated	stimuli/foods\pumpkin.jpg	1	3	1	pumpkin	1	H	5	0	250	0		0	0	115.098956200294	115.198939100374
25462	0.0999894002452493	361	satiated	stimuli/foods\lemon.jpg	1	3	1	lemon	1	J	6	0	72	0		0	0	115.248953300063	115.348942700308
25499.5	0.100014599971473	362	satiated	stimuli/foods\ice_cream.jpg	1	3	1	ice_cream	1	P	11	0	68	0		0	0	115.398955800105	115.498970400076
25537	0.0999481999315321	363	satiated	stimuli/foods\minestrone_soup.jpg	1	3	1	minestrone_soup	1	H	5	0	82	0		0	0	115.54898930015	115.648937500082
25574.5	0.0999997998587787	364	satiated	stimuli/foods\chocolate_chip_cookies.jpg	1	3	1	chocolate_chip_cookies	1	Z	18	0	27	0		0	0	115.698936300352	115.798936100211
25612	0.0999842002056539	365	satiated	stimuli/non_foods\non-food_animate_cow.jpg	1	3	1	non-food_animate_cow	0	J	6	0	103	0		0	0	115.848946500104	115.94893070031
25649.5	0.0999880000017583	366	satiated	stimuli/non_foods\non-food_animate_baby_crawling.jpg	1	3	1	non-food_animate_baby_crawling	0	C	1	0	92	0		0	0	115.998943200335	116.098931200337
25687	0.0999803002923727	367	satiated	stimuli/foods\bagel.jpg	1	3	1	bagel	1	K	7	0	6	0		0	0	116.148946700152	116.248927000444
25724.5	0.0999799999408424	368	satiated	stimuli/non_foods\non-food_inanimate_padlock.jpg	1	3	1	non-food_inanimate_padlock	0	M	9	0	199	0		0	0	116.298942100257	116.398922100198
25762	0.0999838002026081	369	satiated	stimuli/foods\grapes.jpg	1	3	1	grapes	1	W	16	0	60	0		0	0	116.448934399989	116.548918200191
25799.5	0.0999831999652088	370	satiated	stimuli/foods\cracker.jpg	1	3	1	cracker	1	O	22	1	38	0		0	0	116.598931400105	116.698914600071
25837	0.0999797997064888	371	satiated	stimuli/foods\potato_and_green_bean_salad.jpg	1	3	1	potato_and_green_bean_salad	1	P	11	0	246	0		0	0	116.748930500355	116.848910300061
25874.5	0.100011800415814	372	satiated	stimuli/non_foods\non-food_inanimate_rack.jpg	1	3	1	non-food_inanimate_rack	0	H	5	0	202	0		0	0	116.898910399992	116.998922200408
25912	0.0999857001006603	373	satiated	stimuli/non_foods\non-food_animate_parrot.jpg	1	3	1	non-food_animate_parrot	0	C	1	0	133	1	a	0.541822500061244	1	117.048932100181	117.148917800281
25949.5	0.100030300207436	374	satiated	stimuli/foods\fried_zucchini.jpg	1	3	1	fried_zucchini	1	L	8	0	51	0		0	0	117.198934100103	117.29896440031
25987	0.0999415996484458	375	satiated	stimuli/non_foods\non-food_inanimate_folding_chair.jpg	1	3	1	non-food_inanimate_folding_chair	0	M	9	0	182	0		0	0	117.34897140041	117.448913000058
26024.5	0.0999816996045411	376	satiated	stimuli/non_foods\non-food_animate_young_girl.jpg	1	3	1	non-food_animate_young_girl	0	L	8	0	157	0		0	0	117.498927000444	117.598908700049
26062	0.0999881001189351	377	satiated	stimuli/foods\lamb_chops.jpg	1	3	1	lamb_chops	1	K	7	0	70	0		0	0	117.648929200135	117.748917300254
26099.5	0.100006999913603	378	satiated	stimuli/foods\grapefruits.jpg	1	3	1	grapefruits	1	F	3	0	59	0		0	0	117.798904900439	117.898911900353
26137	0.0999898998998106	379	satiated	stimuli/non_foods\non-food_animate_green_bug.jpg	1	3	1	non-food_animate_green_bug	0	K	7	0	118	0		0	0	117.948922600131	118.048912500031
26174.5	0.0999640999361873	380	satiated	stimuli/non_foods\non-food_animate_Causasian_man.jpg	1	3	1	non-food_animate_Causasian_man	0	S	13	0	89	0		0	0	118.098923200276	118.198887300212
26212	0.0999869997613132	381	satiated	stimuli/non_foods\non-food_inanimate_buds.jpg	1	3	1	non-food_inanimate_buds	0	M	9	0	166	0		0	0	118.248921000399	118.34890800016
26249.5	0.0999552998691797	382	satiated	stimuli/non_foods\non-food_inanimate_waterlily.jpg	1	3	1	non-food_inanimate_waterlily	0	W	16	0	226	0		0	0	118.3989508003	118.498906100169
26287	0.0999839999713004	383	satiated	stimuli/foods\mussels.jpg	1	3	1	mussels	1	P	11	0	86	0		0	0	118.548917900305	118.648901900277
26324.5	0.099985699634999	384	satiated	stimuli/non_foods\non-food_inanimate_drum_set.jpg	1	3	1	non-food_inanimate_drum_set	0	M	9	0	179	0		0	0	118.69891330041	118.798899000045
26362	0.099983399733901	385	satiated	stimuli/non_foods\non-food_inanimate_nailpolish.jpg	1	3	1	non-food_inanimate_nailpolish	0	D	2	0	195	0		0	0	118.848914500326	118.94889790006
26399.5	0.0999647001735866	386	satiated	stimuli/non_foods\non-food_inanimate_nest.jpg	1	3	1	non-food_inanimate_nest	0	N	10	0	196	0		0	0	118.998925100081	119.098889800254
26437	0.0999712999910116	387	satiated	stimuli/foods\chocolate_bar.jpg	1	3	1	chocolate_bar	1	P	11	0	26	0		0	0	119.148925200105	119.248896500096
26474.5	0.0999863999895751	388	satiated	stimuli/foods\spinach.jpg	1	3	1	spinach	1	M	9	0	268	0		0	0	119.2989062001	119.398892600089
26512	0.0999684003181756	389	satiated	stimuli/non_foods\non-food_inanimate_fern.jpg	1	3	1	non-food_inanimate_fern	0	S	13	0	180	0		0	0	119.448904999997	119.548873400316
26549.5	0.099983099848032	390	satiated	stimuli/foods\nectarine.jpg	1	3	1	nectarine	1	M	9	0	87	0		0	0	119.59889980033	119.698882900178
26587	0.0999837000854313	391	satiated	stimuli/foods\wafer.jpg	1	3	1	wafer	1	E	20	1	277	0		0	0	119.748896300327	119.848880000412
26624.5	0.0999960000626743	392	satiated	stimuli/non_foods\non-food_inanimate_sun_flower.jpg	1	3	1	non-food_inanimate_sun_flower	0	H	5	0	216	0		0	0	119.898890400305	119.998886400368
26662	0.0999873001128435	393	satiated	stimuli/foods\corncob.jpg	1	3	1	corncob	1	K	7	0	37	0		0	0	120.048900000285	120.148887300398
26699.5	0.0999877001158893	394	satiated	stimuli/non_foods\non-food_inanimate_shell.jpg	1	3	1	non-food_inanimate_shell	0	R	12	0	206	1	a	0.557054799981415	1	120.198894300032	120.298882000148
26737	0.0999881001189351	395	satiated	stimuli/foods\risotto_with_peas_and_asparagus_tips.jpg	1	3	1	risotto_with_peas_and_asparagus_tips	1	D	2	0	259	0		0	0	120.348895000294	120.448883100413
26774.5	0.0999886998906732	396	satiated	stimuli/foods\carrot.jpg	1	3	1	carrot	1	T	14	0	19	0		0	0	120.498893600423	120.598882300314
26812	0.099989099893719	397	satiated	stimuli/foods\museli_bars.jpg	1	3	1	museli_bars	1	M	9	0	84	0		0	0	120.64888840029	120.748877500184
26849.5	0.0999988997355103	398	satiated	stimuli/non_foods\non-food_animate_fox.jpg	1	3	1	non-food_animate_fox	0	B	0	0	112	0		0	0	120.798905700445	120.898904600181
26887	0.0999795002862811	399	satiated	stimuli/non_foods\non-food_inanimate_cupboard.jpg	1	3	1	non-food_inanimate_cupboard	0	M	9	0	177	0		0	0	120.948889600113	121.048869100399
26924.5	0.0999847003258765	400	satiated	stimuli/non_foods\non-food_animate_ladybug.jpg	1	3	1	non-food_animate_ladybug	0	C	1	0	124	0		0	0	121.09888090007	121.198865600396
26962	0.0999755999073386	401	satiated	stimuli/foods\risotto_with_zucchini.jpg	1	3	1	risotto_with_zucchini	1	J	6	0	260	0		0	0	121.248871500138	121.348847100046
26999.5	0.0999822998419404	402	satiated	stimuli/foods\beetroots.jpg	1	3	1	beetroots	1	G	4	0	10	0		0	0	121.398878500331	121.498860800173
27037	0.0999885001219809	403	satiated	stimuli/foods\raisins.jpg	1	3	1	raisins	1	P	11	0	252	0		0	0	121.548873200081	121.648861700203
27074.5	0.0999825000762939	404	satiated	stimuli/non_foods\non-food_inanimate_jeans.jpg	1	3	1	non-food_inanimate_jeans	0	C	1	0	191	0		0	0	121.698884900194	121.79886740027
27112	0.100006100255996	405	satiated	stimuli/foods\toasted_bread_with_tomatoes.jpg	1	3	1	toasted_bread_with_tomatoes	1	B	0	0	275	0		0	0	121.848851100076	121.948857200332
27149.5	0.0999937998130918	406	satiated	stimuli/foods\capsicum.jpg	1	3	1	capsicum	1	W	16	0	18	0		0	0	121.998872500379	122.098866300192
27187	0.0999775999225676	407	satiated	stimuli/foods\clams.jpg	1	3	1	clams	1	C	1	0	32	0		0	0	122.148877200205	122.248854800127
27224.5	0.0999865001067519	408	satiated	stimuli/foods\meatballs.jpg	1	3	1	meatballs	1	Z	18	0	81	0		0	0	122.298865600023	122.39885210013
27262	0.0999866998754442	409	satiated	stimuli/non_foods\non-food_animate_llama.jpg	1	3	1	non-food_animate_llama	0	F	3	0	127	0		0	0	122.448866200168	122.548852900043
27299.5	0.0999544998630881	410	satiated	stimuli/foods\pea_pod.jpg	1	3	1	pea_pod	1	K	7	0	237	0		0	0	122.598890200257	122.69884470012
27337	0.0999771002680063	411	satiated	stimuli/foods\gnocchi.jpg	1	3	1	gnocchi	1	F	3	0	58	0		0	0	122.748870700132	122.8488478004
27374.5	0.0999867999926209	412	satiated	stimuli/foods\garlic.jpg	1	3	1	garlic	1	G	4	0	56	0		0	0	122.898856500164	122.998843300156
27412	0.100008900277317	413	satiated	stimuli/foods\spring_onions.jpg	1	3	1	spring_onions	1	B	0	0	269	0		0	0	123.048840600066	123.148849500343
27449.5	0.0999890002422035	414	satiated	stimuli/foods\hamburger.jpg	1	3	1	hamburger	1	Z	18	0	64	0		0	0	123.198861700017	123.298850700259
27487	0.0999858998693526	415	satiated	stimuli/non_foods\non-food_animate_woman.jpg	1	3	1	non-food_animate_woman	0	B	0	0	154	0		0	0	123.348862000275	123.448847900145
27524.5	0.0999861001037061	416	satiated	stimuli/foods\cinnamon_sroll.jpg	1	3	1	cinnamon_sroll	1	J	6	0	31	0		0	0	123.498861200176	123.59884730028
27562	0.0999918999150395	417	satiated	stimuli/foods\lime.jpg	1	3	1	lime	1	L	8	0	76	0		0	0	123.64885430038	123.748846200295
27599.5	0.0999900000169873	418	satiated	stimuli/foods\peach.jpg	1	3	1	peach	1	V	15	0	238	0		0	0	123.798854200169	123.898844200186
27637	0.0999880000017583	419	satiated	stimuli/foods\prawn.jpg	1	3	1	prawn	1	X	17	0	249	0		0	0	123.948854100425	124.048842100427
28266.25	0.0999990999698639	420	satiated	stimuli/non_foods\non-food_animate_dolphin.jpg	1	4	1	non-food_animate_dolphin	0	K	7	0	106	0		0	0	126.465478800237	126.565477900207
28303.75	0.0999838002026081	421	satiated	stimuli/foods\almonds.jpg	1	4	1	almonds	1	R	12	0	0	0		0	0	126.615491000004	126.715474800207
28341.25	0.0999839999713004	422	satiated	stimuli/foods\waffle.jpg	1	4	1	waffle	1	S	13	0	278	0		0	0	126.765492300037	126.865476300009
28378.75	0.0999799999408424	423	satiated	stimuli/foods\savory_pie.jpg	1	4	1	savory_pie	1	D	2	0	265	0		0	0	126.915489500389	127.015469500329
28416.25	0.0999882002361119	424	satiated	stimuli/non_foods\non-food_inanimate_pine_cone.jpg	1	4	1	non-food_inanimate_pine_cone	0	G	4	0	200	0		0	0	127.065486100037	127.165474300273
28453.75	0.0999775999225676	425	satiated	stimuli/foods\oven-roasted_tomatoes.jpg	1	4	1	oven-roasted_tomatoes	1	F	3	0	232	0		0	0	127.215488300193	127.315465900116
28491.25	0.0999803002923727	426	satiated	stimuli/non_foods\non-food_inanimate_tulip.jpg	1	4	1	non-food_inanimate_tulip	0	L	8	0	224	0		0	0	127.365485100076	127.465465400368
28528.75	0.0999822998419404	427	satiated	stimuli/foods\mango.jpg	1	4	1	mango	1	C	1	0	80	0		0	0	127.515483800322	127.615466100164
28566.25	0.0999843999743462	428	satiated	stimuli/non_foods\non-food_animate_runner.jpg	1	4	1	non-food_animate_runner	0	N	10	0	142	0		0	0	127.665478800423	127.765463200398
28603.75	0.0999532998539507	429	satiated	stimuli/foods\radish.jpg	1	4	1	radish	1	W	16	0	251	0		0	0	127.815522600431	127.915475900285
28641.25	0.0999769000336528	430	satiated	stimuli/non_foods\non-food_animate_caterpillar.jpg	1	4	1	non-food_animate_caterpillar	0	X	17	0	99	0		0	0	127.965485400055	128.065462300088
28678.75	0.099983399733901	431	satiated	stimuli/foods\taco.jpg	1	4	1	taco	1	Z	18	0	274	0		0	0	128.115473800339	128.215457200073
28716.25	0.0999846002086997	432	satiated	stimuli/foods\cherry.jpg	1	4	1	cherry	1	J	6	0	23	0		0	0	128.265475200024	128.365459800232
28753.75	0.0999817000702024	433	satiated	stimuli/foods\fruit_flan.jpg	1	4	1	fruit_flan	1	S	13	0	53	0		0	0	128.415471000131	128.515452700201
28791.25	0.10000120010227	434	satiated	stimuli/foods\rice.jpg	1	4	1	rice	1	J	6	0	257	0		0	0	128.565450400114	128.665451600216
28828.75	0.0999851003289223	435	satiated	stimuli/foods\tomato.jpg	1	4	1	tomato	1	C	1	0	276	0		0	0	128.71547350008	128.815458600409
28866.25	0.0999823999591172	436	satiated	stimuli/non_foods\non-food_inanimate_skirt.jpg	1	4	1	non-food_inanimate_skirt	0	J	6	0	209	0		0	0	128.865465800278	128.965448200237
28903.75	0.0999881001189351	437	satiated	stimuli/non_foods\non-food_inanimate_teddy_bear.jpg	1	4	1	non-food_inanimate_teddy_bear	0	H	5	0	218	0		0	0	129.015463900287	129.115452000406
28941.25	0.0999869997613132	438	satiated	stimuli/non_foods\non-food_animate_snail.jpg	1	4	1	non-food_animate_snail	0	L	8	0	149	0		0	0	129.16546170041	129.265448700171
28978.75	0.0999831999652088	439	satiated	stimuli/foods\egg.jpg	1	4	1	egg	1	B	0	0	45	0		0	0	129.315458800178	129.415442000143
29016.25	0.100018399767578	440	satiated	stimuli/foods\pasta_carbonara.jpg	1	4	1	pasta_carbonara	1	Z	18	0	236	0		0	0	129.46545780031	129.565476200078
29053.75	0.099945199675858	441	satiated	stimuli/non_foods\non-food_animate_student_female.jpg	1	4	1	non-food_animate_student_female	0	R	12	0	151	0		0	0	129.615496100392	129.715441300068
29091.25	0.0999839003197849	442	satiated	stimuli/non_foods\non-food_inanimate_rope.jpg	1	4	1	non-food_inanimate_rope	0	W	16	0	204	0		0	0	129.765456200112	129.865440100431
29128.75	0.0999700999818742	443	satiated	stimuli/non_foods\non-food_inanimate_stapler.jpg	1	4	1	non-food_inanimate_stapler	0	Z	18	0	213	0		0	0	129.915453900117	130.015424000099
29166.25	0.0999843999743462	444	satiated	stimuli/foods\celery.jpg	1	4	1	celery	1	N	10	0	21	0		0	0	130.065452700015	130.16543709999
29203.75	0.0999680999666452	445	satiated	stimuli/foods\broccoli.jpg	1	4	1	broccoli	1	D	2	0	13	0		0	0	130.215452400036	130.315420500003
29241.25	0.100007699802518	446	satiated	stimuli/foods\hotdog.jpg	1	4	1	hotdog	1	C	1	0	67	0		0	0	130.36542460043	130.465432300232
29278.75	0.0999927995726466	447	satiated	stimuli/foods\rockmelon.jpg	1	4	1	rockmelon	1	N	10	0	262	0		0	0	130.515435800422	130.615428599995
29316.25	0.09997220011428	448	satiated	stimuli/non_foods\non-food_inanimate_watering_can.jpg	1	4	1	non-food_inanimate_watering_can	0	H	5	0	225	0		0	0	130.665463200305	130.765435400419
29353.75	0.099972799886018	449	satiated	stimuli/non_foods\non-food_inanimate_towel.jpg	1	4	1	non-food_inanimate_towel	0	V	15	0	221	0		0	0	130.81544770021	130.915420500096
29391.25	0.0999875999987125	450	satiated	stimuli/foods\green_olives.jpg	1	4	1	green_olives	1	W	16	0	62	0		0	0	130.965432200115	131.065419800114
29428.75	0.0999801000580192	451	satiated	stimuli/non_foods\non-food_inanimate_bamboo.jpg	1	4	1	non-food_inanimate_bamboo	0	C	1	0	159	0		0	0	131.115432800259	131.215412900317
29466.25	0.0999802998267114	452	satiated	stimuli/non_foods\non-food_animate_polar_bear.jpg	1	4	1	non-food_animate_polar_bear	0	F	3	0	137	0		0	0	131.265434400178	131.365414700005
29503.75	0.0999468001537025	453	satiated	stimuli/non_foods\non-food_inanimate_toilet.jpg	1	4	1	non-food_inanimate_toilet	0	R	12	0	220	0		0	0	131.41546870023	131.515415500384
29541.25	0.099978799931705	454	satiated	stimuli/non_foods\non-food_inanimate_headphones.jpg	1	4	1	non-food_inanimate_headphones	0	S	13	0	188	0		0	0	131.565431000199	131.665409800131
29578.75	0.0999859003350139	455	satiated	stimuli/foods\spaghetti_with_meat_sauce.jpg	1	4	1	spaghetti_with_meat_sauce	1	M	9	0	267	0		0	0	131.715425800066	131.815411700401
29616.25	0.0999993998557329	456	satiated	stimuli/non_foods\non-food_inanimate_construction_helment.jpg	1	4	1	non-food_inanimate_construction_helment	0	C	1	0	175	0		0	0	131.865418800153	131.965418200009
29653.75	0.0999846002086997	457	satiated	stimuli/foods\oregano.jpg	1	4	1	oregano	1	Z	18	0	231	0		0	0	132.015429500025	132.115414100233
29691.25	0.0999976000748575	458	satiated	stimuli/foods\lasagna.jpg	1	4	1	lasagna	1	N	10	0	71	0		0	0	132.165422100108	132.265419700183
29728.75	0.0999837997369468	459	satiated	stimuli/non_foods\non-food_animate_pigeon.jpg	1	4	1	non-food_animate_pigeon	0	B	0	0	136	0		0	0	132.315427100286	132.415410900023
29766.25	0.100025000050664	460	satiated	stimuli/non_foods\non-food_animate_rhino.jpg	1	4	1	non-food_animate_rhino	0	G	4	0	141	0		0	0	132.465399000328	132.565424000379
29803.75	0.0999716999940574	461	satiated	stimuli/non_foods\non-food_animate_butterfly.jpg	1	4	1	non-food_animate_butterfly	0	N	10	0	96	0		0	0	132.615426300094	132.715398000088
29841.25	0.099981399718672	462	satiated	stimuli/foods\banana.jpg	1	4	1	banana	1	H	5	0	9	0		0	0	132.765414300375	132.865395700093
29878.75	0.0999789000488818	463	satiated	stimuli/foods\cauliflower.jpg	1	4	1	cauliflower	1	L	8	0	20	0		0	0	132.915411300026	133.015390200075
29916.25	0.10000400012359	464	satiated	stimuli/foods\steak.jpg	1	4	1	steak	1	G	4	0	270	0		0	0	133.06539570028	133.165399700403
29953.75	0.0999965998344123	465	satiated	stimuli/non_foods\non-food_inanimate_leaf.jpg	1	4	1	non-food_inanimate_leaf	0	A	19	1	192	0		0	0	133.215401800349	133.315398400184
29991.25	0.0999845997430384	466	satiated	stimuli/non_foods\non-food_animate_monkey.jpg	1	4	1	non-food_animate_monkey	0	F	3	0	130	0		0	0	133.365407100413	133.465391700156
30028.75	0.0999964000657201	467	satiated	stimuli/non_foods\non-food_inanimate_moss.jpg	1	4	1	non-food_inanimate_moss	0	C	1	0	194	0		0	0	133.51540090004	133.615397300106
30066.25	0.0999861001037061	468	satiated	stimuli/foods\swordfish.jpg	1	4	1	swordfish	1	M	9	0	273	1	a	0.443213500082493	1	133.665409100242	133.765395200346
30103.75	0.099984799977392	469	satiated	stimuli/non_foods\non-food_inanimate_alarm_clock.jpg	1	4	1	non-food_inanimate_alarm_clock	0	K	7	0	158	0		0	0	133.815411200281	133.915396000259
30141.25	0.0999833000823855	470	satiated	stimuli/foods\watermelon.jpg	1	4	1	watermelon	1	D	2	0	279	0		0	0	133.965407600161	134.065390900243
30178.75	0.0999880000017583	471	satiated	stimuli/foods\linguine_with_clams.jpg	1	4	1	linguine_with_clams	1	C	1	0	77	0		0	0	134.115405800287	134.215393800288
30216.25	0.0999726997688413	472	satiated	stimuli/non_foods\non-food_inanimate_hammer.jpg	1	4	1	non-food_inanimate_hammer	0	H	5	0	186	0		0	0	134.265403500292	134.365376200061
30253.75	0.0999868996441364	473	satiated	stimuli/non_foods\non-food_animate_bee.jpg	1	4	1	non-food_animate_bee	0	L	8	0	95	0		0	0	134.415402100421	134.515389000066
30291.25	0.0999953001737595	474	satiated	stimuli/non_foods\non-food_inanimate_chair.jpg	1	4	1	non-food_inanimate_chair	0	S	13	0	172	0		0	0	134.565383600071	134.665378900245
30328.75	0.100001700222492	475	satiated	stimuli/non_foods\non-food_animate_elephant.jpg	1	4	1	non-food_animate_elephant	0	M	9	0	111	0		0	0	134.715375700034	134.815377400257
30366.25	0.100010700058192	476	satiated	stimuli/foods\baked_lamb_with_potatoes.jpg	1	4	1	baked_lamb_with_potatoes	1	C	1	0	8	0		0	0	134.865409800317	134.965420500375
30403.75	0.0999925001524389	477	satiated	stimuli/foods\honey.jpg	1	4	1	honey	1	D	2	0	66	0		0	0	135.015397700015	135.115390200168
30441.25	0.0999842998571694	478	satiated	stimuli/non_foods\non-food_animate_porcupine.jpg	1	4	1	non-food_animate_porcupine	0	V	15	0	138	0		0	0	135.165394100361	135.265378400218
30478.75	0.0999861001037061	479	satiated	stimuli/non_foods\non-food_animate_dragonfly.jpg	1	4	1	non-food_animate_dragonfly	0	G	4	0	108	0		0	0	135.315390100237	135.415376200341
30516.25	0.100032499991357	480	satiated	stimuli/foods\pear.jpg	1	4	1	pear	1	N	10	0	239	0		0	0	135.465390500147	135.565423000138
30553.75	0.0999798998236656	481	satiated	stimuli/foods\lollies.jpg	1	4	1	lollies	1	R	12	0	78	0		0	0	135.615394300316	135.715374200139
30591.25	0.0999970999546349	482	satiated	stimuli/non_foods\non-food_inanimate_bush.jpg	1	4	1	non-food_inanimate_bush	0	P	11	0	167	0		0	0	135.765388800297	135.865385900252
30628.75	0.0999617003835738	483	satiated	stimuli/non_foods\non-food_animate_seal.jpg	1	4	1	non-food_animate_seal	0	D	2	0	146	0		0	0	135.915408100002	136.015369800385
30666.25	0.0999933001585305	484	satiated	stimuli/foods\orange.jpg	1	4	1	orange	1	M	9	0	230	0		0	0	136.065376400016	136.165369700175
30703.75	0.0999845000915229	485	satiated	stimuli/foods\papaya.jpg	1	4	1	papaya	1	R	12	0	235	0		0	0	136.215384799987	136.315369300079
30741.25	0.0999843999743462	486	satiated	stimuli/non_foods\non-food_inanimate_bed.jpg	1	4	1	non-food_inanimate_bed	0	J	6	0	160	0		0	0	136.365382800344	136.465367200319
30778.75	0.0999902999028563	487	satiated	stimuli/non_foods\non-food_animate_swan.jpg	1	4	1	non-food_animate_swan	0	S	13	0	152	0		0	0	136.515377900098	136.6153682
30816.25	0.0999578000046313	488	satiated	stimuli/non_foods\non-food_animate_sea_turtle.jpg	1	4	1	non-food_animate_sea_turtle	0	M	9	0	144	0		0	0	136.665406300221	136.765364100225
30853.75	0.09998709987849	489	satiated	stimuli/foods\cooked_ham.jpg	1	4	1	cooked_ham	1	R	12	0	35	0		0	0	136.815373300109	136.915360399988
30891.25	0.0999847003258765	490	satiated	stimuli/non_foods\non-food_inanimate_toy_airplane.jpg	1	4	1	non-food_inanimate_toy_airplane	0	P	11	0	222	0		0	0	136.965374500025	137.065359200351
30928.75	0.0999862002208829	491	satiated	stimuli/non_foods\non-food_animate_squirrel.jpg	1	4	1	non-food_animate_squirrel	0	K	7	0	150	0		0	0	137.115347700194	137.215333900414
30966.25	0.0999880000017583	492	satiated	stimuli/non_foods\non-food_inanimate_speakers.jpg	1	4	1	non-food_inanimate_speakers	0	L	8	0	212	0		0	0	137.265368600376	137.365356600378
31003.75	0.0999886002391577	493	satiated	stimuli/foods\pomegranate.jpg	1	4	1	pomegranate	1	H	5	0	244	0		0	0	137.415363600012	137.515352200251
31041.25	0.0999874998815358	494	satiated	stimuli/foods\asparagus.jpg	1	4	1	asparagus	1	T	14	0	4	0		0	0	137.56536340015	137.665350900032
31078.75	0.0999854002147913	495	satiated	stimuli/foods\strawberry.jpg	1	4	1	strawberry	1	B	0	0	272	0		0	0	137.715363400057	137.815348800272
31116.25	0.0999905997887254	496	satiated	stimuli/foods\croissant.jpg	1	4	1	croissant	1	X	17	0	40	0		0	0	137.865358100273	137.965348700061
31153.75	0.0999949998222291	497	satiated	stimuli/non_foods\non-food_animate_lizard.jpg	1	4	1	non-food_animate_lizard	0	W	16	0	126	0		0	0	138.01535910042	138.115354100242
31191.25	0.0999778001569211	498	satiated	stimuli/foods\fried_calamari.jpg	1	4	1	fried_calamari	1	L	8	0	50	0		0	0	138.165361300111	138.265339100268
31228.75	0.0999854002147913	499	satiated	stimuli/foods\brownie.jpg	1	4	1	brownie	1	X	17	0	14	0		0	0	138.315356499981	138.415341900196
31266.25	0.099968499969691	500	satiated	stimuli/non_foods\non-food_inanimate_gloves.jpg	1	4	1	non-food_inanimate_gloves	0	F	3	0	183	0		0	0	138.465373700019	138.565342199989
31303.75	0.0999802998267114	501	satiated	stimuli/non_foods\non-food_inanimate_table.jpg	1	4	1	non-food_inanimate_table	0	Z	18	0	217	0		0	0	138.615358800162	138.715339099988
31341.25	0.0999846002086997	502	satiated	stimuli/foods\lentils.jpg	1	4	1	lentils	1	G	4	0	74	0		0	0	138.765353300143	138.865337900352
31378.75	0.0999854002147913	503	satiated	stimuli/foods\kiwi.jpg	1	4	1	kiwi	1	Z	18	0	69	0		0	0	138.915351700038	139.015337100253
31416.25	0.0999846998602152	504	satiated	stimuli/non_foods\non-food_animate_seahorse.jpg	1	4	1	non-food_animate_seahorse	0	V	15	0	145	0		0	0	139.065348300152	139.165333000012
31453.75	0.0999880996532738	505	satiated	stimuli/non_foods\non-food_animate_kangaroo.jpg	1	4	1	non-food_animate_kangaroo	0	M	9	0	122	0		0	0	139.215345400386	139.315333500039
31491.25	0.0999877997674048	506	satiated	stimuli/non_foods\non-food_animate_deer.jpg	1	4	1	non-food_animate_deer	0	X	17	0	105	0		0	0	139.365341500379	139.465329300147
31528.75	0.09999810019508	507	satiated	stimuli/non_foods\non-food_inanimate_nettle.jpg	1	4	1	non-food_inanimate_nettle	0	P	11	0	197	0		0	0	139.515332300216	139.615330400411
31566.25	0.0999902999028563	508	satiated	stimuli/non_foods\non-food_animate_mouse.jpg	1	4	1	non-food_animate_mouse	0	T	14	0	131	0		0	0	139.665338000283	139.765328300186
31603.75	0.0999813000671566	509	satiated	stimuli/foods\dates.jpg	1	4	1	dates	1	F	3	0	43	0		0	0	139.815345400013	139.91532670008
31641.25	0.0999861001037061	510	satiated	stimuli/foods\pepperoni_pizza.jpg	1	4	1	pepperoni_pizza	1	D	2	0	241	0		0	0	139.965334900189	140.065321000293
31678.75	0.0999965998344123	511	satiated	stimuli/non_foods\non-food_inanimate_protractor.jpg	1	4	1	non-food_inanimate_protractor	0	J	6	0	201	0		0	0	140.115337500349	140.215334100183
31716.25	0.0999406003393233	512	satiated	stimuli/non_foods\non-food_inanimate_grass.jpg	1	4	1	non-food_inanimate_grass	0	S	13	0	184	0		0	0	140.265379100107	140.365319700446
31753.75	0.0999902999028563	513	satiated	stimuli/non_foods\non-food_animate_skunk.jpg	1	4	1	non-food_animate_skunk	0	F	3	0	147	0		0	0	140.415331100114	140.515321400017
31791.25	0.0999839999713004	514	satiated	stimuli/non_foods\non-food_animate_lion.jpg	1	4	1	non-food_animate_lion	0	M	9	0	125	0		0	0	140.565333400387	140.665317400359
31828.75	0.0999858998693526	515	satiated	stimuli/non_foods\non-food_animate_iguana.jpg	1	4	1	non-food_animate_iguana	0	L	8	0	121	0		0	0	140.715328300372	140.815314200241
31866.25	0.10000880016014	516	satiated	stimuli/foods\chilli.jpg	1	4	1	chilli	1	F	3	0	25	0		0	0	140.865295900032	140.965304700192
31903.75	0.099985099863261	517	satiated	stimuli/foods\pineapple.jpg	1	4	1	pineapple	1	C	1	0	243	0		0	0	141.015320400242	141.115305500105
31941.25	0.0999806001782417	518	satiated	stimuli/foods\smoked_ham.jpg	1	4	1	smoked_ham	1	X	17	0	266	0		0	0	141.165320500266	141.265301100444
31978.75	0.100022800266743	519	satiated	stimuli/non_foods\non-food_inanimate_short_sleeved_shirt.jpg	1	4	1	non-food_inanimate_short_sleeved_shirt	0	O	22	1	207	0		0	0	141.315312399995	141.415335200261
32016.25	0.0999846998602152	520	satiated	stimuli/foods\potatoes.jpg	1	4	1	potatoes	1	J	6	0	248	0		0	0	141.465321100317	141.565305800177
32053.75	0.0999881997704506	521	satiated	stimuli/non_foods\non-food_inanimate_horn.jpg	1	4	1	non-food_inanimate_horn	0	B	0	0	190	0		0	0	141.615317200311	141.715305400081
32091.25	0.0999738001264632	522	satiated	stimuli/non_foods\non-food_inanimate_socks.jpg	1	4	1	non-food_inanimate_socks	0	S	13	0	211	1	a	0.443211400415748	1	141.765319800004	141.865293600131
32128.75	0.100020100362599	523	satiated	stimuli/foods\red_beans.jpg	1	4	1	red_beans	1	J	6	0	255	0		0	0	141.915315099992	142.015335200354
32166.25	0.0999306999146938	524	satiated	stimuli/foods\grilled_chicken_breast.jpg	1	4	1	grilled_chicken_breast	1	T	14	0	63	0		0	0	142.065367500298	142.165298200212
32203.75	0.0999838998541236	525	satiated	stimuli/foods\fruit_pie.jpg	1	4	1	fruit_pie	1	V	15	0	54	0		0	0	142.215313000139	142.315296899993
32241.25	0.0999861001037061	526	satiated	stimuli/non_foods\non-food_animate_millipede.jpg	1	4	1	non-food_animate_millipede	0	G	4	0	129	0		0	0	142.365311200265	142.465297300369
32278.75	0.0999829000793397	527	satiated	stimuli/non_foods\non-food_animate_Asian_man.jpg	1	4	1	non-food_animate_Asian_man	0	N	10	0	88	0		0	0	142.515313300304	142.615296200383
32316.25	0.0999883003532887	528	satiated	stimuli/foods\figs.jpg	1	4	1	figs	1	J	6	0	48	0		0	0	142.66530480003	142.765293100383
32353.75	0.0999863999895751	529	satiated	stimuli/non_foods\non-food_inanimate_tent.jpg	1	4	1	non-food_inanimate_tent	0	B	0	0	219	0		0	0	142.815308900084	142.915295300074
32391.25	0.0999822001904249	530	satiated	stimuli/non_foods\non-food_animate_grasshopper.jpg	1	4	1	non-food_animate_grasshopper	0	M	9	0	117	0		0	0	142.965305500198	143.065287700389
32428.75	0.0999616999179125	531	satiated	stimuli/non_foods\non-food_animate_ant.jpg	1	4	1	non-food_animate_ant	0	W	16	0	91	0		0	0	143.115324300248	143.215286000166
32466.25	0.0999884000048041	532	satiated	stimuli/non_foods\non-food_animate_yellow_bug.jpg	1	4	1	non-food_animate_yellow_bug	0	G	4	0	155	0		0	0	143.265301700216	143.365290100221
32503.75	0.0999884000048041	533	satiated	stimuli/non_foods\non-food_animate_eagle.jpg	1	4	1	non-food_animate_eagle	0	K	7	0	110	0		0	0	143.415296300314	143.515284700319
32541.25	0.0999869997613132	534	satiated	stimuli/non_foods\non-food_animate_ram.jpg	1	4	1	non-food_animate_ram	0	Z	18	0	140	0		0	0	143.565297900233	143.665284899995
32578.75	0.099991399794817	535	satiated	stimuli/non_foods\non-food_inanimate_orchid.jpg	1	4	1	non-food_inanimate_orchid	0	B	0	0	198	0		0	0	143.715299700387	143.815291100182
32616.25	0.0999539997428656	536	satiated	stimuli/non_foods\non-food_animate_alligator.jpg	1	4	1	non-food_animate_alligator	0	D	2	0	90	0		0	0	143.865317600314	143.965271600056
32653.75	0.0999957001768053	537	satiated	stimuli/foods\pickles.jpg	1	4	1	pickles	1	H	5	0	242	0		0	0	144.015284100082	144.115279800259
32691.25	0.0999817997217178	538	satiated	stimuli/non_foods\non-food_animate_german_shepherd.jpg	1	4	1	non-food_animate_german_shepherd	0	F	3	0	114	0		0	0	144.165292800404	144.265274600126
32728.75	0.099983099848032	539	satiated	stimuli/non_foods\non-food_inanimate_wrench.jpg	1	4	1	non-food_inanimate_wrench	0	P	11	0	227	0		0	0	144.315293300431	144.415276400279
32766.25	0.0999761000275612	540	satiated	stimuli/non_foods\non-food_animate_hummingbird.jpg	1	4	1	non-food_animate_hummingbird	0	F	3	0	120	0		0	0	144.4652904002	144.565266500227
32803.75	0.0999809000641108	541	satiated	stimuli/foods\chocolate_pralines.jpg	1	4	1	chocolate_pralines	1	M	9	0	28	0		0	0	144.615279700141	144.715260600206
32841.25	0.0999845997430384	542	satiated	stimuli/non_foods\non-food_inanimate_soccer_ball.jpg	1	4	1	non-food_inanimate_soccer_ball	0	Z	18	0	210	0		0	0	144.765279600397	144.86526420014
32878.75	0.0999738997779787	543	satiated	stimuli/foods\coffee_beans.jpg	1	4	1	coffee_beans	1	H	5	0	34	0		0	0	144.91529310029	145.015267000068
32916.25	0.0999838002026081	544	satiated	stimuli/non_foods\non-food_inanimate_broom.jpg	1	4	1	non-food_inanimate_broom	0	S	13	0	164	0		0	0	145.065280999988	145.165264800191
32953.75	0.0999878002330661	545	satiated	stimuli/non_foods\non-food_inanimate_tree.jpg	1	4	1	non-food_inanimate_tree	0	H	5	0	223	0		0	0	145.215280300006	145.315268100239
32991.25	0.0999858998693526	546	satiated	stimuli/foods\onion.jpg	1	4	1	onion	1	K	7	0	229	0		0	0	145.365276200231	145.465262100101
33028.75	0.10002120025456	547	satiated	stimuli/foods\hazelnuts.jpg	1	4	1	hazelnuts	1	F	3	0	65	0		0	0	145.515287199989	145.615308400244
33066.25	0.0999858002178371	548	satiated	stimuli/non_foods\non-food_inanimate_lighter.jpg	1	4	1	non-food_inanimate_lighter	0	I	21	1	193	0		0	0	145.665273500141	145.765259300359
33103.75	0.099981099832803	549	satiated	stimuli/foods\cinnamon.jpg	1	4	1	cinnamon	1	B	0	0	30	0		0	0	145.815271000378	145.915252100211
33141.25	0.0999882998876274	550	satiated	stimuli/foods\brussel_sprouts.jpg	1	4	1	brussel_sprouts	1	N	10	0	15	0		0	0	145.965268200263	146.065256500151
33178.75	0.0999782998114824	551	satiated	stimuli/non_foods\non-food_animate_giraffe.jpg	1	4	1	non-food_animate_giraffe	0	F	3	0	115	0		0	0	146.115270300303	146.215248600114
33216.25	0.0999548002146184	552	satiated	stimuli/foods\pork_and_rice.jpg	1	4	1	pork_and_rice	1	W	16	0	245	0		0	0	146.26526510017	146.365219900385
33253.75	0.0999930999241769	553	satiated	stimuli/non_foods\non-food_animate_killer_whale.jpg	1	4	1	non-food_animate_killer_whale	0	H	5	0	123	0		0	0	146.415258100256	146.515251200181
33291.25	0.0999854998663068	554	satiated	stimuli/foods\eggplant.jpg	1	4	1	eggplant	1	S	13	0	46	0		0	0	146.565262200311	146.665247700177
33328.75	0.0999764003790915	555	satiated	stimuli/foods\lemon_meringue_pie.jpg	1	4	1	lemon_meringue_pie	1	D	2	0	73	0		0	0	146.715272800066	146.815249200445
33366.25	0.0999923995696008	556	satiated	stimuli/foods\artichoke.jpg	1	4	1	artichoke	1	F	3	0	3	0		0	0	146.865258500446	146.965250900015
33403.75	0.0999809997156262	557	satiated	stimuli/foods\blackberry.jpg	1	4	1	blackberry	1	M	9	0	11	0		0	0	147.015252500307	147.115233500022
33441.25	0.0999888000078499	558	satiated	stimuli/foods\brie.jpg	1	4	1	brie	1	Z	18	0	12	0		0	0	147.165246400051	147.265235200059
33478.75	0.0999676999635994	559	satiated	stimuli/foods\red_cabbage.jpg	1	4	1	red_cabbage	1	J	6	0	256	0		0	0	147.315265800338	147.415233500302
34007.75	0.0999726001173258	560	satiated	stimuli/non_foods\non-food_animate_ram.jpg	1	5	1	non-food_animate_ram	0	S	13	0	140	0		0	0	149.43190750014	149.531880100258
34045.25	0.099985099863261	561	satiated	stimuli/foods\spinach.jpg	1	5	1	spinach	1	V	15	0	268	0		0	0	149.581899400335	149.681884500198
34082.75	0.0999822001904249	562	satiated	stimuli/foods\ice_cream.jpg	1	5	1	ice_cream	1	K	7	0	68	0		0	0	149.731897999998	149.831880200189
34120.25	0.0999826001934707	563	satiated	stimuli/non_foods\non-food_inanimate_cupboard.jpg	1	5	1	non-food_inanimate_cupboard	0	G	4	0	177	0		0	0	149.88189350022	149.981876100414
34157.75	0.0999842998571694	564	satiated	stimuli/foods\lettuce.jpg	1	5	1	lettuce	1	F	3	0	75	0		0	0	150.031891700346	150.131876000203
34195.25	0.0999801000580192	565	satiated	stimuli/foods\pomegranate.jpg	1	5	1	pomegranate	1	X	17	0	244	0		0	0	150.181892000139	150.281872100197
34232.75	0.100033199880272	566	satiated	stimuli/foods\spaghetti_with_meat_sauce.jpg	1	5	1	spaghetti_with_meat_sauce	1	M	9	0	267	0		0	0	150.331889100373	150.431922300253
34270.25	0.0999783999286592	567	satiated	stimuli/non_foods\non-food_inanimate_short_sleeved_shirt.jpg	1	5	1	non-food_inanimate_short_sleeved_shirt	0	S	13	0	207	0		0	0	150.481899900362	150.581878300291
34307.75	0.0999866002239287	568	satiated	stimuli/foods\peach.jpg	1	5	1	peach	1	W	16	0	238	0		0	0	150.631882700138	150.731869300362
34345.25	0.0999855999834836	569	satiated	stimuli/foods\red_cabbage.jpg	1	5	1	red_cabbage	1	V	15	0	256	0		0	0	150.781882600393	150.881868200377
34382.75	0.0999801000580192	570	satiated	stimuli/non_foods\non-food_animate_llama.jpg	1	5	1	non-food_animate_llama	0	L	8	0	127	0		0	0	150.93188210018	151.031862200238
34420.25	0.0999944997020066	571	satiated	stimuli/non_foods\non-food_animate_killer_whale.jpg	1	5	1	non-food_animate_killer_whale	0	F	3	0	123	0		0	0	151.08188870037	151.181883200072
34457.75	0.0999861001037061	572	satiated	stimuli/foods\onion.jpg	1	5	1	onion	1	P	11	0	229	0		0	0	151.231876600068	151.331862700172
34495.25	0.0999910002574325	573	satiated	stimuli/non_foods\non-food_animate_sea_turtle.jpg	1	5	1	non-food_animate_sea_turtle	0	X	17	0	144	0		0	0	151.381869100034	151.481860100292
34532.75	0.0999888000078499	574	satiated	stimuli/non_foods\non-food_animate_yellow_bug.jpg	1	5	1	non-food_animate_yellow_bug	0	M	9	0	155	0		0	0	151.531872700434	151.631861500442
34570.25	0.0999773000366986	575	satiated	stimuli/foods\museli_bars.jpg	1	5	1	museli_bars	1	Z	18	0	84	0		0	0	151.681874000002	151.781851300038
34607.75	0.0999711998738348	576	satiated	stimuli/foods\donut.jpg	1	5	1	donut	1	S	13	0	44	0		0	0	151.831874700263	151.931845900137
34645.25	0.0999898998998106	577	satiated	stimuli/non_foods\non-food_animate_deer.jpg	1	5	1	non-food_animate_deer	0	Z	18	0	105	0		0	0	151.981856200378	152.081846100278
34682.75	0.0999958999454975	578	satiated	stimuli/foods\brussel_sprouts.jpg	1	5	1	brussel_sprouts	1	T	14	0	15	0		0	0	152.131855300162	152.231851200107
34720.25	0.0999642997048795	579	satiated	stimuli/foods\carrot.jpg	1	5	1	carrot	1	N	10	0	19	0		0	0	152.281885800418	152.381850100122
34757.75	0.0999890002422035	580	satiated	stimuli/non_foods\non-food_animate_student_female.jpg	1	5	1	non-food_animate_student_female	0	R	12	0	151	0		0	0	152.431860100012	152.531849100254
34795.25	0.099982799962163	581	satiated	stimuli/non_foods\non-food_inanimate_couch.jpg	1	5	1	non-food_inanimate_couch	0	W	16	0	176	0		0	0	152.581864400301	152.681847200263
34832.75	0.100013600196689	582	satiated	stimuli/non_foods\non-food_inanimate_table.jpg	1	5	1	non-food_inanimate_table	0	X	17	0	217	0		0	0	152.731863200199	152.831876800396
34870.25	0.100003900006413	583	satiated	stimuli/foods\salmon.jpg	1	5	1	salmon	1	N	10	0	264	0		0	0	152.881852600258	152.981856500264
34907.75	0.0999769996851683	584	satiated	stimuli/foods\fruit_salad.jpg	1	5	1	fruit_salad	1	H	5	0	55	0		0	0	153.031858800445	153.13183580013
34945.25	0.0999883003532887	585	satiated	stimuli/non_foods\non-food_animate_giraffe.jpg	1	5	1	non-food_animate_giraffe	0	X	17	0	115	0		0	0	153.181845000014	153.281833300367
34982.75	0.0999940996989608	586	satiated	stimuli/non_foods\non-food_animate_Asian_man.jpg	1	5	1	non-food_animate_Asian_man	0	P	11	0	88	0		0	0	153.331842200365	153.431836300064
35020.25	0.0999896000139415	587	satiated	stimuli/non_foods\non-food_animate_frog.jpg	1	5	1	non-food_animate_frog	0	J	6	0	113	0		0	0	153.481853400357	153.581843000371
35057.75	0.0999834001995623	588	satiated	stimuli/foods\raw_ham.jpg	1	5	1	raw_ham	1	H	5	0	253	0		0	0	153.631850900128	153.731834300328
35095.25	0.0999842998571694	589	satiated	stimuli/non_foods\non-food_inanimate_towel.jpg	1	5	1	non-food_inanimate_towel	0	W	16	0	221	0		0	0	153.781847600359	153.881831900217
35132.75	0.10001299995929	590	satiated	stimuli/foods\egg.jpg	1	5	1	egg	1	N	10	0	45	0		0	0	153.931845500134	154.031858500093
35170.25	0.0999735002405941	591	satiated	stimuli/foods\pear.jpg	1	5	1	pear	1	F	3	0	239	0		0	0	154.081856700126	154.181830200367
35207.75	0.0999718001112342	592	satiated	stimuli/foods\taco.jpg	1	5	1	taco	1	S	13	0	274	0		0	0	154.231843300164	154.331815100275
35245.25	0.0999863999895751	593	satiated	stimuli/non_foods\non-food_inanimate_desk.jpg	1	5	1	non-food_inanimate_desk	0	G	4	0	178	0		0	0	154.381843200419	154.481829600409
35282.75	0.0999857001006603	594	satiated	stimuli/non_foods\non-food_animate_owl.jpg	1	5	1	non-food_animate_owl	0	H	5	0	132	0		0	0	154.531843200326	154.631828900427
35320.25	0.0999557003378868	595	satiated	stimuli/non_foods\non-food_inanimate_sun_flower.jpg	1	5	1	non-food_inanimate_sun_flower	0	N	10	0	216	0		0	0	154.681857699994	154.781813400332
35357.75	0.0999982003122568	596	satiated	stimuli/foods\red_beans.jpg	1	5	1	red_beans	1	L	8	0	255	0		0	0	154.831824100111	154.931822300423
35395.25	0.0999753000214696	597	satiated	stimuli/non_foods\non-food_inanimate_shell.jpg	1	5	1	non-food_inanimate_shell	0	J	6	0	206	0		0	0	154.981842700392	155.081818000413
35432.75	0.0999877997674048	598	satiated	stimuli/non_foods\non-food_inanimate_buds.jpg	1	5	1	non-food_inanimate_buds	0	T	14	0	166	0		0	0	155.131834300235	155.231822100002
35470.25	0.0999812004156411	599	satiated	stimuli/foods\grilled_chicken_breast.jpg	1	5	1	grilled_chicken_breast	1	P	11	0	63	0		0	0	155.281834200025	155.38181540044
35507.75	0.0999813000671566	600	satiated	stimuli/non_foods\non-food_inanimate_lighter.jpg	1	5	1	non-food_inanimate_lighter	0	B	0	0	193	0		0	0	155.43183060037	155.531811900437
35545.25	0.0999743002466857	601	satiated	stimuli/non_foods\non-food_animate_millipede.jpg	1	5	1	non-food_animate_millipede	0	Z	18	0	129	0		0	0	155.581837899983	155.68181220023
35582.75	0.099991399794817	602	satiated	stimuli/foods\coconut.jpg	1	5	1	coconut	1	T	14	0	33	0		0	0	155.73182670027	155.831818100065
35620.25	0.0999891003593802	603	satiated	stimuli/foods\cinnamon_sroll.jpg	1	5	1	cinnamon_sroll	1	B	0	0	31	0		0	0	155.881822200026	155.981811300386
35657.75	0.0999843999743462	604	satiated	stimuli/non_foods\non-food_inanimate_rope.jpg	1	5	1	non-food_inanimate_rope	0	R	12	0	204	0		0	0	156.031822800171	156.131807200145
35695.25	0.099983399733901	605	satiated	stimuli/non_foods\non-food_animate_parrot.jpg	1	5	1	non-food_animate_parrot	0	U	23	1	133	0		0	0	156.181822600309	156.281806000043
35732.75	0.0999706001020968	606	satiated	stimuli/non_foods\non-food_animate_slug.jpg	1	5	1	non-food_animate_slug	0	S	13	0	148	0		0	0	156.331822600216	156.431793200318
35770.25	0.099950899835676	607	satiated	stimuli/non_foods\non-food_inanimate_clover.jpg	1	5	1	non-food_inanimate_clover	0	L	8	0	174	0		0	0	156.481864600442	156.581815500278
35807.75	0.0999873001128435	608	satiated	stimuli/non_foods\non-food_inanimate_socks.jpg	1	5	1	non-food_inanimate_socks	0	K	7	0	211	1	a	0.541818399913609	1	156.631815200206	156.731802500319
35845.25	0.0999835999682546	609	satiated	stimuli/non_foods\non-food_animate_seahorse.jpg	1	5	1	non-food_animate_seahorse	0	Z	18	0	145	0		0	0	156.781816600356	156.881800200325
35882.75	0.0999866998754442	610	satiated	stimuli/foods\capsicum.jpg	1	5	1	capsicum	1	C	1	0	18	0		0	0	156.931811800227	157.031798500102
35920.25	0.0999874002300203	611	satiated	stimuli/non_foods\non-food_animate_rhino.jpg	1	5	1	non-food_animate_rhino	0	K	7	0	141	0		0	0	157.081810500007	157.181797900237
35957.75	0.099983099848032	612	satiated	stimuli/foods\pea_pod.jpg	1	5	1	pea_pod	1	C	1	0	237	0		0	0	157.231813200284	157.331796300132
35995.25	0.0999851999804378	613	satiated	stimuli/foods\cucumber.jpg	1	5	1	cucumber	1	J	6	0	41	0		0	0	157.381807800382	157.481793000363
36032.75	0.0999875003471971	614	satiated	stimuli/non_foods\non-food_animate_camel.jpg	1	5	1	non-food_animate_camel	0	N	10	0	97	0		0	0	157.531808800064	157.631796300411
36070.25	0.0999888000078499	615	satiated	stimuli/foods\rice.jpg	1	5	1	rice	1	D	2	0	257	0		0	0	157.681803300045	157.781792100053
36107.75	0.0999837000854313	616	satiated	stimuli/foods\cherry.jpg	1	5	1	cherry	1	L	8	0	23	0		0	0	157.831805200316	157.931788900401
36145.25	0.0999847003258765	617	satiated	stimuli/foods\nectarine.jpg	1	5	1	nectarine	1	D	2	0	87	0		0	0	157.981802700087	158.081787400413
36182.75	0.100017399992794	618	satiated	stimuli/non_foods\non-food_inanimate_stapler.jpg	1	5	1	non-food_inanimate_stapler	0	R	12	0	213	0		0	0	158.13180050021	158.231817900203
36220.25	0.0999932000413537	619	satiated	stimuli/foods\oregano.jpg	1	5	1	oregano	1	Z	18	0	231	0		0	0	158.281795100309	158.38178830035
36257.75	0.099983099848032	620	satiated	stimuli/foods\hamburger.jpg	1	5	1	hamburger	1	T	14	0	64	0		0	0	158.431790700182	158.53177380003
36295.25	0.0999714001081884	621	satiated	stimuli/non_foods\non-food_animate_bee.jpg	1	5	1	non-food_animate_bee	0	F	3	0	95	0		0	0	158.581797800027	158.681769200135
36332.75	0.099993699695915	622	satiated	stimuli/non_foods\non-food_animate_german_shepherd.jpg	1	5	1	non-food_animate_german_shepherd	0	N	10	0	114	0		0	0	158.731785900425	158.831779600121
36370.25	0.100007200147957	623	satiated	stimuli/foods\omelette.jpg	1	5	1	omelette	1	A	19	1	228	0		0	0	158.881766700186	158.981773900334
36407.75	0.0999873001128435	624	satiated	stimuli/foods\fried_calamari.jpg	1	5	1	fried_calamari	1	S	13	0	50	0		0	0	159.031789300032	159.131776600145
36445.25	0.0999818998388946	625	satiated	stimuli/non_foods\non-food_animate_swan.jpg	1	5	1	non-food_animate_swan	0	L	8	0	152	0		0	0	159.181791500188	159.281773400027
36482.75	0.0999714001081884	626	satiated	stimuli/non_foods\non-food_animate_kangaroo.jpg	1	5	1	non-food_animate_kangaroo	0	R	12	0	122	1	a	0.541857799980789	1	159.331801000051	159.431772400159
36520.25	0.0999759002588689	627	satiated	stimuli/non_foods\non-food_inanimate_cap.jpg	1	5	1	non-food_inanimate_cap	0	J	6	0	171	0		0	0	159.481790000107	159.581765900366
36557.75	0.0999882998876274	628	satiated	stimuli/non_foods\non-food_animate_hummingbird.jpg	1	5	1	non-food_animate_hummingbird	0	G	4	0	120	0		0	0	159.631781800184	159.731770100072
36595.25	0.099987699650228	629	satiated	stimuli/non_foods\non-food_animate_grasshopper.jpg	1	5	1	non-food_animate_grasshopper	0	C	1	0	117	0		0	0	159.781781300437	159.881769000087
36632.75	0.100006700027734	630	satiated	stimuli/foods\chocolate_chip_cookies.jpg	1	5	1	chocolate_chip_cookies	1	P	11	0	27	0		0	0	159.931781799998	160.031788500026
36670.25	0.0999572998844087	631	satiated	stimuli/foods\peas.jpg	1	5	1	peas	1	S	13	0	240	0		0	0	160.081805700436	160.181763000321
36707.75	0.0999976000748575	632	satiated	stimuli/foods\rice_cake.jpg	1	5	1	rice_cake	1	P	11	0	258	0		0	0	160.231776300352	160.331773900427
36745.25	0.0999961998313665	633	satiated	stimuli/foods\cream_donuts.jpg	1	5	1	cream_donuts	1	H	5	0	39	0		0	0	160.381764100399	160.48176030023
36782.75	0.0999713996425271	634	satiated	stimuli/foods\fennel.jpg	1	5	1	fennel	1	W	16	0	47	0		0	0	160.531771300361	160.631742700003
36820.25	0.0999829000793397	635	satiated	stimuli/foods\lamb_chops.jpg	1	5	1	lamb_chops	1	J	6	0	70	0		0	0	160.68177590007	160.781758800149
36857.75	0.0999846998602152	636	satiated	stimuli/foods\papaya.jpg	1	5	1	papaya	1	L	8	0	235	0		0	0	160.831769700162	160.931754400022
36895.25	0.0999845000915229	637	satiated	stimuli/non_foods\non-food_animate_runner.jpg	1	5	1	non-food_animate_runner	0	R	12	0	142	0		0	0	160.981768900063	161.081753400154
36932.75	0.0999708003364503	638	satiated	stimuli/foods\pasta_carbonara.jpg	1	5	1	pasta_carbonara	1	W	16	0	236	0		0	0	161.131782900076	161.231753700413
36970.25	0.0999887003563344	639	satiated	stimuli/non_foods\non-food_animate_bat.jpg	1	5	1	non-food_animate_bat	0	X	17	0	94	0		0	0	161.281755100004	161.381743800361
37007.75	0.0999829997308552	640	satiated	stimuli/non_foods\non-food_inanimate_padlock.jpg	1	5	1	non-food_inanimate_padlock	0	K	7	0	199	0		0	0	161.431757000275	161.531740000006
37045.25	0.0999638997018337	641	satiated	stimuli/foods\dates.jpg	1	5	1	dates	1	W	16	0	43	0		0	0	161.581771800295	161.681735699996
