onset	duration	eventnumber	hunger_condition	stimfilename	blockno	trialno	is_faststream	stim	food_idx	letter	letter_idx	istarget	image_number	response	keypressed	rt	correct	time_stimon	time_stimoff
11235.25	0.0999713999917731	0	satiated	stimuli/non_foods\non-food_inanimate_grass.jpg	1	1	1	non-food_inanimate_grass	0	D	2	0	184	0		0	0	112.115171300014	112.215142700006
11272.75	0.100036500021815	1	satiated	stimuli/non_foods\non-food_inanimate_fern.jpg	1	1	1	non-food_inanimate_fern	0	J	6	0	180	0		0	0	112.265164399985	112.365200900007
11310.25	0.0999871999956667	2	satiated	stimuli/non_foods\non-food_inanimate_hammer.jpg	1	1	1	non-food_inanimate_hammer	0	W	16	0	186	0		0	0	112.415159899974	112.51514709997
11347.75	0.0999850000953302	3	satiated	stimuli/non_foods\non-food_inanimate_stoplight.jpg	1	1	1	non-food_inanimate_stoplight	0	R	12	0	214	0		0	0	112.565156799974	112.665141800069
11385.25	0.0999786000465974	4	satiated	stimuli/foods\lamb_chops.jpg	1	1	1	lamb_chops	1	C	1	0	70	0		0	0	112.715157700004	112.815136300051
11422.75	0.0999848000938073	5	satiated	stimuli/foods\papaya.jpg	1	1	1	papaya	1	J	6	0	235	0		0	0	112.865150999976	112.96513580007
11460.25	0.0999925000360236	6	satiated	stimuli/non_foods\non-food_animate_baby_sitting.jpg	1	1	1	non-food_animate_baby_sitting	0	S	13	0	93	0		0	0	113.015150799998	113.115143300034
11497.75	0.0999805999454111	7	satiated	stimuli/foods\banana.jpg	1	1	1	banana	1	F	3	0	9	0		0	0	113.165158100077	113.265138700022
11535.25	0.0999839999713004	8	satiated	stimuli/foods\pork_and_rice.jpg	1	1	1	pork_and_rice	1	L	8	0	245	0		0	0	113.315151600051	113.415135600022
11572.75	0.0999829000793397	9	satiated	stimuli/foods\chocolate_chip_cookies.jpg	1	1	1	chocolate_chip_cookies	1	D	2	0	27	0		0	0	113.465156199993	113.565139100072
11610.25	0.0999857999850065	10	satiated	stimuli/non_foods\non-food_animate_slug.jpg	1	1	1	non-food_animate_slug	0	L	8	0	148	0		0	0	113.615147700068	113.715133500053
11647.75	0.0999846999766305	11	satiated	stimuli/foods\red_cabbage.jpg	1	1	1	red_cabbage	1	X	17	0	256	0		0	0	113.76514979999	113.865134499967
11685.25	0.0999856000998989	12	satiated	stimuli/foods\potato_and_green_bean_salad.jpg	1	1	1	potato_and_green_bean_salad	1	S	13	0	246	0		0	0	113.91514409997	114.01512970007
11722.75	0.0996851000236347	13	satiated	stimuli/foods\cannoli.jpg	1	1	1	cannoli	1	H	5	0	17	0		0	0	114.065449199989	114.165134300012
11760.25	0.0999861999880522	14	satiated	stimuli/non_foods\non-food_animate_deer.jpg	1	1	1	non-food_animate_deer	0	G	4	0	105	0		0	0	114.215145000024	114.315131200012
11797.75	0.100030099973083	15	satiated	stimuli/foods\pasta_carbonara.jpg	1	1	1	pasta_carbonara	1	V	15	0	236	0		0	0	114.365111600026	114.465141699999
11835.25	0.099984799977392	16	satiated	stimuli/foods\tomato.jpg	1	1	1	tomato	1	J	6	0	276	0		0	0	114.515140100033	114.61512490001
11872.75	0.0999752000207081	17	satiated	stimuli/non_foods\non-food_animate_giraffe.jpg	1	1	1	non-food_animate_giraffe	0	M	9	0	115	0		0	0	114.665150100016	114.765125300037
11910.25	0.099975899909623	18	satiated	stimuli/foods\clams.jpg	1	1	1	clams	1	B	0	0	32	0		0	0	114.815139500075	114.915115399985
11947.75	0.0999998000916094	19	satiated	stimuli/non_foods\non-food_inanimate_nailpolish.jpg	1	1	1	non-food_inanimate_nailpolish	0	P	11	0	195	0		0	0	114.965122899972	115.065122700064
11985.25	0.0999866999918595	20	satiated	stimuli/non_foods\non-food_animate_raccoon.jpg	1	1	1	non-food_animate_raccoon	0	L	8	0	139	0		0	0	115.115122899995	115.215109599987
12022.75	0.0999922000337392	21	satiated	stimuli/foods\cherry.jpg	1	1	1	cherry	1	C	1	0	23	0		0	0	115.26512570004	115.365117900074
12060.25	0.10000749991741	22	satiated	stimuli/foods\cracker.jpg	1	1	1	cracker	1	P	11	0	38	0		0	0	115.415109800058	115.515117299976
12097.75	0.0999795000534505	23	satiated	stimuli/foods\taco.jpg	1	1	1	taco	1	W	16	0	274	1	a	0	0	115.565129499999	115.665109000052
12135.25	0.0999719999963418	24	satiated	stimuli/non_foods\non-food_animate_mouse.jpg	1	1	1	non-food_animate_mouse	0	L	8	0	131	0		0	0	115.715127800009	115.815099800006
12172.75	0.100001899991184	25	satiated	stimuli/non_foods\non-food_inanimate_couch.jpg	1	1	1	non-food_inanimate_couch	0	Z	18	0	176	0		0	0	115.865105499979	115.96510739997
12210.25	0.0999824999598786	26	satiated	stimuli/foods\fennel.jpg	1	1	1	fennel	1	L	8	0	47	0		0	0	116.015124000027	116.115106499987
12247.75	0.099979699938558	27	satiated	stimuli/foods\nectarine.jpg	1	1	1	nectarine	1	R	12	0	87	0		0	0	116.165122900042	116.26510259998
12285.25	0.0999982999637723	28	satiated	stimuli/foods\grapes.jpg	1	1	1	grapes	1	H	5	0	60	0		0	0	116.315104200039	116.415102500003
12322.75	0.0999824000755325	29	satiated	stimuli/foods\eggplant.jpg	1	1	1	eggplant	1	C	1	0	46	0		0	0	116.465121599962	116.565104000038
12360.25	0.0999798000557348	30	satiated	stimuli/non_foods\non-food_animate_cow.jpg	1	1	1	non-food_animate_cow	0	B	0	0	103	0		0	0	116.615118899965	116.71509870002
12397.75	0.099992899922654	31	satiated	stimuli/foods\apricot.jpg	1	1	1	apricot	1	Z	18	0	2	0		0	0	116.765113700065	116.865106599987
12435.25	0.0999679999658838	32	satiated	stimuli/foods\capsicum.jpg	1	1	1	capsicum	1	M	9	0	18	0		0	0	116.915121600032	117.015089599998
12472.75	0.0999878000002354	33	satiated	stimuli/non_foods\non-food_inanimate_rack.jpg	1	1	1	non-food_inanimate_rack	0	J	6	0	202	1	a	0	0	117.065099900006	117.165087700007
12510.25	0.0999872999964282	34	satiated	stimuli/foods\baked_lamb_with_potatoes.jpg	1	1	1	baked_lamb_with_potatoes	1	N	10	0	8	0		0	0	117.215105800075	117.315093100071
12547.75	0.0999792000511661	35	satiated	stimuli/foods\peas.jpg	1	1	1	peas	1	K	7	0	240	0		0	0	117.365105099976	117.465084300027
12585.25	0.0999817000702024	36	satiated	stimuli/foods\fried_calamari.jpg	1	1	1	fried_calamari	1	P	11	0	50	0		0	0	117.515101699973	117.615083400044
12622.75	0.0999907000223175	37	satiated	stimuli/foods\rockmelon.jpg	1	1	1	rockmelon	1	D	2	0	262	0		0	0	117.665100899991	117.765091600013
12660.25	0.100001999991946	38	satiated	stimuli/foods\hazelnuts.jpg	1	1	1	hazelnuts	1	K	7	0	65	0		0	0	117.815084700007	117.915086699999
12697.75	0.0999838999705389	39	satiated	stimuli/non_foods\non-food_animate_cheetah.jpg	1	1	1	non-food_animate_cheetah	0	N	10	0	100	0		0	0	117.965101500042	118.065085400012
12735.25	0.0999822999583557	40	satiated	stimuli/foods\chestnut.jpg	1	1	1	chestnut	1	G	4	0	24	0		0	0	118.115101600066	118.215083900024
12772.75	0.0999816000694409	41	satiated	stimuli/foods\fries.jpg	1	1	1	fries	1	B	0	0	52	0		0	0	118.265100299963	118.365081900032
12810.25	0.0999654000625014	42	satiated	stimuli/non_foods\non-food_inanimate_buds.jpg	1	1	1	non-food_inanimate_buds	0	X	17	0	166	0		0	0	118.415100899991	118.515066300053
12847.75	0.0999475000426173	43	satiated	stimuli/non_foods\non-food_inanimate_toilet.jpg	1	1	1	non-food_inanimate_toilet	0	D	2	0	220	0		0	0	118.565111199976	118.665058700019
12885.25	0.0999622000381351	44	satiated	stimuli/non_foods\non-food_animate_young_boy.jpg	1	1	1	non-food_animate_young_boy	0	S	13	0	156	0		0	0	118.715112400008	118.815074600047
12922.75	0.0999891000101343	45	satiated	stimuli/non_foods\non-food_animate_baby_crawling.jpg	1	1	1	non-food_animate_baby_crawling	0	H	5	0	92	0		0	0	118.865087899962	118.965076999972
12960.25	0.0999789999332279	46	satiated	stimuli/non_foods\non-food_inanimate_highlighter.jpg	1	1	1	non-food_inanimate_highlighter	0	K	7	0	189	0		0	0	119.01509380003	119.115072799963
12997.75	0.0999899000162259	47	satiated	stimuli/non_foods\non-food_inanimate_skirt.jpg	1	1	1	non-food_inanimate_skirt	0	L	8	0	209	0		0	0	119.165086699999	119.265076600015
13035.25	0.0999830999644473	48	satiated	stimuli/foods\savory_pie.jpg	1	1	1	savory_pie	1	G	4	0	265	0		0	0	119.31508910004	119.415072200005
13072.75	0.0999798999400809	49	satiated	stimuli/foods\roasted_chicken.jpg	1	1	1	roasted_chicken	1	R	12	0	261	0		0	0	119.465087500052	119.565067399992
13110.25	0.0999861999880522	50	satiated	stimuli/foods\cream_donuts.jpg	1	1	1	cream_donuts	1	V	15	0	39	0		0	0	119.61508290004	119.715069100028
13147.75	0.099960400024429	51	satiated	stimuli/foods\mussels.jpg	1	1	1	mussels	1	N	10	0	86	0		0	0	119.76510650001	119.865066900034
13185.25	0.0999873999971896	52	satiated	stimuli/non_foods\non-food_inanimate_broom.jpg	1	1	1	non-food_inanimate_broom	0	D	2	0	164	0		0	0	119.915077300044	120.015064700041
13222.75	0.0999844000907615	53	satiated	stimuli/foods\spring_onions.jpg	1	1	1	spring_onions	1	B	0	0	269	0		0	0	120.065078799962	120.165063200053
13260.25	0.0999840999720618	54	satiated	stimuli/foods\cinnamon.jpg	1	1	1	cinnamon	1	V	15	0	30	0		0	0	120.215075500077	120.315059600049
13297.75	0.100001299986616	55	satiated	stimuli/non_foods\non-food_inanimate_ring.jpg	1	1	1	non-food_inanimate_ring	0	D	2	0	203	0		0	0	120.365071100066	120.465072400053
13335.25	0.0999447000212967	56	satiated	stimuli/non_foods\non-food_animate_kangaroo.jpg	1	1	1	non-food_animate_kangaroo	0	S	13	0	122	0		0	0	120.515116199967	120.615060899989
13372.75	0.0999889000086114	57	satiated	stimuli/non_foods\non-food_inanimate_tulip.jpg	1	1	1	non-food_inanimate_tulip	0	C	1	0	224	0		0	0	120.665069599985	120.765058499994
13410.25	0.0999737000092864	58	satiated	stimuli/non_foods\non-food_animate_runner.jpg	1	1	1	non-food_animate_runner	0	N	10	0	142	0		0	0	120.815061700065	120.915035400074
13447.75	0.0999829000793397	59	satiated	stimuli/non_foods\non-food_inanimate_alarm_clock.jpg	1	1	1	non-food_inanimate_alarm_clock	0	F	3	0	158	0		0	0	120.965061299969	121.065044200048
13485.25	0.099980500061065	60	satiated	stimuli/foods\brussel_sprouts.jpg	1	1	1	brussel_sprouts	1	T	14	0	15	0		0	0	121.115059599979	121.21504010004
13522.75	0.099985699984245	61	satiated	stimuli/non_foods\non-food_inanimate_leaf.jpg	1	1	1	non-food_inanimate_leaf	0	B	0	0	192	0		0	0	121.265060200007	121.365045899991
13560.25	0.0999835999682546	62	satiated	stimuli/foods\fruit_salad.jpg	1	1	1	fruit_salad	1	V	15	0	55	0		0	0	121.415055599995	121.515039199963
13597.75	0.0999891000101343	63	satiated	stimuli/non_foods\non-food_inanimate_soccer_ball.jpg	1	1	1	non-food_inanimate_soccer_ball	0	Z	18	0	210	0		0	0	121.565060200053	121.665049300063
13635.25	0.0999758000252768	64	satiated	stimuli/non_foods\non-food_animate_swan.jpg	1	1	1	non-food_animate_swan	0	E	20	1	152	0		0	0	121.715048399987	121.815024200012
13672.75	0.0999875999987125	65	satiated	stimuli/non_foods\non-food_animate_alligator.jpg	1	1	1	non-food_animate_alligator	0	M	9	0	90	0		0	0	121.865052800043	121.965040400042
13710.25	0.0999889000086114	66	satiated	stimuli/foods\cinnamon_sroll.jpg	1	1	1	cinnamon_sroll	1	V	15	0	31	1	a	0.391857500071637	1	122.015054499963	122.115043399972
13747.75	0.099968499969691	67	satiated	stimuli/non_foods\non-food_animate_duck.jpg	1	1	1	non-food_animate_duck	0	Z	18	0	109	0		0	0	122.165064400062	122.265032900032
13785.25	0.0999839999713004	68	satiated	stimuli/non_foods\non-food_animate_bee.jpg	1	1	1	non-food_animate_bee	0	K	7	0	95	0		0	0	122.315048000077	122.415032000048
13822.75	0.0999831000808626	69	satiated	stimuli/non_foods\non-food_animate_skunk.jpg	1	1	1	non-food_animate_skunk	0	M	9	0	147	0		0	0	122.465046299971	122.565029400052
13860.25	0.0999841000884771	70	satiated	stimuli/foods\cauliflower.jpg	1	1	1	cauliflower	1	F	3	0	20	0		0	0	122.615042199963	122.715026300051
13897.75	0.0999848999781534	71	satiated	stimuli/foods\chocolate_pudding.jpg	1	1	1	chocolate_pudding	1	G	4	0	29	0		0	0	122.765041899984	122.865026799962
13935.25	0.0999820000724867	72	satiated	stimuli/non_foods\non-food_inanimate_pine_cone.jpg	1	1	1	non-food_inanimate_pine_cone	0	Z	18	0	200	0		0	0	122.915041200002	123.015023200074
13972.75	0.0999872999964282	73	satiated	stimuli/non_foods\non-food_inanimate_sun_flower.jpg	1	1	1	non-food_inanimate_sun_flower	0	K	7	0	216	0		0	0	123.065035799984	123.16502309998
14010.25	0.0999859001021832	74	satiated	stimuli/non_foods\non-food_animate_lizard.jpg	1	1	1	non-food_animate_lizard	0	N	10	0	126	0		0	0	123.215045099962	123.315031000064
14047.75	0.099955299985595	75	satiated	stimuli/non_foods\non-food_inanimate_bed.jpg	1	1	1	non-food_inanimate_bed	0	H	5	0	160	0		0	0	123.365063100006	123.465018399991
14085.25	0.100003800005652	76	satiated	stimuli/non_foods\non-food_animate_Asian_man.jpg	1	1	1	non-food_animate_Asian_man	0	D	2	0	88	0		0	0	123.515033700038	123.615037500043
14122.75	0.0999678999651223	77	satiated	stimuli/non_foods\non-food_animate_sea_lion.jpg	1	1	1	non-food_animate_sea_lion	0	M	9	0	143	0		0	0	123.665044400026	123.765012299991
14160.25	0.0999857999850065	78	satiated	stimuli/non_foods\non-food_inanimate_stapler.jpg	1	1	1	non-food_inanimate_stapler	0	J	6	0	213	0		0	0	123.81502920005	123.915015000035
14197.75	0.0999708001036197	79	satiated	stimuli/non_foods\non-food_animate_eagle.jpg	1	1	1	non-food_animate_eagle	0	X	17	0	110	0		0	0	123.965045799967	124.065016600071
14235.25	0.0999734000070021	80	satiated	stimuli/foods\prawn.jpg	1	1	1	prawn	1	S	13	0	249	0		0	0	124.115037200041	124.215010600048
14272.75	0.0999829000793397	81	satiated	stimuli/non_foods\non-food_animate_lion.jpg	1	1	1	non-food_animate_lion	0	T	14	0	125	0		0	0	124.265024599968	124.365007500048
14310.25	0.0999844000907615	82	satiated	stimuli/foods\brie.jpg	1	1	1	brie	1	S	13	0	12	0		0	0	124.415021999972	124.515006400063
14347.75	0.0999812000663951	83	satiated	stimuli/non_foods\non-food_animate_caterpillar.jpg	1	1	1	non-food_animate_caterpillar	0	G	4	0	99	0		0	0	124.565023800009	124.665005000075
14385.25	0.0999948000535369	84	satiated	stimuli/non_foods\non-food_inanimate_rope.jpg	1	1	1	non-food_inanimate_rope	0	F	3	0	204	0		0	0	124.7150196	124.815014400054
14422.75	0.100004900014028	85	satiated	stimuli/foods\pumpkin.jpg	1	1	1	pumpkin	1	D	2	0	250	0		0	0	124.865002400009	124.965007300023
14460.25	0.0999828000785783	86	satiated	stimuli/non_foods\non-food_animate_horse.jpg	1	1	1	non-food_animate_horse	0	L	8	0	119	0		0	0	125.015023899963	125.115006700042
14497.75	0.0999853000976145	87	satiated	stimuli/foods\raw_sausage.jpg	1	1	1	raw_sausage	1	G	4	0	254	0		0	0	125.165021999972	125.26500730007
14535.25	0.0999932999256998	88	satiated	stimuli/non_foods\non-food_animate_hummingbird.jpg	1	1	1	non-food_animate_hummingbird	0	X	17	0	120	0		0	0	125.315012400039	125.415005699964
14572.75	0.0999978000763804	89	satiated	stimuli/non_foods\non-food_animate_frog.jpg	1	1	1	non-food_animate_frog	0	G	4	0	113	0		0	0	125.46501699998	125.565014800057
14610.25	0.0999945000512525	90	satiated	stimuli/foods\green_olives.jpg	1	1	1	green_olives	1	L	8	0	62	0		0	0	125.615002300008	125.714996800059
14647.75	0.0999540999764577	91	satiated	stimuli/non_foods\non-food_inanimate_chair.jpg	1	1	1	non-food_inanimate_chair	0	B	0	0	172	0		0	0	125.765035100048	125.864989200025
14685.25	0.0999928000383079	92	satiated	stimuli/foods\lemon.jpg	1	1	1	lemon	1	Z	18	0	72	0		0	0	125.915010900004	126.015003700042
14722.75	0.099984799977392	93	satiated	stimuli/non_foods\non-food_inanimate_teddy_bear.jpg	1	1	1	non-food_inanimate_teddy_bear	0	V	15	0	218	0		0	0	126.065009500016	126.164994299994
14760.25	0.0999697999795899	94	satiated	stimuli/non_foods\non-food_inanimate_briefcase.jpg	1	1	1	non-food_inanimate_briefcase	0	L	8	0	163	0		0	0	126.215008900035	126.314978700015
14797.75	0.0999692999757826	95	satiated	stimuli/non_foods\non-food_animate_killer_whale.jpg	1	1	1	non-food_animate_killer_whale	0	C	1	0	123	0		0	0	126.365022600046	126.464991900022
14835.25	0.0999861999880522	96	satiated	stimuli/non_foods\non-food_inanimate_toy_airplane.jpg	1	1	1	non-food_inanimate_toy_airplane	0	N	10	0	222	0		0	0	126.515006600064	126.614992800052
14872.75	0.0999765999149531	97	satiated	stimuli/foods\pepperoni_pizza.jpg	1	1	1	pepperoni_pizza	1	Z	18	0	241	0		0	0	126.665003900067	126.764980499982
14910.25	0.100001999991946	98	satiated	stimuli/non_foods\non-food_inanimate_horn.jpg	1	1	1	non-food_inanimate_horn	0	K	7	0	190	0		0	0	126.81499990006	126.915001900052
14947.75	0.0999721999978647	99	satiated	stimuli/foods\cupcake.jpg	1	1	1	cupcake	1	S	13	0	42	0		0	0	126.965014300076	127.064986500074
14985.25	0.0999830999644473	100	satiated	stimuli/non_foods\non-food_animate_bat.jpg	1	1	1	non-food_animate_bat	0	X	17	0	94	0		0	0	127.115001900005	127.21498499997
15022.75	0.0999816000694409	101	satiated	stimuli/non_foods\non-food_animate_monkey.jpg	1	1	1	non-food_animate_monkey	0	P	11	0	130	0		0	0	127.264997699996	127.364979300066
15060.25	0.0999894000124186	102	satiated	stimuli/non_foods\non-food_inanimate_drum_set.jpg	1	1	1	non-food_inanimate_drum_set	0	N	10	0	179	0		0	0	127.414995600004	127.514985000016
15097.75	0.0999549999833107	103	satiated	stimuli/foods\pineapple.jpg	1	1	1	pineapple	1	Z	18	0	243	0		0	0	127.5650226	127.664977599983
15135.25	0.0999851999804378	104	satiated	stimuli/non_foods\non-food_animate_woman.jpg	1	1	1	non-food_animate_woman	0	S	13	0	154	0		0	0	127.714990700013	127.814975899993
15172.75	0.0999883000040427	105	satiated	stimuli/foods\rice_cake.jpg	1	1	1	rice_cake	1	R	12	0	258	0		0	0	127.864990800037	127.964979100041
15210.25	0.0999742000130937	106	satiated	stimuli/foods\red_beans.jpg	1	1	1	red_beans	1	N	10	0	255	0		0	0	128.014989900053	128.114964100067
15247.75	0.0999860999872908	107	satiated	stimuli/foods\risotto_with_peas_and_asparagus_tips.jpg	1	1	1	risotto_with_peas_and_asparagus_tips	1	L	8	0	259	0		0	0	128.164978199988	128.264964299975
15285.25	0.0999992000870407	108	satiated	stimuli/non_foods\non-food_inanimate_hay.jpg	1	1	1	non-food_inanimate_hay	0	F	3	0	187	0		0	0	128.314974499983	128.41497370007
15322.75	0.10000299999956	109	satiated	stimuli/foods\hotdog.jpg	1	1	1	hotdog	1	D	2	0	67	0		0	0	128.464966800064	128.564969800063
15360.25	0.099998600082472	110	satiated	stimuli/foods\swordfish.jpg	1	1	1	swordfish	1	U	23	1	273	0		0	0	128.614983499981	128.714982100064
15397.75	0.099986300105229	111	satiated	stimuli/foods\onion.jpg	1	1	1	onion	1	K	7	0	229	0		0	0	128.764979199972	128.864965500077
15435.25	0.0999867999926209	112	satiated	stimuli/non_foods\non-food_inanimate_headphones.jpg	1	1	1	non-food_inanimate_headphones	0	D	2	0	188	0		0	0	128.914977699984	129.014964499976
15472.75	0.0999799999408424	113	satiated	stimuli/non_foods\non-food_inanimate_chandelier.jpg	1	1	1	non-food_inanimate_chandelier	0	J	6	0	173	0		0	0	129.064980000025	129.164959999966
15510.25	0.100006100023165	114	satiated	stimuli/foods\fried_zucchini.jpg	1	1	1	fried_zucchini	1	H	5	0	51	0		0	0	129.214958600001	129.314964700025
15547.75	0.0999645999399945	115	satiated	stimuli/non_foods\non-food_animate_porcupine.jpg	1	1	1	non-food_animate_porcupine	0	B	0	0	138	0		0	0	129.364995500073	129.464960100013
15585.25	0.0999853999819607	116	satiated	stimuli/non_foods\non-food_inanimate_cupboard.jpg	1	1	1	non-food_inanimate_cupboard	0	X	17	0	177	0		0	0	129.514969600015	129.614954999997
15622.75	0.0999895000131801	117	satiated	stimuli/foods\lentils.jpg	1	1	1	lentils	1	W	16	0	74	0		0	0	129.66496980004	129.764959300053
15660.25	0.0999818999553099	118	satiated	stimuli/non_foods\non-food_inanimate_folding_chair.jpg	1	1	1	non-food_inanimate_folding_chair	0	Z	18	0	182	0		0	0	129.814969700063	129.914951600018
15697.75	0.0999837999697775	119	satiated	stimuli/foods\apple.jpg	1	1	1	apple	1	B	0	0	1	0		0	0	129.964961200021	130.064944999991
15735.25	0.0999835999682546	120	satiated	stimuli/non_foods\non-food_animate_clown.jpg	1	1	1	non-food_animate_clown	0	H	5	0	102	0		0	0	130.114958300022	130.214941899991
15772.75	0.0999862999888137	121	satiated	stimuli/non_foods\non-food_animate_gorilla.jpg	1	1	1	non-food_animate_gorilla	0	L	8	0	116	0		0	0	130.264960600063	130.364946900052
15810.25	0.0999845000915229	122	satiated	stimuli/non_foods\non-food_inanimate_wrench.jpg	1	1	1	non-food_inanimate_wrench	0	X	17	0	227	1	a	0	0	130.414961499977	130.514946000068
15847.75	0.0999846999766305	123	satiated	stimuli/non_foods\non-food_inanimate_canoe.jpg	1	1	1	non-food_inanimate_canoe	0	J	6	0	170	0		0	0	130.564960699994	130.664945399971
15885.25	0.099981699953787	124	satiated	stimuli/foods\dates.jpg	1	1	1	dates	1	G	4	0	43	0		0	0	130.714960000012	130.814941699966
15922.75	0.0999839999713004	125	satiated	stimuli/non_foods\non-food_animate_cat.jpg	1	1	1	non-food_animate_cat	0	S	13	0	98	0		0	0	130.864958900027	130.964942899998
15960.25	0.099986599991098	126	satiated	stimuli/non_foods\non-food_inanimate_fire_extinguisher.jpg	1	1	1	non-food_inanimate_fire_extinguisher	0	R	12	0	181	0		0	0	131.014956600033	131.114943200024
15997.75	0.0999860001029447	127	satiated	stimuli/non_foods\non-food_inanimate_table.jpg	1	1	1	non-food_inanimate_table	0	I	21	1	217	0		0	0	131.164945599972	131.264931600075
16035.25	0.0999859999865294	128	satiated	stimuli/foods\waffle.jpg	1	1	1	waffle	1	X	17	0	278	0		0	0	131.314946900005	131.414932899992
16072.75	0.0999975999584422	129	satiated	stimuli/non_foods\non-food_animate_pigeon.jpg	1	1	1	non-food_animate_pigeon	0	P	11	0	136	0		0	0	131.464937700075	131.564935300034
16110.25	0.0999989999691024	130	satiated	stimuli/non_foods\non-food_animate_seahorse.jpg	1	1	1	non-food_animate_seahorse	0	Z	18	0	145	0		0	0	131.614933200064	131.714932200033
16147.75	0.0999839000869542	131	satiated	stimuli/foods\gnocchi.jpg	1	1	1	gnocchi	1	C	1	0	58	0		0	0	131.764948599972	131.864932500059
16185.25	0.0999928000383079	132	satiated	stimuli/non_foods\non-food_inanimate_clover.jpg	1	1	1	non-food_inanimate_clover	0	N	10	0	174	0		0	0	131.914932799991	132.01492560003
16222.75	0.100009100046009	133	satiated	stimuli/foods\rice.jpg	1	1	1	rice	1	Z	18	0	257	0		0	0	132.064916400006	132.164925500052
16260.25	0.0999820999568328	134	satiated	stimuli/non_foods\non-food_inanimate_watering_can.jpg	1	1	1	non-food_inanimate_watering_can	0	D	2	0	225	0		0	0	132.214936400065	132.314918500022
16297.75	0.0999853999819607	135	satiated	stimuli/foods\coffee_beans.jpg	1	1	1	coffee_beans	1	Z	18	0	34	0		0	0	132.364933700068	132.46491910005
16335.25	0.0999817999545485	136	satiated	stimuli/non_foods\non-food_animate_camel.jpg	1	1	1	non-food_animate_camel	0	X	17	0	97	0		0	0	132.514930500067	132.614912300021
16372.75	0.0999779000412673	137	satiated	stimuli/foods\omelette.jpg	1	1	1	omelette	1	S	13	0	228	0		0	0	132.664932999993	132.764910900034
16410.25	0.0999873999971896	138	satiated	stimuli/non_foods\non-food_inanimate_bowling_ball.jpg	1	1	1	non-food_inanimate_bowling_ball	0	F	3	0	162	0		0	0	132.814927199972	132.914914599969
16447.75	0.0999641999369487	139	satiated	stimuli/non_foods\non-food_inanimate_gloves.jpg	1	1	1	non-food_inanimate_gloves	0	N	10	0	183	0		0	0	132.96494840004	133.064912599977
16931	0.100002399994992	140	satiated	stimuli/non_foods\non-food_animate_dachshund.jpg	1	2	1	non-food_animate_dachshund	0	M	9	0	104	0		0	0	134.898254900007	134.998257300002
16968.5	0.0999738000100479	141	satiated	stimuli/non_foods\non-food_animate_rhino.jpg	1	2	1	non-food_animate_rhino	0	V	15	0	141	0		0	0	135.048244400066	135.148218200076
17006	0.0999828999629244	142	satiated	stimuli/foods\coconut.jpg	1	2	1	coconut	1	C	1	0	33	0		0	0	135.198236500029	135.298219399992
17043.5	0.09997740003746	143	satiated	stimuli/foods\strawberry.jpg	1	2	1	strawberry	1	N	10	0	272	0		0	0	135.34823090001	135.448208300048
17081	0.100006300024688	144	satiated	stimuli/non_foods\non-food_inanimate_bamboo.jpg	1	2	1	non-food_inanimate_bamboo	0	K	7	0	159	0		0	0	135.498225699994	135.598232000018
17118.5	0.0999609000282362	145	satiated	stimuli/non_foods\non-food_inanimate_padlock.jpg	1	2	1	non-food_inanimate_padlock	0	Z	18	0	199	0		0	0	135.648260400048	135.748221300077
17156	0.0999254999915138	146	satiated	stimuli/non_foods\non-food_inanimate_scissors.jpg	1	2	1	non-food_inanimate_scissors	0	R	12	0	205	0		0	0	135.798269500025	135.898195000016
17193.5	0.0999783000443131	147	satiated	stimuli/foods\fruit_flan.jpg	1	2	1	fruit_flan	1	D	2	0	53	0		0	0	135.948236400029	136.048214700073
17231	0.0999841999728233	148	satiated	stimuli/non_foods\non-food_animate_tortoise.jpg	1	2	1	non-food_animate_tortoise	0	W	16	0	153	0		0	0	136.098230800009	136.198214999982
17268.5	0.0999833999667317	149	satiated	stimuli/non_foods\non-food_animate_yellow_bug.jpg	1	2	1	non-food_animate_yellow_bug	0	F	3	0	155	1	a	0	0	136.248230900033	136.3482143
17306	0.0999757000245154	150	satiated	stimuli/foods\cooked_prawn.jpg	1	2	1	cooked_prawn	1	L	8	0	36	0		0	0	136.398228000035	136.498203700059
17343.5	0.0999790999339893	151	satiated	stimuli/non_foods\non-food_inanimate_towel.jpg	1	2	1	non-food_inanimate_towel	0	W	16	0	221	0		0	0	136.548227600055	136.648206699989
17381	0.0999842999735847	152	satiated	stimuli/foods\lettuce.jpg	1	2	1	lettuce	1	D	2	0	75	0		0	0	136.698224600055	136.798208900029
17418.5	0.0999843999743462	153	satiated	stimuli/non_foods\non-food_inanimate_tree.jpg	1	2	1	non-food_inanimate_tree	0	B	0	0	223	0		0	0	136.848212599987	136.948196999962
17456	0.0999920000322163	154	satiated	stimuli/non_foods\non-food_inanimate_socks.jpg	1	2	1	non-food_inanimate_socks	0	S	13	0	211	0		0	0	136.998209599988	137.09820160002
17493.5	0.0999838999705389	155	satiated	stimuli/non_foods\non-food_animate_snail.jpg	1	2	1	non-food_animate_snail	0	V	15	0	149	0		0	0	137.148216900066	137.248200800037
17531	0.0999900000169873	156	satiated	stimuli/non_foods\non-food_inanimate_skateboard.jpg	1	2	1	non-food_inanimate_skateboard	0	D	2	0	208	0		0	0	137.298217199976	137.398207199993
17568.5	0.0999403999885544	157	satiated	stimuli/non_foods\non-food_animate_ladybug.jpg	1	2	1	non-food_animate_ladybug	0	X	17	0	124	0		0	0	137.448261299985	137.548201699974
17606	0.1000015999889	158	satiated	stimuli/non_foods\non-food_inanimate_orchid.jpg	1	2	1	non-food_inanimate_orchid	0	B	0	0	198	0		0	0	137.598197899992	137.698199499981
17643.5	0.0999855999834836	159	satiated	stimuli/foods\linguine_with_clams.jpg	1	2	1	linguine_with_clams	1	K	7	0	77	0		0	0	137.748212900013	137.848198499996
17681	0.0999825999606401	160	satiated	stimuli/foods\minestrone_soup.jpg	1	2	1	minestrone_soup	1	X	17	0	82	0		0	0	137.89821340004	137.998196
17718.5	0.100007599918172	161	satiated	stimuli/non_foods\non-food_inanimate_cactus_pot_plant.jpg	1	2	1	non-food_inanimate_cactus_pot_plant	0	C	1	0	169	0		0	0	138.048183800071	138.148191399989
17756	0.0999840999720618	162	satiated	stimuli/foods\cucumber.jpg	1	2	1	cucumber	1	L	8	0	41	0		0	0	138.198209400056	138.298193500028
17793.5	0.0999825999606401	163	satiated	stimuli/foods\toasted_bread_with_tomatoes.jpg	1	2	1	toasted_bread_with_tomatoes	1	U	23	1	275	0		0	0	138.348207000061	138.448189600022
17831	0.0999979999614879	164	satiated	stimuli/foods\pea_pod.jpg	1	2	1	pea_pod	1	P	11	0	237	0		0	0	138.498202300048	138.59820030001
17868.5	0.0999835999682546	165	satiated	stimuli/foods\stew_with_potatoes_and_carrots.jpg	1	2	1	stew_with_potatoes_and_carrots	1	X	17	0	271	0		0	0	138.648203000077	138.748186600045
17906	0.0999878000002354	166	satiated	stimuli/non_foods\non-food_animate_polar_bear.jpg	1	2	1	non-food_animate_polar_bear	0	K	7	0	137	0		0	0	138.798197400058	138.898185200058
17943.5	0.0999793000519276	167	satiated	stimuli/foods\mortadella.jpg	1	2	1	mortadella	1	R	12	0	83	0		0	0	138.948203700013	139.048183000064
17981	0.10002130002249	168	satiated	stimuli/foods\brownie.jpg	1	2	1	brownie	1	K	7	0	14	0		0	0	139.098194399965	139.198215699987
18018.5	0.0999356999527663	169	satiated	stimuli/foods\ginger_root.jpg	1	2	1	ginger_root	1	J	6	0	57	0		0	0	139.248246400035	139.348182099988
18056	0.0999782000435516	170	satiated	stimuli/foods\ice_cream.jpg	1	2	1	ice_cream	1	N	10	0	68	0		0	0	139.398203899967	139.498182100011
18093.5	0.0999860999872908	171	satiated	stimuli/non_foods\non-food_inanimate_speakers.jpg	1	2	1	non-food_inanimate_speakers	0	G	4	0	212	0		0	0	139.548189599998	139.648175699986
18131	0.099980799946934	172	satiated	stimuli/non_foods\non-food_inanimate_nest.jpg	1	2	1	non-food_inanimate_nest	0	P	11	0	196	0		0	0	139.698192900047	139.798173699994
18168.5	0.0999867999926209	173	satiated	stimuli/foods\mango.jpg	1	2	1	mango	1	L	8	0	80	0		0	0	139.848187300027	139.94817410002
18206	0.0999889000086114	174	satiated	stimuli/foods\pomegranate.jpg	1	2	1	pomegranate	1	V	15	0	244	0		0	0	139.998186300043	140.098175200052
18243.5	0.0999909000238404	175	satiated	stimuli/foods\chocolate_pralines.jpg	1	2	1	chocolate_pralines	1	D	2	0	28	0		0	0	140.148168500047	140.248159400071
18281	0.100008000037633	176	satiated	stimuli/non_foods\non-food_inanimate_lighter.jpg	1	2	1	non-food_inanimate_lighter	0	R	12	0	193	0		0	0	140.298160000006	140.398168000043
18318.5	0.0999783000443131	177	satiated	stimuli/foods\frankfurter_and_provolone_salad.jpg	1	2	1	frankfurter_and_provolone_salad	1	D	2	0	49	0		0	0	140.448184799985	140.548163100029
18356	0.0999667000724003	178	satiated	stimuli/foods\baked_cod_with_carrots_and_green_beans.jpg	1	2	1	baked_cod_with_carrots_and_green_beans	1	M	9	0	7	0		0	0	140.598181299982	140.698148000054
18393.5	0.0999771999195218	179	satiated	stimuli/foods\potato_chips.jpg	1	2	1	potato_chips	1	T	14	0	247	0		0	0	140.748173900065	140.848151099985
18431	0.100006200023927	180	satiated	stimuli/non_foods\non-food_animate_young_girl.jpg	1	2	1	non-food_animate_young_girl	0	U	23	1	157	0		0	0	140.898176499992	140.998182700016
18468.5	0.0999960999470204	181	satiated	stimuli/non_foods\non-food_animate_seal.jpg	1	2	1	non-food_animate_seal	0	M	9	0	146	0		0	0	141.048161700019	141.148157799966
18506	0.0999838999705389	182	satiated	stimuli/foods\lasagna.jpg	1	2	1	lasagna	1	G	4	0	71	0		0	0	141.198173900018	141.298157799989
18543.5	0.0999722999986261	183	satiated	stimuli/non_foods\non-food_inanimate_desk.jpg	1	2	1	non-food_inanimate_desk	0	S	13	0	178	0		0	0	141.348174900049	141.448147200048
18581	0.099982799962163	184	satiated	stimuli/foods\steak.jpg	1	2	1	steak	1	J	6	0	270	0		0	0	141.498165900004	141.598148699966
18618.5	0.0999873999971896	185	satiated	stimuli/foods\figs.jpg	1	2	1	figs	1	H	5	0	48	0		0	0	141.648160899989	141.748148299986
18656	0.0999821999575943	186	satiated	stimuli/non_foods\non-food_inanimate_nettle.jpg	1	2	1	non-food_inanimate_nettle	0	G	4	0	197	0		0	0	141.798161100014	141.898143299972
18693.5	0.0999786000465974	187	satiated	stimuli/foods\green_beans.jpg	1	2	1	green_beans	1	B	0	0	61	0		0	0	141.948158700019	142.048137300066
18731	0.0999834999674931	188	satiated	stimuli/foods\celery.jpg	1	2	1	celery	1	G	4	0	21	0		0	0	142.098159100045	142.198142600013
18768.5	0.0999875999987125	189	satiated	stimuli/foods\oregano.jpg	1	2	1	oregano	1	J	6	0	231	0		0	0	142.248150500003	142.348138100002
18806	0.0999741000123322	190	satiated	stimuli/foods\wafer.jpg	1	2	1	wafer	1	P	11	0	277	0		0	0	142.398154800059	142.498128900072
18843.5	0.0999735000077635	191	satiated	stimuli/non_foods\non-food_animate_grasshopper.jpg	1	2	1	non-food_animate_grasshopper	0	B	0	0	117	0		0	0	142.548156999983	142.648130499991
18881	0.0999768000328913	192	satiated	stimuli/non_foods\non-food_animate_squirrel.jpg	1	2	1	non-food_animate_squirrel	0	P	11	0	150	0		0	0	142.698159100022	142.798135900055
18918.5	0.0999662999529392	193	satiated	stimuli/foods\orange.jpg	1	2	1	orange	1	B	0	0	230	0		0	0	142.84817630006	142.948142600013
18956	0.0999890000093728	194	satiated	stimuli/non_foods\non-food_inanimate_button.jpg	1	2	1	non-food_inanimate_button	0	G	4	0	168	0		0	0	142.998152900022	143.098141900031
18993.5	0.0999896000139415	195	satiated	stimuli/foods\grilled_chicken_breast.jpg	1	2	1	grilled_chicken_breast	1	V	15	0	63	0		0	0	143.148153400049	143.248143000063
19031	0.0999830999644473	196	satiated	stimuli/foods\cooked_ham.jpg	1	2	1	cooked_ham	1	I	21	1	35	0		0	0	143.298152800067	143.398135900032
19068.5	0.0999782999278978	197	satiated	stimuli/foods\meatballs.jpg	1	2	1	meatballs	1	H	5	0	81	0		0	0	143.448146900046	143.548125199974
19106	0.0999974999576807	198	satiated	stimuli/foods\chilli.jpg	1	2	1	chilli	1	G	4	0	25	0		0	0	143.59813920001	143.698136699968
19143.5	0.0999833000823855	199	satiated	stimuli/non_foods\non-food_animate_owl.jpg	1	2	1	non-food_animate_owl	0	B	0	0	132	1	a	0.541819099918939	1	143.748146199971	143.848129500053
19181	0.100003500003368	200	satiated	stimuli/non_foods\non-food_animate_student_female.jpg	1	2	1	non-food_animate_student_female	0	L	8	0	151	0		0	0	143.898119500023	143.998123000027
19218.5	0.0999867999926209	201	satiated	stimuli/foods\asparagus.jpg	1	2	1	asparagus	1	M	9	0	4	0		0	0	144.048131600022	144.148118400015
19256	0.0999965999508277	202	satiated	stimuli/foods\spinach.jpg	1	2	1	spinach	1	P	11	0	268	0		0	0	144.198129200027	144.298125799978
19293.5	0.0999806000618264	203	satiated	stimuli/foods\broccoli.jpg	1	2	1	broccoli	1	R	12	0	13	0		0	0	144.348138400004	144.448119000066
19331	0.0999956000596285	204	satiated	stimuli/foods\salmon.jpg	1	2	1	salmon	1	T	14	0	264	0		0	0	144.498152300017	144.598147900077
19368.5	0.0999505999498069	205	satiated	stimuli/non_foods\non-food_inanimate_jeans.jpg	1	2	1	non-food_inanimate_jeans	0	Z	18	0	191	0		0	0	144.648167000036	144.748117599986
19406	0.100006200023927	206	satiated	stimuli/non_foods\non-food_inanimate_protractor.jpg	1	2	1	non-food_inanimate_protractor	0	M	9	0	201	0		0	0	144.798108299961	144.898114499985
19443.5	0.0999893000116572	207	satiated	stimuli/non_foods\non-food_animate_donkey.jpg	1	2	1	non-food_animate_donkey	0	T	14	0	107	0		0	0	144.948115200037	145.048104500049
19481	0.0999875999987125	208	satiated	stimuli/foods\egg.jpg	1	2	1	egg	1	X	17	0	45	0		0	0	145.098127100035	145.198114700033
19518.5	0.0999782000435516	209	satiated	stimuli/non_foods\non-food_animate_dragonfly.jpg	1	2	1	non-food_animate_dragonfly	0	L	8	0	108	0		0	0	145.248130399967	145.34810860001
19556	0.0999850999796763	210	satiated	stimuli/non_foods\non-food_inanimate_bush.jpg	1	2	1	non-food_inanimate_bush	0	D	2	0	167	0		0	0	145.398120700032	145.498105800012
19593.5	0.0999916999135166	211	satiated	stimuli/foods\beetroots.jpg	1	2	1	beetroots	1	F	3	0	10	0		0	0	145.548120100051	145.648111799965
19631	0.0999840000877157	212	satiated	stimuli/foods\pancakes.jpg	1	2	1	pancakes	1	R	12	0	234	0		0	0	145.698124099988	145.798108100076
19668.5	0.0999702999833971	213	satiated	stimuli/non_foods\non-food_animate_llama.jpg	1	2	1	non-food_animate_llama	0	J	6	0	127	0		0	0	145.848122199997	145.948092499981
19706	0.0999818000709638	214	satiated	stimuli/foods\honey.jpg	1	2	1	honey	1	L	8	0	66	0		0	0	145.99811689998	146.098098700051
19743.5	0.0999838000861928	215	satiated	stimuli/non_foods\non-food_animate_parrot.jpg	1	2	1	non-food_animate_parrot	0	T	14	0	133	0		0	0	146.148111599963	146.248095400049
19781	0.0999589000130072	216	satiated	stimuli/foods\artichoke.jpg	1	2	1	artichoke	1	C	1	0	3	0		0	0	146.298139599967	146.39809849998
19818.5	0.0999853000976145	217	satiated	stimuli/non_foods\non-food_inanimate_tent.jpg	1	2	1	non-food_inanimate_tent	0	R	12	0	219	0		0	0	146.448106699972	146.54809200007
19856	0.0999850999796763	218	satiated	stimuli/non_foods\non-food_animate_mammoth.jpg	1	2	1	non-food_animate_mammoth	0	K	7	0	128	0		0	0	146.598101300071	146.698086400051
19893.5	0.100007000030018	219	satiated	stimuli/non_foods\non-food_animate_german_shepherd.jpg	1	2	1	non-food_animate_german_shepherd	0	S	13	0	114	0		0	0	146.748090100009	146.848097100039
19931	0.0999833999667317	220	satiated	stimuli/foods\oven-roasted_tomatoes.jpg	1	2	1	oven-roasted_tomatoes	1	B	0	0	232	0		0	0	146.898108500056	146.998091900023
19968.5	0.0999969000695273	221	satiated	stimuli/non_foods\non-food_animate_dolphin.jpg	1	2	1	non-food_animate_dolphin	0	F	3	0	106	0		0	0	147.0480981	147.14809500007
20006	0.0999852000968531	222	satiated	stimuli/non_foods\non-food_animate_ant.jpg	1	2	1	non-food_animate_ant	0	C	1	0	91	0		0	0	147.198105699965	147.298090900062
20043.5	0.0999743000138551	223	satiated	stimuli/foods\avocado.jpg	1	2	1	avocado	1	S	13	0	5	0		0	0	147.348103899974	147.448078199988
20081	0.0999887000070885	224	satiated	stimuli/foods\chocolate_bar.jpg	1	2	1	chocolate_bar	1	T	14	0	26	0		0	0	147.498102399986	147.598091099993
20118.5	0.0999841999728233	225	satiated	stimuli/non_foods\non-food_animate_iguana.jpg	1	2	1	non-food_animate_iguana	0	J	6	0	121	0		0	0	147.64810250001	147.748086699983
20156	0.0999875999987125	226	satiated	stimuli/non_foods\non-food_animate_butterfly.jpg	1	2	1	non-food_animate_butterfly	0	G	4	0	96	0		0	0	147.798101400025	147.898089000024
20193.5	0.0999966999515891	227	satiated	stimuli/foods\blackberry.jpg	1	2	1	blackberry	1	D	2	0	11	0		0	0	147.948098400026	148.048095099977
20231	0.0999602000229061	228	satiated	stimuli/foods\mandarin.jpg	1	2	1	mandarin	1	W	16	0	79	0		0	0	148.098119699978	148.198079900001
20268.5	0.0999852999811992	229	satiated	stimuli/foods\grapefruits.jpg	1	2	1	grapefruits	1	N	10	0	59	0		0	0	148.248095300049	148.34808060003
20306	0.0999662999529392	230	satiated	stimuli/non_foods\non-food_animate_penguin.jpg	1	2	1	non-food_animate_penguin	0	H	5	0	135	0		0	0	148.398094400065	148.498060700018
20343.5	0.0999583000084385	231	satiated	stimuli/foods\salami.jpg	1	2	1	salami	1	K	7	0	263	0		0	0	148.548090400058	148.648048700066
20381	0.0999587000114843	232	satiated	stimuli/foods\mushroom.jpg	1	2	1	mushroom	1	B	0	0	85	0		0	0	148.698091799975	148.798050499987
20418.5	0.0999826000770554	233	satiated	stimuli/foods\radish.jpg	1	2	1	radish	1	C	1	0	251	0		0	0	148.848086899961	148.948069500038
20456	0.0999888000078499	234	satiated	stimuli/foods\spaghetti_with_meat_sauce.jpg	1	2	1	spaghetti_with_meat_sauce	1	V	15	0	267	0		0	0	148.998084199964	149.098072999972
20493.5	0.0999815000686795	235	satiated	stimuli/foods\raw_ham.jpg	1	2	1	raw_ham	1	N	10	0	253	0		0	0	149.148086700006	149.248068200075
20531	0.0999766999157146	236	satiated	stimuli/foods\peach.jpg	1	2	1	peach	1	J	6	0	238	0		0	0	149.298092700075	149.398069399991
20568.5	0.100009199930355	237	satiated	stimuli/foods\carrot.jpg	1	2	1	carrot	1	N	10	0	19	0		0	0	149.448055000044	149.548064199975
20606	0.0999934000428766	238	satiated	stimuli/non_foods\non-food_inanimate_moss.jpg	1	2	1	non-food_inanimate_moss	0	D	2	0	194	0		0	0	149.598072499968	149.698065900011
20643.5	0.100009799934924	239	satiated	stimuli/non_foods\non-food_animate_millipede.jpg	1	2	1	non-food_animate_millipede	0	H	5	0	129	0		0	0	149.748078400036	149.848088199971
20681	0.099964200053364	240	satiated	stimuli/non_foods\non-food_inanimate_short_sleeved_shirt.jpg	1	2	1	non-food_inanimate_short_sleeved_shirt	0	Z	18	0	207	0		0	0	149.898098699981	149.998062900035
20718.5	0.0999841999728233	241	satiated	stimuli/foods\cereal.jpg	1	2	1	cereal	1	F	3	0	22	0		0	0	150.048073400045	150.148057600018
20756	0.100003900006413	242	satiated	stimuli/foods\pear.jpg	1	2	1	pear	1	X	17	0	239	0		0	0	150.198056000052	150.298059900058
20793.5	0.099983699969016	243	satiated	stimuli/foods\watermelon.jpg	1	2	1	watermelon	1	W	16	0	279	0		0	0	150.348070700071	150.44805440004
20831	0.0999828000785783	244	satiated	stimuli/non_foods\non-food_inanimate_guitar.jpg	1	2	1	non-food_inanimate_guitar	0	S	13	0	185	0		0	0	150.498069499969	150.598052300047
20868.5	0.0999953000573441	245	satiated	stimuli/non_foods\non-food_inanimate_cap.jpg	1	2	1	non-food_inanimate_cap	0	H	5	0	171	0		0	0	150.648057600018	150.748052900075
20906	0.0999818000709638	246	satiated	stimuli/foods\lemon_meringue_pie.jpg	1	2	1	lemon_meringue_pie	1	B	0	0	73	0		0	0	150.798067399999	150.89804920007
20943.5	0.0999882000032812	247	satiated	stimuli/foods\smoked_ham.jpg	1	2	1	smoked_ham	1	S	13	0	266	0		0	0	150.948064099997	151.048052300001
20981	0.0999899000162259	248	satiated	stimuli/non_foods\non-food_inanimate_waterlily.jpg	1	2	1	non-food_inanimate_waterlily	0	Z	18	0	226	0		0	0	151.098062400008	151.198052300024
21018.5	0.0999783000443131	249	satiated	stimuli/non_foods\non-food_animate_fox.jpg	1	2	1	non-food_animate_fox	0	N	10	0	112	0		0	0	151.248060900019	151.348039200064
21056	0.0999707999872044	250	satiated	stimuli/foods\croissant.jpg	1	2	1	croissant	1	O	22	1	40	0		0	0	151.398059000028	151.498029800016
21093.5	0.100040800054558	251	satiated	stimuli/non_foods\non-food_animate_sea_turtle.jpg	1	2	1	non-food_animate_sea_turtle	0	N	10	0	144	0		0	0	151.548033999978	151.648074800032
21131	0.0999351999489591	252	satiated	stimuli/non_foods\non-food_inanimate_bucket.jpg	1	2	1	non-food_inanimate_bucket	0	H	5	0	165	0		0	0	151.698102600058	151.798037800007
21168.5	0.0999838999705389	253	satiated	stimuli/foods\cabbage.jpg	1	2	1	cabbage	1	P	11	0	16	0		0	0	151.848054900067	151.948038800037
21206	0.099987699999474	254	satiated	stimuli/foods\garlic.jpg	1	2	1	garlic	1	K	7	0	56	1	a	0.691816700040363	1	151.998051000061	152.09803870006
21243.5	0.0999850000953302	255	satiated	stimuli/foods\lollies.jpg	1	2	1	lollies	1	F	3	0	78	0		0	0	152.148051999975	152.24803700007
21281	0.0999840000877157	256	satiated	stimuli/foods\fruit_pie.jpg	1	2	1	fruit_pie	1	P	11	0	54	0		0	0	152.298049899982	152.39803390007
21318.5	0.099982300074771	257	satiated	stimuli/foods\bagel.jpg	1	2	1	bagel	1	D	2	0	6	0		0	0	152.448048299993	152.548030600068
21356	0.0999874999979511	258	satiated	stimuli/non_foods\non-food_animate_ram.jpg	1	2	1	non-food_animate_ram	0	Z	18	0	140	0		0	0	152.598045499995	152.698032999993
21393.5	0.0999597999034449	259	satiated	stimuli/foods\raisins.jpg	1	2	1	raisins	1	T	14	0	252	0		0	0	152.748066700064	152.848026499967
21431	0.0999863999895751	260	satiated	stimuli/foods\kiwi.jpg	1	2	1	kiwi	1	W	16	0	69	0		0	0	152.898042500019	152.998028900009
21468.5	0.0999872999964282	261	satiated	stimuli/non_foods\non-food_animate_chicken.jpg	1	2	1	non-food_animate_chicken	0	T	14	0	101	0		0	0	153.048040700029	153.148028000025
21506	0.099972500000149	262	satiated	stimuli/non_foods\non-food_inanimate_bicycle.jpg	1	2	1	non-food_inanimate_bicycle	0	P	11	0	161	0		0	0	153.198037400027	153.298009900027
21543.5	0.10003059997689	263	satiated	stimuli/non_foods\non-food_animate_elephant.jpg	1	2	1	non-food_animate_elephant	0	D	2	0	111	0		0	0	153.348039000062	153.448069600039
21581	0.0999599000206217	264	satiated	stimuli/non_foods\non-food_inanimate_shell.jpg	1	2	1	non-food_inanimate_shell	0	G	4	0	206	0		0	0	153.498058800003	153.598018700024
21618.5	0.099923099973239	265	satiated	stimuli/foods\museli_bars.jpg	1	2	1	museli_bars	1	R	12	0	84	0		0	0	153.648077500053	153.748000600026
21656	0.100004400010221	266	satiated	stimuli/foods\donut.jpg	1	2	1	donut	1	N	10	0	44	0		0	0	153.798016799963	153.898021199973
21693.5	0.0999888000078499	267	satiated	stimuli/non_foods\non-food_animate_peacock.jpg	1	2	1	non-food_animate_peacock	0	P	11	0	134	0		0	0	153.948030899977	154.048019699985
21731	0.0999698000960052	268	satiated	stimuli/non_foods\non-food_animate_green_bug.jpg	1	2	1	non-food_animate_green_bug	0	M	9	0	118	0		0	0	154.098028299981	154.197998100077
21768.5	0.0999809999484569	269	satiated	stimuli/foods\almonds.jpg	1	2	1	almonds	1	P	11	0	0	0		0	0	154.248022600077	154.348003600026
21806	0.0999872999964282	270	satiated	stimuli/non_foods\non-food_inanimate_suitcase.jpg	1	2	1	non-food_inanimate_suitcase	0	D	2	0	215	0		0	0	154.39801730006	154.498004600056
21843.5	0.0999729000031948	271	satiated	stimuli/foods\potatoes.jpg	1	2	1	potatoes	1	Z	18	0	248	0		0	0	154.548029300058	154.648002200061
21881	0.0999839000869542	272	satiated	stimuli/foods\lime.jpg	1	2	1	lime	1	S	13	0	76	0		0	0	154.698016199982	154.798000100069
21918.5	0.0999731000047177	273	satiated	stimuli/non_foods\non-food_animate_Causasian_man.jpg	1	2	1	non-food_animate_Causasian_man	0	M	9	0	89	0		0	0	154.848013399984	154.947986499988
21956	0.10000089998357	274	satiated	stimuli/foods\pickles.jpg	1	2	1	pickles	1	W	16	0	242	0		0	0	154.998001900036	155.098002800019
21993.5	0.100030699977651	275	satiated	stimuli/non_foods\non-food_inanimate_construction_helment.jpg	1	2	1	non-food_inanimate_construction_helment	0	K	7	0	175	0		0	0	155.148017200059	155.248047900037
22031	0.099971100105904	276	satiated	stimuli/foods\risotto_with_zucchini.jpg	1	2	1	risotto_with_zucchini	1	N	10	0	260	0		0	0	155.298031899962	155.398003000068
22068.5	0.0999881000025198	277	satiated	stimuli/foods\oyster.jpg	1	2	1	oyster	1	W	16	0	233	0		0	0	155.448013499961	155.548001599964
22106	0.0999858001014218	278	satiated	stimuli/foods\corncob.jpg	1	2	1	corncob	1	K	7	0	37	0		0	0	155.598012399976	155.697998200078
22143.5	0.0999842000892386	279	satiated	stimuli/foods\hamburger.jpg	1	2	1	hamburger	1	G	4	0	64	0		0	0	155.748009399977	155.847993600066
22635.25	0.0999752000207081	280	satiated	stimuli/foods\risotto_with_peas_and_asparagus_tips.jpg	1	3	1	risotto_with_peas_and_asparagus_tips	1	J	6	0	259	0		0	0	157.714657800039	157.81463300006
22672.75	0.0999830000801012	281	satiated	stimuli/non_foods\non-food_animate_lizard.jpg	1	3	1	non-food_animate_lizard	0	T	14	0	126	0		0	0	157.864649199997	157.964632200077
22710.25	0.0999716999940574	282	satiated	stimuli/non_foods\non-food_inanimate_bed.jpg	1	3	1	non-food_inanimate_bed	0	K	7	0	160	0		0	0	158.014657499967	158.114629199961
22747.75	0.0999816000694409	283	satiated	stimuli/foods\fruit_pie.jpg	1	3	1	fruit_pie	1	J	6	0	54	0		0	0	158.164644500008	158.264626100077
22785.25	0.100001099985093	284	satiated	stimuli/non_foods\non-food_inanimate_toilet.jpg	1	3	1	non-food_inanimate_toilet	0	C	1	0	220	0		0	0	158.314643700025	158.41464480001
22822.75	0.0999555999878794	285	satiated	stimuli/non_foods\non-food_inanimate_guitar.jpg	1	3	1	non-food_inanimate_guitar	0	W	16	0	185	0		0	0	158.464667599997	158.564623199985
22860.25	0.0999850999796763	286	satiated	stimuli/non_foods\non-food_animate_grasshopper.jpg	1	3	1	non-food_animate_grasshopper	0	Z	18	0	117	0		0	0	158.614638500032	158.714623600012
22897.75	0.0999848999781534	287	satiated	stimuli/foods\orange.jpg	1	3	1	orange	1	X	17	0	230	0		0	0	158.764637500048	158.864622400026
22935.25	0.0999837999697775	288	satiated	stimuli/foods\brownie.jpg	1	3	1	brownie	1	Z	18	0	14	0		0	0	158.914633200038	159.014617000008
22972.75	0.0999888000078499	289	satiated	stimuli/foods\mussels.jpg	1	3	1	mussels	1	P	11	0	86	0		0	0	159.064631200046	159.164620000054
23010.25	0.099998899968341	290	satiated	stimuli/foods\donut.jpg	1	3	1	donut	1	J	6	0	44	0		0	0	159.214623700012	159.314622599981
23047.75	0.0999817999545485	291	satiated	stimuli/non_foods\non-food_inanimate_toy_airplane.jpg	1	3	1	non-food_inanimate_toy_airplane	0	L	8	0	222	0		0	0	159.364636200015	159.464617999969
23085.25	0.09996359993238	292	satiated	stimuli/foods\mushroom.jpg	1	3	1	mushroom	1	X	17	0	85	0		0	0	159.51465570007	159.614619300002
23122.75	0.0999833999667317	293	satiated	stimuli/foods\rockmelon.jpg	1	3	1	rockmelon	1	W	16	0	262	0		0	0	159.664631400025	159.764614799991
23160.25	0.0999853999819607	294	satiated	stimuli/foods\fennel.jpg	1	3	1	fennel	1	J	6	0	47	0		0	0	159.81463040004	159.914615800022
23197.75	0.0999839999713004	295	satiated	stimuli/non_foods\non-food_animate_young_girl.jpg	1	3	1	non-food_animate_young_girl	0	L	8	0	157	0		0	0	159.964630800067	160.064614800038
23235.25	0.100005100015551	296	satiated	stimuli/non_foods\non-food_inanimate_socks.jpg	1	3	1	non-food_inanimate_socks	0	K	7	0	211	0		0	0	160.114626700059	160.214631800074
23272.75	0.0999282000120729	297	satiated	stimuli/foods\lemon.jpg	1	3	1	lemon	1	M	9	0	72	0		0	0	160.26468370005	160.364611900062
23310.25	0.0999867999926209	298	satiated	stimuli/non_foods\non-food_inanimate_jeans.jpg	1	3	1	non-food_inanimate_jeans	0	S	13	0	191	0		0	0	160.414618900046	160.514605700038
23347.75	0.0999883000040427	299	satiated	stimuli/foods\apple.jpg	1	3	1	apple	1	V	15	0	1	0		0	0	160.564620599966	160.66460889997
23385.25	0.0999829999636859	300	satiated	stimuli/foods\lasagna.jpg	1	3	1	lasagna	1	K	7	0	71	0		0	0	160.71462600003	160.814608999994
23422.75	0.0999831999652088	301	satiated	stimuli/foods\celery.jpg	1	3	1	celery	1	H	5	0	21	0		0	0	160.864618599997	160.964601799962
23460.25	0.0999674999620765	302	satiated	stimuli/non_foods\non-food_animate_green_bug.jpg	1	3	1	non-food_animate_green_bug	0	D	2	0	118	0		0	0	161.014621400042	161.114588900004
23497.75	0.0999903000192717	303	satiated	stimuli/non_foods\non-food_animate_camel.jpg	1	3	1	non-food_animate_camel	0	W	16	0	97	0		0	0	161.16460150003	161.264591800049
23535.25	0.0999799000564963	304	satiated	stimuli/non_foods\non-food_inanimate_briefcase.jpg	1	3	1	non-food_inanimate_briefcase	0	X	17	0	163	0		0	0	161.314610600006	161.414590500062
23572.75	0.0999828999629244	305	satiated	stimuli/foods\salami.jpg	1	3	1	salami	1	F	3	0	263	0		0	0	161.464609800023	161.564592699986
23610.25	0.0999844999751076	306	satiated	stimuli/foods\minestrone_soup.jpg	1	3	1	minestrone_soup	1	G	4	0	82	0		0	0	161.614604200004	161.714588699979
23647.75	0.0999842999735847	307	satiated	stimuli/non_foods\non-food_animate_Asian_man.jpg	1	3	1	non-food_animate_Asian_man	0	L	8	0	88	0		0	0	161.764603600022	161.864587899996
23685.25	0.099978799931705	308	satiated	stimuli/foods\chestnut.jpg	1	3	1	chestnut	1	D	2	0	24	0		0	0	161.914607600076	162.014586400008
23722.75	0.0999620999209583	309	satiated	stimuli/foods\bagel.jpg	1	3	1	bagel	1	N	10	0	6	0		0	0	162.064619700075	162.164581799996
23760.25	0.0999833999667317	310	satiated	stimuli/foods\pork_and_rice.jpg	1	3	1	pork_and_rice	1	R	12	0	245	0		0	0	162.214598900056	162.314582300023
23797.75	0.0999839999713004	311	satiated	stimuli/non_foods\non-food_animate_polar_bear.jpg	1	3	1	non-food_animate_polar_bear	0	K	7	0	137	0		0	0	162.364596600062	162.464580600034
23835.25	0.0999829999636859	312	satiated	stimuli/non_foods\non-food_animate_sea_lion.jpg	1	3	1	non-food_animate_sea_lion	0	C	1	0	143	0		0	0	162.514594800072	162.614577800035
23872.75	0.0999810000648722	313	satiated	stimuli/non_foods\non-food_animate_dachshund.jpg	1	3	1	non-food_animate_dachshund	0	P	11	0	104	0		0	0	162.66459359997	162.764574600034
23910.25	0.0999831000808626	314	satiated	stimuli/non_foods\non-food_inanimate_stoplight.jpg	1	3	1	non-food_inanimate_stoplight	0	J	6	0	214	0		0	0	162.814591799979	162.91457490006
23947.75	0.100001099985093	315	satiated	stimuli/non_foods\non-food_animate_alligator.jpg	1	3	1	non-food_animate_alligator	0	M	9	0	90	0		0	0	162.964586100075	163.06458720006
23985.25	0.0999616000335664	316	satiated	stimuli/foods\oven-roasted_tomatoes.jpg	1	3	1	oven-roasted_tomatoes	1	W	16	0	232	0		0	0	163.114620800014	163.214582400047
24022.75	0.0999759000260383	317	satiated	stimuli/foods\pepperoni_pizza.jpg	1	3	1	pepperoni_pizza	1	M	9	0	241	0		0	0	163.264591700048	163.364567600074
24060.25	0.0999902000185102	318	satiated	stimuli/foods\clams.jpg	1	3	1	clams	1	D	2	0	32	0		0	0	163.414588300046	163.514578500064
24097.75	0.0999817000702024	319	satiated	stimuli/non_foods\non-food_animate_butterfly.jpg	1	3	1	non-food_animate_butterfly	0	N	10	0	96	0		0	0	163.564590099966	163.664571800036
24135.25	0.100010900059715	320	satiated	stimuli/non_foods\non-food_animate_fox.jpg	1	3	1	non-food_animate_fox	0	X	17	0	112	0		0	0	163.714590999996	163.814601900056
24172.75	0.099946100031957	321	satiated	stimuli/foods\swordfish.jpg	1	3	1	swordfish	1	J	6	0	273	0		0	0	163.864623400033	163.964569500065
24210.25	0.0999830000801012	322	satiated	stimuli/non_foods\non-food_animate_lion.jpg	1	3	1	non-food_animate_lion	0	D	2	0	125	0		0	0	164.014584599994	164.114567600074
24247.75	0.0999803999438882	323	satiated	stimuli/non_foods\non-food_inanimate_horn.jpg	1	3	1	non-food_inanimate_horn	0	F	3	0	190	0		0	0	164.164585700026	164.26456609997
24285.25	0.0999858999857679	324	satiated	stimuli/non_foods\non-food_animate_peacock.jpg	1	3	1	non-food_animate_peacock	0	K	7	0	134	0		0	0	164.314581000013	164.414566899999
24322.75	0.0999928000383079	325	satiated	stimuli/non_foods\non-food_animate_mammoth.jpg	1	3	1	non-food_animate_mammoth	0	W	16	0	128	0		0	0	164.4645762	164.564569000038
24360.25	0.0999821999575943	326	satiated	stimuli/non_foods\non-food_inanimate_broom.jpg	1	3	1	non-food_inanimate_broom	0	A	19	1	164	0		0	0	164.614578800043	164.714561000001
24397.75	0.0999849999789149	327	satiated	stimuli/foods\oyster.jpg	1	3	1	oyster	1	Z	18	0	233	0		0	0	164.764572500018	164.864557499997
24435.25	0.0999618000350893	328	satiated	stimuli/foods\hazelnuts.jpg	1	3	1	hazelnuts	1	M	9	0	65	1	a	0.391843099961989	1	164.914598500007	165.014560300042
24472.75	0.0999827000778168	329	satiated	stimuli/non_foods\non-food_inanimate_skirt.jpg	1	3	1	non-food_inanimate_skirt	0	T	14	0	209	0		0	0	165.064575999975	165.164558700053
24510.25	0.0999795000534505	330	satiated	stimuli/foods\fried_zucchini.jpg	1	3	1	fried_zucchini	1	D	2	0	51	0		0	0	165.214575099992	165.314554600045
24547.75	0.0999958000611514	331	satiated	stimuli/non_foods\non-food_inanimate_watering_can.jpg	1	3	1	non-food_inanimate_watering_can	0	Z	18	0	225	0		0	0	165.364568499965	165.464564300026
24585.25	0.0999853999819607	332	satiated	stimuli/non_foods\non-food_inanimate_moss.jpg	1	3	1	non-food_inanimate_moss	0	B	0	0	194	0		0	0	165.514578400063	165.614563800045
24622.75	0.0999589000130072	333	satiated	stimuli/non_foods\non-food_inanimate_teddy_bear.jpg	1	3	1	non-food_inanimate_teddy_bear	0	J	6	0	218	0		0	0	165.664589400054	165.764548300067
24660.25	0.0999812999507412	334	satiated	stimuli/foods\waffle.jpg	1	3	1	waffle	1	X	17	0	278	0		0	0	165.814566200017	165.914547499968
24697.75	0.0999541999772191	335	satiated	stimuli/non_foods\non-food_inanimate_rope.jpg	1	3	1	non-food_inanimate_rope	0	F	3	0	204	0		0	0	165.964564700029	166.064518900006
24735.25	0.099984799977392	336	satiated	stimuli/foods\beetroots.jpg	1	3	1	beetroots	1	L	8	0	10	0		0	0	166.114556099987	166.214540899964
24772.75	0.0999818999553099	337	satiated	stimuli/foods\oregano.jpg	1	3	1	oregano	1	T	14	0	231	0		0	0	166.264555800008	166.364537699963
24810.25	0.0999801000580192	338	satiated	stimuli/non_foods\non-food_inanimate_tent.jpg	1	3	1	non-food_inanimate_tent	0	Z	18	0	219	0		0	0	166.4145518	166.514531900059
24847.75	0.0999911000253633	339	satiated	stimuli/foods\green_olives.jpg	1	3	1	green_olives	1	L	8	0	62	0		0	0	166.564552300028	166.664543400053
24885.25	0.0999643999384716	340	satiated	stimuli/foods\museli_bars.jpg	1	3	1	museli_bars	1	N	10	0	84	0		0	0	166.714567400049	166.814531799988
24922.75	0.0999951000558212	341	satiated	stimuli/foods\blackberry.jpg	1	3	1	blackberry	1	X	17	0	11	0		0	0	166.864544300013	166.964539400069
24960.25	0.0999867999926209	342	satiated	stimuli/non_foods\non-food_animate_giraffe.jpg	1	3	1	non-food_animate_giraffe	0	F	3	0	115	0		0	0	167.014543100027	167.11452990002
24997.75	0.100001999991946	343	satiated	stimuli/foods\fried_calamari.jpg	1	3	1	fried_calamari	1	G	4	0	50	0		0	0	167.164541800041	167.264543800033
25035.25	0.0999909000238404	344	satiated	stimuli/non_foods\non-food_inanimate_orchid.jpg	1	3	1	non-food_inanimate_orchid	0	R	12	0	198	0		0	0	167.314551900025	167.414542800048
25072.75	0.0999901000177488	345	satiated	stimuli/non_foods\non-food_animate_donkey.jpg	1	3	1	non-food_animate_donkey	0	W	16	0	107	0		0	0	167.46454429999	167.564534400008
25110.25	0.0999838999705389	346	satiated	stimuli/non_foods\non-food_animate_dragonfly.jpg	1	3	1	non-food_animate_dragonfly	0	H	5	0	108	0		0	0	167.61454520002	167.714529099991
25147.75	0.0999802000587806	347	satiated	stimuli/foods\dates.jpg	1	3	1	dates	1	B	0	0	43	0		0	0	167.764541100012	167.864521300071
25185.25	0.0999842000892386	348	satiated	stimuli/foods\stew_with_potatoes_and_carrots.jpg	1	3	1	stew_with_potatoes_and_carrots	1	S	13	0	271	0		0	0	167.914534099982	168.014518300071
25222.75	0.099982799962163	349	satiated	stimuli/foods\lamb_chops.jpg	1	3	1	lamb_chops	1	Z	18	0	70	0		0	0	168.064536500024	168.164519299986
25260.25	0.0999880000017583	350	satiated	stimuli/foods\croissant.jpg	1	3	1	croissant	1	H	5	0	40	0		0	0	168.214531800011	168.314519800013
25297.75	0.0999837999697775	351	satiated	stimuli/non_foods\non-food_inanimate_fire_extinguisher.jpg	1	3	1	non-food_inanimate_fire_extinguisher	0	G	4	0	181	0		0	0	168.364531100029	168.464514899999
25335.25	0.100000400096178	352	satiated	stimuli/non_foods\non-food_inanimate_lighter.jpg	1	3	1	non-food_inanimate_lighter	0	D	2	0	193	0		0	0	168.514520699973	168.614521100069
25372.75	0.0999842999735847	353	satiated	stimuli/foods\spaghetti_with_meat_sauce.jpg	1	3	1	spaghetti_with_meat_sauce	1	C	1	0	267	1	a	0	0	168.66453040007	168.764514700044
25410.25	0.0999883000040427	354	satiated	stimuli/non_foods\non-food_inanimate_chandelier.jpg	1	3	1	non-food_inanimate_chandelier	0	D	2	0	173	0		0	0	168.814529799973	168.914518099977
25447.75	0.0999990000855178	355	satiated	stimuli/foods\coconut.jpg	1	3	1	coconut	1	U	23	1	33	0		0	0	168.964528699988	169.064527700073
25485.25	0.099941199994646	356	satiated	stimuli/foods\potatoes.jpg	1	3	1	potatoes	1	P	11	0	248	0		0	0	169.114571499988	169.214512699982
25522.75	0.0999841999728233	357	satiated	stimuli/foods\potato_and_green_bean_salad.jpg	1	3	1	potato_and_green_bean_salad	1	W	16	0	246	0		0	0	169.26452680002	169.364510999992
25560.25	0.0999812999507412	358	satiated	stimuli/foods\cabbage.jpg	1	3	1	cabbage	1	L	8	0	16	0		0	0	169.414526500041	169.514507799991
25597.75	0.0999895000131801	359	satiated	stimuli/foods\grapes.jpg	1	3	1	grapes	1	C	1	0	60	0		0	0	169.564521400025	169.664510900038
25635.25	0.099978500045836	360	satiated	stimuli/foods\pickles.jpg	1	3	1	pickles	1	L	8	0	242	0		0	0	169.714527299977	169.814505800023
25672.75	0.0999851999804378	361	satiated	stimuli/non_foods\non-food_inanimate_short_sleeved_shirt.jpg	1	3	1	non-food_inanimate_short_sleeved_shirt	0	F	3	0	207	0		0	0	169.864519300056	169.964504500036
25710.25	0.0999869999941438	362	satiated	stimuli/non_foods\non-food_animate_ladybug.jpg	1	3	1	non-food_animate_ladybug	0	V	15	0	124	0		0	0	170.014517800068	170.114504800062
25747.75	0.0999842999735847	363	satiated	stimuli/foods\hamburger.jpg	1	3	1	hamburger	1	F	3	0	64	0		0	0	170.164515500073	170.264499800047
25785.25	0.0999864999903366	364	satiated	stimuli/foods\avocado.jpg	1	3	1	avocado	1	N	10	0	5	0		0	0	170.314515799982	170.414502299973
25822.75	0.0999851999804378	365	satiated	stimuli/foods\cupcake.jpg	1	3	1	cupcake	1	P	11	0	42	0		0	0	170.464516200009	170.564501399989
25860.25	0.0999852999811992	366	satiated	stimuli/non_foods\non-food_animate_bat.jpg	1	3	1	non-food_animate_bat	0	W	16	0	94	0		0	0	170.614512700005	170.714497999987
25897.75	0.100013099960051	367	satiated	stimuli/non_foods\non-food_inanimate_bamboo.jpg	1	3	1	non-food_inanimate_bamboo	0	V	15	0	159	0		0	0	170.764512500027	170.864525599987
25935.25	0.0999954999424517	368	satiated	stimuli/foods\cucumber.jpg	1	3	1	cucumber	1	C	1	0	41	0		0	0	170.91449710005	171.014492599992
25972.75	0.0999858999857679	369	satiated	stimuli/non_foods\non-food_animate_baby_crawling.jpg	1	3	1	non-food_animate_baby_crawling	0	H	5	0	92	0		0	0	171.064507000032	171.164492900018
26010.25	0.0999846999766305	370	satiated	stimuli/foods\cherry.jpg	1	3	1	cherry	1	J	6	0	23	0		0	0	171.214506400051	171.314491100027
26047.75	0.0999860999872908	371	satiated	stimuli/foods\meatballs.jpg	1	3	1	meatballs	1	X	17	0	81	0		0	0	171.364501700038	171.464487800025
26085.25	0.0999830999644473	372	satiated	stimuli/foods\cooked_prawn.jpg	1	3	1	cooked_prawn	1	T	14	0	36	0		0	0	171.514502900071	171.614486000035
26122.75	0.0999830000801012	373	satiated	stimuli/foods\banana.jpg	1	3	1	banana	1	D	2	0	9	0		0	0	171.664501499967	171.764484500047
26160.25	0.0999829000793397	374	satiated	stimuli/foods\toasted_bread_with_tomatoes.jpg	1	3	1	toasted_bread_with_tomatoes	1	K	7	0	275	0		0	0	171.814498799969	171.914481700049
26197.75	0.0999647999415174	375	satiated	stimuli/non_foods\non-food_animate_elephant.jpg	1	3	1	non-food_animate_elephant	0	G	4	0	111	0		0	0	171.964518500026	172.064483299968
26235.25	0.0999842999735847	376	satiated	stimuli/non_foods\non-food_inanimate_skateboard.jpg	1	3	1	non-food_inanimate_skateboard	0	Z	18	0	208	0		0	0	172.114495599992	172.214479899965
26272.75	0.0999900000169873	377	satiated	stimuli/foods\strawberry.jpg	1	3	1	strawberry	1	S	13	0	272	0		0	0	172.264491499984	172.364481500001
26310.25	0.099984799977392	378	satiated	stimuli/non_foods\non-food_animate_young_boy.jpg	1	3	1	non-food_animate_young_boy	0	M	9	0	156	0		0	0	172.414496200043	172.51448100002
26347.75	0.100001099985093	379	satiated	stimuli/non_foods\non-food_animate_penguin.jpg	1	3	1	non-food_animate_penguin	0	D	2	0	135	0		0	0	172.564490400022	172.664491500007
26385.25	0.0999636000487953	380	satiated	stimuli/foods\papaya.jpg	1	3	1	papaya	1	H	5	0	235	0		0	0	172.714510399965	172.814474000013
26422.75	0.0999830999644473	381	satiated	stimuli/foods\spinach.jpg	1	3	1	spinach	1	N	10	0	268	0		0	0	172.864488400053	172.964471500018
26460.25	0.0999800999416038	382	satiated	stimuli/foods\cannoli.jpg	1	3	1	cannoli	1	G	4	0	17	0		0	0	173.014486400061	173.114466500003
26497.75	0.0999832000816241	383	satiated	stimuli/foods\broccoli.jpg	1	3	1	broccoli	1	L	8	0	13	0		0	0	173.164487599977	173.264470800059
26535.25	0.099982300074771	384	satiated	stimuli/non_foods\non-food_animate_dolphin.jpg	1	3	1	non-food_animate_dolphin	0	S	13	0	106	0		0	0	173.314483399969	173.414465700043
26572.75	0.0999882000032812	385	satiated	stimuli/non_foods\non-food_inanimate_drum_set.jpg	1	3	1	non-food_inanimate_drum_set	0	L	8	0	179	0		0	0	173.464479899965	173.564468099969
26610.25	0.0999809000641108	386	satiated	stimuli/foods\pear.jpg	1	3	1	pear	1	X	17	0	239	0		0	0	173.614481700002	173.714462600066
26647.75	0.0999867999926209	387	satiated	stimuli/non_foods\non-food_inanimate_towel.jpg	1	3	1	non-food_inanimate_towel	0	G	4	0	221	0		0	0	173.764488200075	173.864475000068
26685.25	0.0999852999811992	388	satiated	stimuli/non_foods\non-food_animate_clown.jpg	1	3	1	non-food_animate_clown	0	B	0	0	102	0		0	0	173.914475500002	174.014460799983
26722.75	0.0999872999964282	389	satiated	stimuli/non_foods\non-food_inanimate_bucket.jpg	1	3	1	non-food_inanimate_bucket	0	P	11	0	165	0		0	0	174.064474500017	174.164461800014
26760.25	0.099987699999474	390	satiated	stimuli/foods\artichoke.jpg	1	3	1	artichoke	1	T	14	0	3	0		0	0	174.214473200031	174.31446090003
26797.75	0.100000499980524	391	satiated	stimuli/foods\omelette.jpg	1	3	1	omelette	1	C	1	0	228	0		0	0	174.364475400071	174.464475900051
26835.25	0.0999761000275612	392	satiated	stimuli/foods\fruit_flan.jpg	1	3	1	fruit_flan	1	V	15	0	53	0		0	0	174.514473499963	174.614449599991
26872.75	0.0999837999697775	393	satiated	stimuli/non_foods\non-food_animate_snail.jpg	1	3	1	non-food_animate_snail	0	C	1	0	149	0		0	0	174.664459799998	174.764443599968
26910.25	0.0999843999743462	394	satiated	stimuli/non_foods\non-food_animate_porcupine.jpg	1	3	1	non-food_animate_porcupine	0	X	17	0	138	0		0	0	174.814458100009	174.914442499983
26947.75	0.0999927999218926	395	satiated	stimuli/non_foods\non-food_inanimate_folding_chair.jpg	1	3	1	non-food_inanimate_folding_chair	0	P	11	0	182	0		0	0	174.96445910004	175.064451899962
26985.25	0.099996899953112	396	satiated	stimuli/non_foods\non-food_animate_baby_sitting.jpg	1	3	1	non-food_animate_baby_sitting	0	L	8	0	93	0		0	0	175.114443600061	175.214440500014
27022.75	0.0999821999575943	397	satiated	stimuli/foods\figs.jpg	1	3	1	figs	1	X	17	0	48	0		0	0	175.264453900047	175.364436100004
27060.25	0.0999920000322163	398	satiated	stimuli/non_foods\non-food_animate_rhino.jpg	1	3	1	non-food_animate_rhino	0	W	16	0	141	0		0	0	175.414449800039	175.514441800071
27097.75	0.0999612000305206	399	satiated	stimuli/foods\cinnamon_sroll.jpg	1	3	1	cinnamon_sroll	1	L	8	0	31	0		0	0	175.564475100022	175.664436300052
27135.25	0.0999826000770554	400	satiated	stimuli/non_foods\non-food_animate_slug.jpg	1	3	1	non-food_animate_slug	0	M	9	0	148	0		0	0	175.714449799969	175.814432400046
27172.75	0.0999850000953302	401	satiated	stimuli/foods\rice.jpg	1	3	1	rice	1	V	15	0	257	0		0	0	175.864447699976	175.964432700071
27210.25	0.0999908000230789	402	satiated	stimuli/non_foods\non-food_animate_caterpillar.jpg	1	3	1	non-food_animate_caterpillar	0	X	17	0	99	0		0	0	176.014444899978	176.114435700001
27247.75	0.0999779000412673	403	satiated	stimuli/foods\pumpkin.jpg	1	3	1	pumpkin	1	V	15	0	250	0		0	0	176.164460500004	176.264438400045
27285.25	0.100000499980524	404	satiated	stimuli/non_foods\non-food_animate_tortoise.jpg	1	3	1	non-food_animate_tortoise	0	S	13	0	153	0		0	0	176.314435200067	176.414435700048
27322.75	0.0999856000998989	405	satiated	stimuli/foods\ginger_root.jpg	1	3	1	ginger_root	1	B	0	0	57	0		0	0	176.464449799969	176.564435400069
27360.25	0.0999630000442266	406	satiated	stimuli/non_foods\non-food_inanimate_waterlily.jpg	1	3	1	non-food_inanimate_waterlily	0	C	1	0	226	0		0	0	176.614450299996	176.71441330004
27397.75	0.0999840999720618	407	satiated	stimuli/non_foods\non-food_inanimate_canoe.jpg	1	3	1	non-food_inanimate_canoe	0	J	6	0	170	0		0	0	176.764442600077	176.864426700049
27435.25	0.09998430009	408	satiated	stimuli/foods\egg.jpg	1	3	1	egg	1	N	10	0	45	0		0	0	176.914442799985	177.014427100075
27472.75	0.0999824999598786	409	satiated	stimuli/foods\chilli.jpg	1	3	1	chilli	1	B	0	0	25	0		0	0	177.064442300005	177.164424799965
27510.25	0.0999739000108093	410	satiated	stimuli/non_foods\non-food_animate_eagle.jpg	1	3	1	non-food_animate_eagle	0	S	13	0	110	0		0	0	177.214437599992	177.314411500003
27547.75	0.0999925999203697	411	satiated	stimuli/foods\corncob.jpg	1	3	1	corncob	1	B	0	0	37	0		0	0	177.364428500063	177.464421099983
27585.25	0.100003700004891	412	satiated	stimuli/non_foods\non-food_inanimate_gloves.jpg	1	3	1	non-food_inanimate_gloves	0	W	16	0	183	0		0	0	177.51440710004	177.614410800044
27622.75	0.0999825000762939	413	satiated	stimuli/non_foods\non-food_inanimate_nettle.jpg	1	3	1	non-food_inanimate_nettle	0	D	2	0	197	0		0	0	177.664429099998	177.764411600074
27660.25	0.0999947000527754	414	satiated	stimuli/foods\garlic.jpg	1	3	1	garlic	1	S	13	0	56	0		0	0	177.814423599979	177.914418300032
27697.75	0.10000260011293	415	satiated	stimuli/foods\asparagus.jpg	1	3	1	asparagus	1	R	12	0	4	0		0	0	177.964448899962	178.064451500075
27735.25	0.0999812000663951	416	satiated	stimuli/foods\cinnamon.jpg	1	3	1	cinnamon	1	X	17	0	30	0		0	0	178.114432799979	178.214414000046
27772.75	0.0999867999926209	417	satiated	stimuli/non_foods\non-food_inanimate_chair.jpg	1	3	1	non-food_inanimate_chair	0	F	3	0	172	0		0	0	178.264427000075	178.364413800067
27810.25	0.0999849999789149	418	satiated	stimuli/foods\lime.jpg	1	3	1	lime	1	X	17	0	76	0		0	0	178.414428899996	178.514413899975
27847.75	0.0999869999941438	419	satiated	stimuli/foods\pineapple.jpg	1	3	1	pineapple	1	P	11	0	243	0		0	0	178.564422699972	178.664409699966
28302	0.0999927000375465	420	satiated	stimuli/non_foods\non-food_inanimate_fern.jpg	1	4	1	non-food_inanimate_fern	0	B	0	0	180	0		0	0	180.381084099994	180.481076800032
28339.5	0.0999610999133438	421	satiated	stimuli/foods\lentils.jpg	1	4	1	lentils	1	P	11	0	74	0		0	0	180.531091900077	180.63105299999
28377	0.0999860999872908	422	satiated	stimuli/non_foods\non-food_inanimate_speakers.jpg	1	4	1	non-food_inanimate_speakers	0	X	17	0	212	0		0	0	180.681071900064	180.781058000051
28414.5	0.0999839999713004	423	satiated	stimuli/non_foods\non-food_inanimate_wrench.jpg	1	4	1	non-food_inanimate_wrench	0	G	4	0	227	0		0	0	180.83106700005	180.931051000021
28452	0.0999867999926209	424	satiated	stimuli/non_foods\non-food_inanimate_stapler.jpg	1	4	1	non-food_inanimate_stapler	0	V	15	0	213	0		0	0	180.981063200044	181.081050000037
28489.5	0.0999788000481203	425	satiated	stimuli/foods\cream_donuts.jpg	1	4	1	cream_donuts	1	D	2	0	39	0		0	0	181.131065999973	181.231044800021
28527	0.0999848000938073	426	satiated	stimuli/non_foods\non-food_animate_mouse.jpg	1	4	1	non-food_animate_mouse	0	T	14	0	131	0		0	0	181.281062099966	181.38104690006
28564.5	0.100000299979001	427	satiated	stimuli/foods\linguine_with_clams.jpg	1	4	1	linguine_with_clams	1	K	7	0	77	0		0	0	181.431061299983	181.531061599962
28602	0.0999858999857679	428	satiated	stimuli/non_foods\non-food_animate_ram.jpg	1	4	1	non-food_animate_ram	0	V	15	0	140	0		0	0	181.581057899981	181.681043799967
28639.5	0.099988600006327	429	satiated	stimuli/non_foods\non-food_animate_ant.jpg	1	4	1	non-food_animate_ant	0	J	6	0	91	0		0	0	181.731054599979	181.831043199985
28677	0.0999831999652088	430	satiated	stimuli/non_foods\non-food_animate_kangaroo.jpg	1	4	1	non-food_animate_kangaroo	0	X	17	0	122	0		0	0	181.881057800027	181.981040999992
28714.5	0.0999892000108957	431	satiated	stimuli/foods\cereal.jpg	1	4	1	cereal	1	M	9	0	22	0		0	0	182.031050199992	182.131039400003
28752	0.0999648000579327	432	satiated	stimuli/foods\fries.jpg	1	4	1	fries	1	X	17	0	52	0		0	0	182.181074399967	182.281039200025
28789.5	0.0999819999560714	433	satiated	stimuli/foods\lettuce.jpg	1	4	1	lettuce	1	S	13	0	75	0		0	0	182.331053400063	182.431035400019
28826.75	0.0999981000786647	434	satiated	stimuli/non_foods\non-food_animate_hummingbird.jpg	1	4	1	non-food_animate_hummingbird	0	T	14	0	120	0		0	0	182.481026099995	182.581024200073
28864.5	0.0999359999550506	435	satiated	stimuli/non_foods\non-food_inanimate_desk.jpg	1	4	1	non-food_inanimate_desk	0	B	0	0	178	0		0	0	182.631088600028	182.731024599983
28901.75	0.0999838999705389	436	satiated	stimuli/foods\taco.jpg	1	4	1	taco	1	D	2	0	274	0		0	0	182.781039300025	182.881023199996
28939.25	0.0999781999271363	437	satiated	stimuli/foods\fruit_salad.jpg	1	4	1	fruit_salad	1	G	4	0	55	0		0	0	182.931038600043	183.031016799971
28976.75	0.100004100007936	438	satiated	stimuli/non_foods\non-food_animate_cow.jpg	1	4	1	non-food_animate_cow	0	V	15	0	103	0		0	0	183.081025299965	183.181029399973
29014.5	0.0999713999917731	439	satiated	stimuli/foods\chocolate_chip_cookies.jpg	1	4	1	chocolate_chip_cookies	1	H	5	0	27	0		0	0	183.231039899983	183.331011299975
29051.75	0.0999862999888137	440	satiated	stimuli/non_foods\non-food_inanimate_padlock.jpg	1	4	1	non-food_inanimate_padlock	0	P	11	0	199	0		0	0	183.381031700061	183.48101800005
29089.25	0.099984799977392	441	satiated	stimuli/non_foods\non-food_inanimate_nailpolish.jpg	1	4	1	non-food_inanimate_nailpolish	0	L	8	0	195	0		0	0	183.531029400066	183.631014200044
29126.75	0.0999859001021832	442	satiated	stimuli/non_foods\non-food_animate_runner.jpg	1	4	1	non-food_animate_runner	0	Z	18	0	142	0		0	0	183.681028699968	183.78101460007
29164.25	0.0999830999644473	443	satiated	stimuli/non_foods\non-food_inanimate_highlighter.jpg	1	4	1	non-food_inanimate_highlighter	0	K	7	0	189	0		0	0	183.831040000077	183.931023100042
29202	0.0999393999809399	444	satiated	stimuli/non_foods\non-food_animate_bee.jpg	1	4	1	non-food_animate_bee	0	Z	18	0	95	0		0	0	183.981075600022	184.081015000003
29239.25	0.0999821999575943	445	satiated	stimuli/foods\tomato.jpg	1	4	1	tomato	1	F	3	0	276	0		0	0	184.131029600045	184.231011800002
29276.75	0.099995999946259	446	satiated	stimuli/non_foods\non-food_animate_duck.jpg	1	4	1	non-food_animate_duck	0	N	10	0	109	0		0	0	184.281028800062	184.381024800008
29314.5	0.0999810000648722	447	satiated	stimuli/non_foods\non-food_inanimate_headphones.jpg	1	4	1	non-food_inanimate_headphones	0	M	9	0	188	0		0	0	184.431031999993	184.531013000058
29351.75	0.100008700042963	448	satiated	stimuli/non_foods\non-food_animate_skunk.jpg	1	4	1	non-food_animate_skunk	0	G	4	0	147	0		0	0	184.581001100014	184.681009800057
29389.25	0.0999842000892386	449	satiated	stimuli/non_foods\non-food_animate_millipede.jpg	1	4	1	non-food_animate_millipede	0	M	9	0	129	0		0	0	184.731024499983	184.831008700072
29426.75	0.099987699999474	450	satiated	stimuli/foods\grilled_chicken_breast.jpg	1	4	1	grilled_chicken_breast	1	L	8	0	63	0		0	0	184.881019099965	184.981006799964
29464.5	0.0999846999766305	451	satiated	stimuli/non_foods\non-food_inanimate_pine_cone.jpg	1	4	1	non-food_inanimate_pine_cone	0	M	9	0	200	0		0	0	185.031021700008	185.131006399984
29501.75	0.099982799962163	452	satiated	stimuli/foods\raw_sausage.jpg	1	4	1	raw_sausage	1	P	11	0	254	0		0	0	185.181021000026	185.281003799988
29539.25	0.099984799977392	453	satiated	stimuli/non_foods\non-food_inanimate_shell.jpg	1	4	1	non-food_inanimate_shell	0	W	16	0	206	0		0	0	185.331018400029	185.431003200007
29576.75	0.099984799977392	454	satiated	stimuli/non_foods\non-food_inanimate_cactus_pot_plant.jpg	1	4	1	non-food_inanimate_cactus_pot_plant	0	B	0	0	169	0		0	0	185.481015800033	185.58100060001
29614.25	0.100013099960051	455	satiated	stimuli/non_foods\non-food_inanimate_bicycle.jpg	1	4	1	non-food_inanimate_bicycle	0	C	1	0	161	0		0	0	185.631011800026	185.731024899986
29652	0.0999370999634266	456	satiated	stimuli/non_foods\non-food_animate_raccoon.jpg	1	4	1	non-food_animate_raccoon	0	H	5	0	139	0		0	0	185.781071500038	185.881008600001
29689.25	0.100023300037719	457	satiated	stimuli/foods\mortadella.jpg	1	4	1	mortadella	1	G	4	0	83	0		0	0	185.930987700005	186.031011000043
29727	0.0999702999833971	458	satiated	stimuli/foods\pea_pod.jpg	1	4	1	pea_pod	1	Z	18	0	237	0		0	0	186.081034600036	186.18100490002
29764.25	0.0999878000002354	459	satiated	stimuli/foods\nectarine.jpg	1	4	1	nectarine	1	L	8	0	87	0		0	0	186.231007399969	186.330995199969
29801.75	0.0999840000877157	460	satiated	stimuli/foods\peas.jpg	1	4	1	peas	1	B	0	0	240	0		0	0	186.381006399984	186.480990400072
29839.25	0.0999905000207946	461	satiated	stimuli/non_foods\non-food_inanimate_soccer_ball.jpg	1	4	1	non-food_inanimate_soccer_ball	0	H	5	0	210	0		0	0	186.531001699972	186.630992199993
29876.75	0.099978500045836	462	satiated	stimuli/foods\steak.jpg	1	4	1	steak	1	Z	18	0	270	0		0	0	186.681005500024	186.78098400007
29914.5	0.0999721999978647	463	satiated	stimuli/non_foods\non-food_animate_seahorse.jpg	1	4	1	non-food_animate_seahorse	0	E	20	1	145	0		0	0	186.831020500045	186.930992700043
29951.75	0.0999860999872908	464	satiated	stimuli/non_foods\non-food_animate_sea_turtle.jpg	1	4	1	non-food_animate_sea_turtle	0	M	9	0	144	0		0	0	186.981000000029	187.080986100016
29989.25	0.099980799946934	465	satiated	stimuli/foods\salmon.jpg	1	4	1	salmon	1	V	15	0	264	0		0	0	187.131000100053	187.2309809
30026.75	0.0999918000306934	466	satiated	stimuli/foods\pasta_carbonara.jpg	1	4	1	pasta_carbonara	1	B	0	0	236	0		0	0	187.280995000037	187.380986800068
30064.5	0.100019500008784	467	satiated	stimuli/foods\savory_pie.jpg	1	4	1	savory_pie	1	R	12	0	265	0		0	0	187.431003300007	187.531022800016
30101.75	0.0999702999833971	468	satiated	stimuli/non_foods\non-food_inanimate_buds.jpg	1	4	1	non-food_inanimate_buds	0	H	5	0	166	0		0	0	187.581005600048	187.680975900032
30139.25	0.0999895000131801	469	satiated	stimuli/non_foods\non-food_inanimate_tree.jpg	1	4	1	non-food_inanimate_tree	0	W	16	0	223	0		0	0	187.730992499972	187.830981999985
30176.75	0.0999844999751076	470	satiated	stimuli/non_foods\non-food_animate_killer_whale.jpg	1	4	1	non-food_animate_killer_whale	0	R	12	0	123	0		0	0	187.880987400073	187.980971900048
30214.25	0.0999880000017583	471	satiated	stimuli/foods\potato_chips.jpg	1	4	1	potato_chips	1	F	3	0	247	0		0	0	188.030986699974	188.130974699976
30251.75	0.100003700004891	472	satiated	stimuli/foods\mango.jpg	1	4	1	mango	1	C	1	0	80	0		0	0	188.180969299981	188.280972999986
30289.25	0.0999841999728233	473	satiated	stimuli/non_foods\non-food_animate_llama.jpg	1	4	1	non-food_animate_llama	0	F	3	0	127	0		0	0	188.330985400011	188.430969599984
30326.75	0.099987699999474	474	satiated	stimuli/non_foods\non-food_inanimate_suitcase.jpg	1	4	1	non-food_inanimate_suitcase	0	G	4	0	215	0		0	0	188.480984100024	188.580971800024
30364.25	0.099983699969016	475	satiated	stimuli/non_foods\non-food_animate_squirrel.jpg	1	4	1	non-food_animate_squirrel	0	M	9	0	150	0		0	0	188.630983700044	188.730967400013
30401.75	0.0999844999751076	476	satiated	stimuli/non_foods\non-food_inanimate_construction_helment.jpg	1	4	1	non-food_inanimate_construction_helment	0	S	13	0	175	0		0	0	188.780981600052	188.880966100027
30439.25	0.0999863999895751	477	satiated	stimuli/non_foods\non-food_animate_parrot.jpg	1	4	1	non-food_animate_parrot	0	F	3	0	133	0		0	0	188.930980700068	189.030967100058
30476.75	0.0999837999697775	478	satiated	stimuli/non_foods\non-food_inanimate_rack.jpg	1	4	1	non-food_inanimate_rack	0	V	15	0	202	0		0	0	189.08097530005	189.18095910002
30514.25	0.0999944999348372	479	satiated	stimuli/foods\hotdog.jpg	1	4	1	hotdog	1	L	8	0	67	0		0	0	189.230990500073	189.330985000008
30551.75	0.0999860001029447	480	satiated	stimuli/non_foods\non-food_inanimate_sun_flower.jpg	1	4	1	non-food_inanimate_sun_flower	0	T	14	0	216	0		0	0	189.380973999971	189.480960000074
30589.25	0.0999854999827221	481	satiated	stimuli/foods\radish.jpg	1	4	1	radish	1	L	8	0	251	0		0	0	189.530973599991	189.630959099974
30626.75	0.099966200068593	482	satiated	stimuli/foods\chocolate_pudding.jpg	1	4	1	chocolate_pudding	1	W	16	0	29	0		0	0	189.680983999977	189.780950200045
30664.25	0.099985699984245	483	satiated	stimuli/non_foods\non-food_inanimate_cupboard.jpg	1	4	1	non-food_inanimate_cupboard	0	J	6	0	177	0		0	0	189.830961000058	189.930946700042
30701.75	0.0999873001128435	484	satiated	stimuli/foods\mandarin.jpg	1	4	1	mandarin	1	B	0	0	79	0		0	0	189.980960599962	190.080947900075
30739.25	0.0999752000207081	485	satiated	stimuli/foods\raisins.jpg	1	4	1	raisins	1	G	4	0	252	0		0	0	190.130968700047	190.230943900067
30776.75	0.0999852999811992	486	satiated	stimuli/non_foods\non-food_inanimate_leaf.jpg	1	4	1	non-food_inanimate_leaf	0	S	13	0	192	0		0	0	190.28095689998	190.380942199961
30814.25	0.0999842999735847	487	satiated	stimuli/foods\capsicum.jpg	1	4	1	capsicum	1	H	5	0	18	0		0	0	190.430957900011	190.530942199985
30851.75	0.0999677999643609	488	satiated	stimuli/non_foods\non-food_inanimate_protractor.jpg	1	4	1	non-food_inanimate_protractor	0	S	13	0	201	0		0	0	190.580955000012	190.680922799977
30889.25	0.0999820999568328	489	satiated	stimuli/foods\green_beans.jpg	1	4	1	green_beans	1	M	9	0	61	0		0	0	190.730954200029	190.830936299986
30926.75	0.0999895000131801	490	satiated	stimuli/foods\grapefruits.jpg	1	4	1	grapefruits	1	L	8	0	59	0		0	0	190.880954000051	190.980943500064
30964.25	0.0999561999924481	491	satiated	stimuli/non_foods\non-food_inanimate_table.jpg	1	4	1	non-food_inanimate_table	0	B	0	0	217	0		0	0	191.03097880003	191.130935000023
31001.75	0.0999723999993876	492	satiated	stimuli/foods\rice_cake.jpg	1	4	1	rice_cake	1	N	10	0	258	0		0	0	191.180955299991	191.280927699991
31039.25	0.100040699937381	493	satiated	stimuli/foods\lollies.jpg	1	4	1	lollies	1	P	11	0	78	0		0	0	191.330930400058	191.430971099995
31076.75	0.0999862999888137	494	satiated	stimuli/foods\spring_onions.jpg	1	4	1	spring_onions	1	J	6	0	269	0		0	0	191.48095160001	191.580937899998
31114.25	0.0999825999606401	495	satiated	stimuli/foods\pancakes.jpg	1	4	1	pancakes	1	V	15	0	234	0		0	0	191.630951700034	191.730934299994
31151.75	0.099982300074771	496	satiated	stimuli/foods\kiwi.jpg	1	4	1	kiwi	1	W	16	0	69	0		0	0	191.780944099999	191.880926400074
31189.25	0.0999852999811992	497	satiated	stimuli/non_foods\non-food_inanimate_hammer.jpg	1	4	1	non-food_inanimate_hammer	0	B	0	0	186	0		0	0	191.930938899983	192.030924199964
31226.75	0.1000192000065	498	satiated	stimuli/foods\onion.jpg	1	4	1	onion	1	H	5	0	229	0		0	0	192.080928400042	192.180947600049
31264.25	0.0999888000078499	499	satiated	stimuli/non_foods\non-food_inanimate_nest.jpg	1	4	1	non-food_inanimate_nest	0	R	12	0	196	0		0	0	192.230931899976	192.330920699984
31301.75	0.0999937000451609	500	satiated	stimuli/foods\brie.jpg	1	4	1	brie	1	D	2	0	12	0		0	0	192.380936100031	192.480929800076
31339.25	0.0999779999256134	501	satiated	stimuli/foods\lemon_meringue_pie.jpg	1	4	1	lemon_meringue_pie	1	W	16	0	73	0		0	0	192.530922000064	192.630899999989
31376.75	0.100002099992707	502	satiated	stimuli/foods\honey.jpg	1	4	1	honey	1	L	8	0	66	0		0	0	192.68092980003	192.780931900023
31414.25	0.0999597000190988	503	satiated	stimuli/non_foods\non-food_inanimate_ring.jpg	1	4	1	non-food_inanimate_ring	0	P	11	0	203	0		0	0	192.830967299989	192.930927000009
31451.75	0.0999705999856815	504	satiated	stimuli/foods\baked_cod_with_carrots_and_green_beans.jpg	1	4	1	baked_cod_with_carrots_and_green_beans	1	V	15	0	7	0		0	0	192.980949299992	193.080919899978
31489.25	0.100014799972996	505	satiated	stimuli/non_foods\non-food_animate_swan.jpg	1	4	1	non-food_animate_swan	0	D	2	0	152	0		0	0	193.130905700033	193.230920500006
31526.75	0.0999841999728233	506	satiated	stimuli/foods\carrot.jpg	1	4	1	carrot	1	Z	18	0	19	0		0	0	193.280934400042	193.380918600014
31564.25	0.099978799931705	507	satiated	stimuli/non_foods\non-food_animate_iguana.jpg	1	4	1	non-food_animate_iguana	0	N	10	0	121	0		0	0	193.430929900031	193.530908699962
31601.75	0.0999848999781534	508	satiated	stimuli/non_foods\non-food_animate_monkey.jpg	1	4	1	non-food_animate_monkey	0	G	4	0	130	0		0	0	193.58092420001	193.680909099989
31639.25	0.0999565999954939	509	satiated	stimuli/non_foods\non-food_inanimate_button.jpg	1	4	1	non-food_inanimate_button	0	Z	18	0	168	0		0	0	193.730930699967	193.830887299962
31676.75	0.0999702999833971	510	satiated	stimuli/foods\smoked_ham.jpg	1	4	1	smoked_ham	1	J	6	0	266	0		0	0	193.880933100008	193.980903399992
31714.25	0.10000050009694	511	satiated	stimuli/foods\raw_ham.jpg	1	4	1	raw_ham	1	C	1	0	253	0		0	0	194.030910499976	194.130911000073
31751.75	0.0999861001037061	512	satiated	stimuli/foods\eggplant.jpg	1	4	1	eggplant	1	Z	18	0	46	0		0	0	194.180922299973	194.280908400076
31789.25	0.0999870999949053	513	satiated	stimuli/foods\coffee_beans.jpg	1	4	1	coffee_beans	1	S	13	0	34	0		0	0	194.330921199988	194.430908299983
31826.75	0.0999981000786647	514	satiated	stimuli/non_foods\non-food_animate_cheetah.jpg	1	4	1	non-food_animate_cheetah	0	B	0	0	100	0		0	0	194.480918799993	194.580916900071
31864.25	0.0999784999294207	515	satiated	stimuli/non_foods\non-food_inanimate_grass.jpg	1	4	1	non-food_inanimate_grass	0	F	3	0	184	0		0	0	194.630925200065	194.730903699994
31901.75	0.0999845999758691	516	satiated	stimuli/non_foods\non-food_inanimate_scissors.jpg	1	4	1	non-food_inanimate_scissors	0	X	17	0	205	0		0	0	194.780917700031	194.880902300007
31939.25	0.0999879000009969	517	satiated	stimuli/foods\roasted_chicken.jpg	1	4	1	roasted_chicken	1	F	3	0	261	0		0	0	194.930912700016	195.030900600017
31976.75	0.0999857999850065	518	satiated	stimuli/foods\cauliflower.jpg	1	4	1	cauliflower	1	V	15	0	20	0		0	0	195.080912100035	195.18089790002
32014.25	0.0999843999743462	519	satiated	stimuli/non_foods\non-food_inanimate_bowling_ball.jpg	1	4	1	non-food_inanimate_bowling_ball	0	L	8	0	162	0		0	0	195.230911600054	195.330896000029
32051.75	0.100003800005652	520	satiated	stimuli/non_foods\non-food_inanimate_clover.jpg	1	4	1	non-food_inanimate_clover	0	W	16	0	174	1	a	0	0	195.380891100038	195.480894900043
32089.25	0.100022200029343	521	satiated	stimuli/non_foods\non-food_animate_student_female.jpg	1	4	1	non-food_animate_student_female	0	V	15	0	151	0		0	0	195.530873700045	195.630895900074
32126.75	0.100002399994992	522	satiated	stimuli/foods\chocolate_bar.jpg	1	4	1	chocolate_bar	1	J	6	0	26	0		0	0	195.680907799979	195.780910199974
32164.25	0.0999839000869542	523	satiated	stimuli/foods\watermelon.jpg	1	4	1	watermelon	1	N	10	0	279	0		0	0	195.830904599978	195.930888500065
32201.75	0.0999872999964282	524	satiated	stimuli/foods\gnocchi.jpg	1	4	1	gnocchi	1	Z	18	0	58	0		0	0	195.980902999989	196.080890299985
32239.25	0.0999821000732481	525	satiated	stimuli/foods\frankfurter_and_provolone_salad.jpg	1	4	1	frankfurter_and_provolone_salad	1	M	9	0	49	0		0	0	196.130901800003	196.230883900076
32276.75	0.099994600052014	526	satiated	stimuli/non_foods\non-food_animate_german_shepherd.jpg	1	4	1	non-food_animate_german_shepherd	0	N	10	0	114	0		0	0	196.280899500009	196.380894100061
32314.5	0.0999380999710411	527	satiated	stimuli/foods\baked_lamb_with_potatoes.jpg	1	4	1	baked_lamb_with_potatoes	1	W	16	0	8	0		0	0	196.430946900044	196.530885000015
32351.75	0.099985699984245	528	satiated	stimuli/non_foods\non-food_inanimate_cap.jpg	1	4	1	non-food_inanimate_cap	0	X	17	0	171	0		0	0	196.580896400032	196.680882100016
32389.25	0.0999706999864429	529	satiated	stimuli/non_foods\non-food_animate_seal.jpg	1	4	1	non-food_animate_seal	0	R	12	0	146	0		0	0	196.730893200031	196.830863900017
32426.75	0.100011600065045	530	satiated	stimuli/foods\prawn.jpg	1	4	1	prawn	1	M	9	0	249	0		0	0	196.8808708	196.980882400065
32464.25	0.0999896998982877	531	satiated	stimuli/foods\apricot.jpg	1	4	1	apricot	1	G	4	0	2	0		0	0	197.030891400063	197.130881099962
32501.75	0.0999777000397444	532	satiated	stimuli/foods\almonds.jpg	1	4	1	almonds	1	M	9	0	0	0		0	0	197.180892199976	197.280869900016
32539.25	0.0999835999682546	533	satiated	stimuli/foods\brussel_sprouts.jpg	1	4	1	brussel_sprouts	1	X	17	0	15	0		0	0	197.330883100047	197.430866700015
32576.75	0.0999972999561578	534	satiated	stimuli/foods\pomegranate.jpg	1	4	1	pomegranate	1	A	19	1	244	0		0	0	197.480876700021	197.580873999977
32614.25	0.0999851999804378	535	satiated	stimuli/non_foods\non-food_animate_Causasian_man.jpg	1	4	1	non-food_animate_Causasian_man	0	M	9	0	89	0		0	0	197.630877300049	197.73086250003
32651.75	0.0999849999789149	536	satiated	stimuli/non_foods\non-food_animate_frog.jpg	1	4	1	non-food_animate_frog	0	Z	18	0	113	0		0	0	197.780876700068	197.880861700047
32689.25	0.099987699999474	537	satiated	stimuli/non_foods\non-food_animate_deer.jpg	1	4	1	non-food_animate_deer	0	W	16	0	105	1	a	0.541840499965474	1	197.930870900047	198.030858600046
32726.75	0.0999973999569193	538	satiated	stimuli/foods\risotto_with_zucchini.jpg	1	4	1	risotto_with_zucchini	1	R	12	0	260	0		0	0	198.080879500019	198.180876899976
32764.25	0.0999521999619901	539	satiated	stimuli/non_foods\non-food_animate_cat.jpg	1	4	1	non-food_animate_cat	0	B	0	0	98	0		0	0	198.230896100053	198.330848300015
32801.75	0.100010800058953	540	satiated	stimuli/non_foods\non-food_inanimate_couch.jpg	1	4	1	non-food_inanimate_couch	0	F	3	0	176	0		0	0	198.380853899987	198.480864700046
32839.25	0.0999835999682546	541	satiated	stimuli/non_foods\non-food_inanimate_tulip.jpg	1	4	1	non-food_inanimate_tulip	0	H	5	0	224	0		0	0	198.53087430005	198.630857900018
32876.75	0.0999881000025198	542	satiated	stimuli/non_foods\non-food_animate_yellow_bug.jpg	1	4	1	non-food_animate_yellow_bug	0	M	9	0	155	0		0	0	198.680872000055	198.780860100058
32914.25	0.0999864999903366	543	satiated	stimuli/foods\peach.jpg	1	4	1	peach	1	C	1	0	238	0		0	0	198.830873799976	198.930860299966
32951.75	0.0999861999880522	544	satiated	stimuli/non_foods\non-food_animate_gorilla.jpg	1	4	1	non-food_animate_gorilla	0	N	10	0	116	0		0	0	198.980868700077	199.080854900065
32989.25	0.0999850000953302	545	satiated	stimuli/foods\red_beans.jpg	1	4	1	red_beans	1	F	3	0	255	0		0	0	199.130867899978	199.230852900073
33026.75	0.0999774999218062	546	satiated	stimuli/foods\cracker.jpg	1	4	1	cracker	1	N	10	0	38	0		0	0	199.280874800053	199.380852299975
33064.25	0.0999864999903366	547	satiated	stimuli/foods\cooked_ham.jpg	1	4	1	cooked_ham	1	F	3	0	35	0		0	0	199.430865500006	199.530851999996
33101.75	0.0999852999811992	548	satiated	stimuli/non_foods\non-food_inanimate_bush.jpg	1	4	1	non-food_inanimate_bush	0	S	13	0	167	0		0	0	199.580866700038	199.68085200002
33139.25	0.0999834999674931	549	satiated	stimuli/foods\wafer.jpg	1	4	1	wafer	1	M	9	0	277	0		0	0	199.730862400029	199.830845899996
33176.75	0.0999963999493048	550	satiated	stimuli/foods\ice_cream.jpg	1	4	1	ice_cream	1	K	7	0	68	0		0	0	199.880890700035	199.980887099984
33214.25	0.0999962999485433	551	satiated	stimuli/non_foods\non-food_inanimate_alarm_clock.jpg	1	4	1	non-food_inanimate_alarm_clock	0	T	14	0	158	0		0	0	200.030842800043	200.130839099991
33251.75	0.100016899988987	552	satiated	stimuli/non_foods\non-food_animate_chicken.jpg	1	4	1	non-food_animate_chicken	0	V	15	0	101	0		0	0	200.180849800003	200.280866699992
33289.25	0.0999758000252768	553	satiated	stimuli/non_foods\non-food_animate_horse.jpg	1	4	1	non-food_animate_horse	0	F	3	0	119	0		0	0	200.330851200037	200.430827000062
33326.75	0.100007300032303	554	satiated	stimuli/non_foods\non-food_inanimate_hay.jpg	1	4	1	non-food_inanimate_hay	0	J	6	0	187	0		0	0	200.480828500004	200.580835800036
33364.25	0.0999856000998989	555	satiated	stimuli/non_foods\non-food_animate_owl.jpg	1	4	1	non-food_animate_owl	0	T	14	0	132	0		0	0	200.630852099974	200.730837700074
33401.75	0.0999845000915229	556	satiated	stimuli/foods\chocolate_pralines.jpg	1	4	1	chocolate_pralines	1	L	8	0	28	0		0	0	200.780850399984	200.880834900076
33439.25	0.100005900021642	557	satiated	stimuli/foods\red_cabbage.jpg	1	4	1	red_cabbage	1	W	16	0	256	0		0	0	200.930821700022	201.030827600043
33476.75	0.099983699969016	558	satiated	stimuli/non_foods\non-food_animate_woman.jpg	1	4	1	non-food_animate_woman	0	L	8	0	154	0		0	0	201.080852000043	201.180835700012
33514.25	0.0999846999766305	559	satiated	stimuli/non_foods\non-food_animate_pigeon.jpg	1	4	1	non-food_animate_pigeon	0	M	9	0	136	0		0	0	201.230845400016	201.330830099992
33956	0.0999728000024334	560	satiated	stimuli/foods\rockmelon.jpg	1	5	1	rockmelon	1	N	10	0	262	0		0	0	202.997499700054	203.097472500056
33993.5	0.0999652000609785	561	satiated	stimuli/non_foods\non-food_inanimate_bowling_ball.jpg	1	5	1	non-food_inanimate_bowling_ball	0	V	15	0	162	0		0	0	203.147504099994	203.247469300055
34031	0.100006100023165	562	satiated	stimuli/non_foods\non-food_inanimate_broom.jpg	1	5	1	non-food_inanimate_broom	0	D	2	0	164	0		0	0	203.297471500002	203.397477600025
34068.5	0.0999832000816241	563	satiated	stimuli/non_foods\non-food_inanimate_tree.jpg	1	5	1	non-food_inanimate_tree	0	R	12	0	223	0		0	0	203.447479199967	203.547462400049
34106	0.099983699969016	564	satiated	stimuli/foods\avocado.jpg	1	5	1	avocado	1	L	8	0	5	0		0	0	203.597480600001	203.69746429997
34143.5	0.0999957000603899	565	satiated	stimuli/foods\baked_cod_with_carrots_and_green_beans.jpg	1	5	1	baked_cod_with_carrots_and_green_beans	1	N	10	0	7	0		0	0	203.747479400015	203.847475100076
34181	0.100013000075705	566	satiated	stimuli/foods\waffle.jpg	1	5	1	waffle	1	J	6	0	278	0		0	0	203.897454699967	203.997467700043
34218.5	0.0999859999865294	567	satiated	stimuli/non_foods\non-food_animate_grasshopper.jpg	1	5	1	non-food_animate_grasshopper	0	S	13	0	117	0		0	0	204.04748389998	204.147469899966
34256	0.0999712999910116	568	satiated	stimuli/foods\kiwi.jpg	1	5	1	kiwi	1	C	1	0	69	0		0	0	204.197492800071	204.297464100062
34293.5	0.0999953000573441	569	satiated	stimuli/non_foods\non-food_animate_swan.jpg	1	5	1	non-food_animate_swan	0	X	17	0	152	0		0	0	204.347479899996	204.447475200053
34331	0.0999826999614015	570	satiated	stimuli/non_foods\non-food_animate_iguana.jpg	1	5	1	non-food_animate_iguana	0	G	4	0	121	0		0	0	204.497481200029	204.597463899991
34368.5	0.0999788000481203	571	satiated	stimuli/non_foods\non-food_inanimate_horn.jpg	1	5	1	non-food_inanimate_horn	0	M	9	0	190	0		0	0	204.647474199999	204.747453000047
34406	0.0999575000023469	572	satiated	stimuli/foods\peas.jpg	1	5	1	peas	1	A	19	1	240	0		0	0	204.797486900003	204.897444400005
34443.5	0.0999858999857679	573	satiated	stimuli/foods\raw_sausage.jpg	1	5	1	raw_sausage	1	H	5	0	254	0		0	0	204.947474100045	205.047460000031
34481	0.0999757999088615	574	satiated	stimuli/non_foods\non-food_inanimate_chair.jpg	1	5	1	non-food_inanimate_chair	0	G	4	0	172	0		0	0	205.097472500056	205.197448299965
34518.5	0.100005000014789	575	satiated	stimuli/non_foods\non-food_inanimate_soccer_ball.jpg	1	5	1	non-food_inanimate_soccer_ball	0	V	15	0	210	0		0	0	205.247453600052	205.347458600067
34556	0.0999838000861928	576	satiated	stimuli/foods\frankfurter_and_provolone_salad.jpg	1	5	1	frankfurter_and_provolone_salad	1	T	14	0	49	0		0	0	205.39747039997	205.497454200056
34593.5	0.100010999944061	577	satiated	stimuli/foods\lasagna.jpg	1	5	1	lasagna	1	C	1	0	71	0		0	0	205.547443800024	205.647454799968
34631	0.0999839999713004	578	satiated	stimuli/foods\fruit_flan.jpg	1	5	1	fruit_flan	1	V	15	0	53	0		0	0	205.697457200033	205.797441200004
34668.5	0.0999791999347508	579	satiated	stimuli/non_foods\non-food_animate_runner.jpg	1	5	1	non-food_animate_runner	0	T	14	0	142	0		0	0	205.847455400042	205.947434599977
34706	0.0999795999377966	580	satiated	stimuli/foods\lamb_chops.jpg	1	5	1	lamb_chops	1	D	2	0	70	0		0	0	205.997454000055	206.097433599993
34743.5	0.0999790000496432	581	satiated	stimuli/non_foods\non-food_inanimate_nailpolish.jpg	1	5	1	non-food_inanimate_nailpolish	0	W	16	0	195	0		0	0	206.147440699977	206.247419700027
34781	0.0999882000032812	582	satiated	stimuli/non_foods\non-food_inanimate_tent.jpg	1	5	1	non-food_inanimate_tent	0	C	1	0	219	0		0	0	206.297451099963	206.397439299966
34818.5	0.0999842000892386	583	satiated	stimuli/non_foods\non-food_animate_seal.jpg	1	5	1	non-food_animate_seal	0	T	14	0	146	0		0	0	206.447450199979	206.547434400069
34856	0.0999706001020968	584	satiated	stimuli/foods\dates.jpg	1	5	1	dates	1	W	16	0	43	0		0	0	206.597461299971	206.697431900073
34893.5	0.0999581000069156	585	satiated	stimuli/non_foods\non-food_animate_rhino.jpg	1	5	1	non-food_animate_rhino	0	T	14	0	141	0		0	0	206.747457799967	206.847415899974
34931	0.099980799946934	586	satiated	stimuli/non_foods\non-food_inanimate_watering_can.jpg	1	5	1	non-food_inanimate_watering_can	0	S	13	0	225	0		0	0	206.89744640002	206.997427199967
34968.5	0.0999952000565827	587	satiated	stimuli/foods\honey.jpg	1	5	1	honey	1	H	5	0	66	0		0	0	207.047443100018	207.147438300075
35006	0.0999827000778168	588	satiated	stimuli/non_foods\non-food_inanimate_gloves.jpg	1	5	1	non-food_inanimate_gloves	0	L	8	0	183	0		0	0	207.19745159999	207.297434300068
35043.5	0.099985699984245	589	satiated	stimuli/non_foods\non-food_animate_student_female.jpg	1	5	1	non-food_animate_student_female	0	C	1	0	151	0		0	0	207.347441400052	207.447427100036
35081	0.0999940999317914	590	satiated	stimuli/non_foods\non-food_animate_sea_turtle.jpg	1	5	1	non-food_animate_sea_turtle	0	R	12	0	144	0		0	0	207.497439800063	207.597433899995
35118.5	0.0999733000062406	591	satiated	stimuli/foods\cherry.jpg	1	5	1	cherry	1	D	2	0	23	0		0	0	207.647445900016	207.747419200023
35156	0.0999809000641108	592	satiated	stimuli/non_foods\non-food_inanimate_tulip.jpg	1	5	1	non-food_inanimate_tulip	0	B	0	0	224	0		0	0	207.797436599969	207.897417500033
35193.5	0.099979699938558	593	satiated	stimuli/non_foods\non-food_animate_squirrel.jpg	1	5	1	non-food_animate_squirrel	0	R	12	0	150	0		0	0	207.94742630003	208.047405999969
35231	0.0999834999674931	594	satiated	stimuli/foods\lime.jpg	1	5	1	lime	1	G	4	0	76	0		0	0	208.09743980004	208.197423300007
35268.5	0.100004300009459	595	satiated	stimuli/non_foods\non-food_inanimate_construction_helment.jpg	1	5	1	non-food_inanimate_construction_helment	0	X	17	0	175	0		0	0	208.247422100045	208.347426400054
35306	0.0999598999042064	596	satiated	stimuli/foods\lemon_meringue_pie.jpg	1	5	1	lemon_meringue_pie	1	S	13	0	73	0		0	0	208.397451300058	208.497411199962
35343.5	0.099987699999474	597	satiated	stimuli/non_foods\non-food_animate_baby_crawling.jpg	1	5	1	non-food_animate_baby_crawling	0	M	9	0	92	0		0	0	208.547425099998	208.647412799997
35381	0.0999850999796763	598	satiated	stimuli/foods\mushroom.jpg	1	5	1	mushroom	1	D	2	0	85	0		0	0	208.697435199982	208.797420299961
35418.5	0.100000300095417	599	satiated	stimuli/foods\chestnut.jpg	1	5	1	chestnut	1	T	14	0	24	0		0	0	208.84740139998	208.947401700076
35456	0.100016099982895	600	satiated	stimuli/non_foods\non-food_inanimate_suitcase.jpg	1	5	1	non-food_inanimate_suitcase	0	S	13	0	215	0		0	0	208.997400699998	209.097416799981
35493.5	0.0999870999949053	601	satiated	stimuli/foods\lollies.jpg	1	5	1	lollies	1	T	14	0	78	0		0	0	209.147424099967	209.247411199962
35531	0.099976799916476	602	satiated	stimuli/foods\capsicum.jpg	1	5	1	capsicum	1	P	11	0	18	0		0	0	209.297432700056	209.397409499972
35568.5	0.0999853999819607	603	satiated	stimuli/foods\risotto_with_peas_and_asparagus_tips.jpg	1	5	1	risotto_with_peas_and_asparagus_tips	1	W	16	0	259	0		0	0	209.447425900027	209.547411300009
35606	0.0999859999865294	604	satiated	stimuli/non_foods\non-food_inanimate_leaf.jpg	1	5	1	non-food_inanimate_leaf	0	N	10	0	192	0		0	0	209.597421700018	209.697407700005
35643.5	0.0999887000070885	605	satiated	stimuli/foods\watermelon.jpg	1	5	1	watermelon	1	D	2	0	279	0		0	0	209.74742020003	209.847408900037
35681	0.0999825999606401	606	satiated	stimuli/foods\toasted_bread_with_tomatoes.jpg	1	5	1	toasted_bread_with_tomatoes	1	F	3	0	275	0		0	0	209.89742110006	209.997403700021
35718.5	0.100018400000408	607	satiated	stimuli/foods\asparagus.jpg	1	5	1	asparagus	1	T	14	0	4	0		0	0	210.04740010004	210.147418500041
35756	0.0999662999529392	608	satiated	stimuli/non_foods\non-food_inanimate_nest.jpg	1	5	1	non-food_inanimate_nest	0	K	7	0	196	0		0	0	210.197424700018	210.297390999971
35793.5	0.0999834999674931	609	satiated	stimuli/foods\gnocchi.jpg	1	5	1	gnocchi	1	N	10	0	58	0		0	0	210.347406700021	210.447390199988
35831	0.0999850999796763	610	satiated	stimuli/foods\spaghetti_with_meat_sauce.jpg	1	5	1	spaghetti_with_meat_sauce	1	Z	18	0	267	0		0	0	210.497407900053	210.597393000033
35868.5	0.100000100093894	611	satiated	stimuli/foods\red_beans.jpg	1	5	1	red_beans	1	X	17	0	255	0		0	0	210.647395599983	210.747395700077
35906	0.0999859999865294	612	satiated	stimuli/non_foods\non-food_inanimate_lighter.jpg	1	5	1	non-food_inanimate_lighter	0	S	13	0	193	0		0	0	210.797409499995	210.897395499982
35943.5	0.100004700012505	613	satiated	stimuli/non_foods\non-food_inanimate_toilet.jpg	1	5	1	non-food_inanimate_toilet	0	D	2	0	220	0		0	0	210.947390599991	211.047395300004
35981	0.0999758000252768	614	satiated	stimuli/non_foods\non-food_animate_peacock.jpg	1	5	1	non-food_animate_peacock	0	J	6	0	134	0		0	0	211.097387599992	211.197363400017
36018.5	0.100003800005652	615	satiated	stimuli/foods\pasta_carbonara.jpg	1	5	1	pasta_carbonara	1	T	14	0	236	0		0	0	211.247400399996	211.347404200002
36056	0.0999789000488818	616	satiated	stimuli/non_foods\non-food_animate_butterfly.jpg	1	5	1	non-food_animate_butterfly	0	J	6	0	96	0		0	0	211.397398900008	211.497377800057
36093.5	0.0999854999827221	617	satiated	stimuli/foods\tomato.jpg	1	5	1	tomato	1	P	11	0	276	0		0	0	211.547392999986	211.647378499969
36131	0.0999935000436381	618	satiated	stimuli/non_foods\non-food_inanimate_canoe.jpg	1	5	1	non-food_inanimate_canoe	0	K	7	0	170	0		0	0	211.697394100018	211.797387600061
36168.5	0.0999845999758691	619	satiated	stimuli/foods\blackberry.jpg	1	5	1	blackberry	1	C	1	0	11	0		0	0	211.847395800054	211.94738040003
36206	0.0999449999071658	620	satiated	stimuli/non_foods\non-food_animate_ladybug.jpg	1	5	1	non-food_animate_ladybug	0	P	11	0	124	0		0	0	211.997439600062	212.097384599969
36243.5	0.0999857999850065	621	satiated	stimuli/non_foods\non-food_inanimate_skirt.jpg	1	5	1	non-food_inanimate_skirt	0	R	12	0	209	0		0	0	212.147395899985	212.24738169997
36281	0.0999862001044676	622	satiated	stimuli/foods\pumpkin.jpg	1	5	1	pumpkin	1	K	7	0	250	0		0	0	212.297390399966	212.397376600071
36318.5	0.099985699984245	623	satiated	stimuli/foods\garlic.jpg	1	5	1	garlic	1	R	12	0	56	0		0	0	212.447393500013	212.547379199998
36356	0.0999833999667317	624	satiated	stimuli/non_foods\non-food_inanimate_bamboo.jpg	1	5	1	non-food_inanimate_bamboo	0	H	5	0	159	0		0	0	212.597389900009	212.697373299976
36393.5	0.0999913000268862	625	satiated	stimuli/foods\brownie.jpg	1	5	1	brownie	1	G	4	0	14	0		0	0	212.747387600015	212.847378900042
36431	0.099984799977392	626	satiated	stimuli/foods\pepperoni_pizza.jpg	1	5	1	pepperoni_pizza	1	R	12	0	241	0		0	0	212.897389900056	212.997374700033
36468.5	0.099960400024429	627	satiated	stimuli/foods\green_beans.jpg	1	5	1	green_beans	1	K	7	0	61	0		0	0	213.047409599996	213.147370000021
36506	0.0999784999294207	628	satiated	stimuli/foods\grapes.jpg	1	5	1	grapes	1	V	15	0	60	0		0	0	213.197385800071	213.2973643
36543.5	0.0999810000648722	629	satiated	stimuli/foods\apricot.jpg	1	5	1	apricot	1	C	1	0	2	0		0	0	213.347386799986	213.44736780005
36581	0.100006299908273	630	satiated	stimuli/foods\oven-roasted_tomatoes.jpg	1	5	1	oven-roasted_tomatoes	1	D	2	0	232	0		0	0	213.497363600065	213.597369899973
36618.5	0.0999931000405923	631	satiated	stimuli/foods\raw_ham.jpg	1	5	1	raw_ham	1	W	16	0	253	0		0	0	213.647371000028	213.747364100069
36656	0.0999596000183374	632	satiated	stimuli/non_foods\non-food_animate_young_girl.jpg	1	5	1	non-food_animate_young_girl	0	T	14	0	157	0		0	0	213.797393699992	213.89735330001
36693.5	0.0999891000101343	633	satiated	stimuli/non_foods\non-food_inanimate_padlock.jpg	1	5	1	non-food_inanimate_padlock	0	P	11	0	199	0		0	0	213.947365300031	214.047354400042
36731	0.0999927000375465	634	satiated	stimuli/non_foods\non-food_animate_dolphin.jpg	1	5	1	non-food_animate_dolphin	0	W	16	0	106	0		0	0	214.097359300009	214.197352000047
36768.5	0.0999830000801012	635	satiated	stimuli/non_foods\non-food_animate_killer_whale.jpg	1	5	1	non-food_animate_killer_whale	0	V	15	0	123	0		0	0	214.247368599987	214.347351600067
36806	0.099980500061065	636	satiated	stimuli/foods\mortadella.jpg	1	5	1	mortadella	1	S	13	0	83	0		0	0	214.397367199999	214.49734770006
36843.5	0.0999870999949053	637	satiated	stimuli/non_foods\non-food_inanimate_cactus_pot_plant.jpg	1	5	1	non-food_inanimate_cactus_pot_plant	0	L	8	0	169	0		0	0	214.547361699981	214.647348799976
