onset	duration	eventnumber	hunger_condition	stimfilename	blockno	trialno	is_faststream	stim	food_idx	letter	letter_idx	istarget	image_number	response	keypressed	rt	correct	time_stimon	time_stimoff
11791.25	0.0999646000564098	0	satiated	stimuli/non_foods\non-food_animate_kangaroo.jpg	1	1	1	non-food_animate_kangaroo	0	N	10	0	122	0		0	0	58.4861397999339	58.5861043999903
11828.75	0.100008699577302	1	satiated	stimuli/foods\donut.jpg	1	1	1	donut	1	J	6	0	44	0		0	0	58.6361472001299	58.7361558997072
11866.25	0.0999940996989608	2	satiated	stimuli/non_foods\non-food_animate_frog.jpg	1	1	1	non-food_animate_frog	0	S	13	0	113	0		0	0	58.786120200064	58.886114299763
11903.75	0.0999901997856796	3	satiated	stimuli/foods\watermelon.jpg	1	1	1	watermelon	1	B	0	0	279	0		0	0	58.9361123000272	59.0361024998128
11941.25	0.0999854002147913	4	satiated	stimuli/non_foods\non-food_inanimate_clover.jpg	1	1	1	non-food_inanimate_clover	0	S	13	0	174	0		0	0	59.086111899931	59.1860973001458
11978.75	0.0999817997217178	5	satiated	stimuli/foods\spaghetti_with_meat_sauce.jpg	1	1	1	spaghetti_with_meat_sauce	1	R	12	0	267	0		0	0	59.2361228000373	59.336104599759
12016.25	0.0999830001965165	6	satiated	stimuli/non_foods\non-food_animate_mammoth.jpg	1	1	1	non-food_animate_mammoth	0	F	3	0	128	0		0	0	59.386112799868	59.4860958000645
12053.75	0.0999945998191833	7	satiated	stimuli/non_foods\non-food_animate_camel.jpg	1	1	1	non-food_animate_camel	0	Z	18	0	97	0		0	0	59.5361103001051	59.6361048999242
12091.25	0.0999846002086997	8	satiated	stimuli/non_foods\non-food_inanimate_sun_flower.jpg	1	1	1	non-food_inanimate_sun_flower	0	D	2	0	216	0		0	0	59.6861135996878	59.7860981998965
12128.75	0.0999860996380448	9	satiated	stimuli/foods\mushroom.jpg	1	1	1	mushroom	1	F	3	0	85	0		0	0	59.8361128000543	59.9360988996923
12166.25	0.0999950002878904	10	satiated	stimuli/non_foods\non-food_inanimate_short_sleeved_shirt.jpg	1	1	1	non-food_inanimate_short_sleeved_shirt	0	D	2	0	207	0		0	0	59.9861014997587	60.0860965000466
12203.75	0.0999826998449862	11	satiated	stimuli/foods\croissant.jpg	1	1	1	croissant	1	G	4	0	40	0		0	0	60.136110200081	60.236092899926
12241.25	0.100033299997449	12	satiated	stimuli/foods\capsicum.jpg	1	1	1	capsicum	1	C	1	0	18	0		0	0	60.2861077999696	60.3861410999671
12279	0.0996937998570502	13	satiated	stimuli/non_foods\non-food_animate_cat.jpg	1	1	1	non-food_animate_cat	0	V	15	0	98	0		0	0	60.4364013001323	60.5360950999893
12316.25	0.0999809000641108	14	satiated	stimuli/foods\cream_donuts.jpg	1	1	1	cream_donuts	1	G	4	0	39	0		0	0	60.5861068000086	60.6860877000727
12353.75	0.100001400336623	15	satiated	stimuli/foods\cooked_ham.jpg	1	1	1	cooked_ham	1	P	11	0	35	0		0	0	60.7360998997465	60.8361013000831
12391.25	0.099977099802345	16	satiated	stimuli/non_foods\non-food_inanimate_leaf.jpg	1	1	1	non-food_inanimate_leaf	0	V	15	0	192	0		0	0	60.886101000011	60.9860780998133
12428.75	0.0999926999211311	17	satiated	stimuli/foods\cherry.jpg	1	1	1	cherry	1	M	9	0	23	0		0	0	61.036093799863	61.1360864997841
12466.25	0.0999977998435497	18	satiated	stimuli/non_foods\non-food_animate_bat.jpg	1	1	1	non-food_animate_bat	0	P	11	0	94	0		0	0	61.1860882998444	61.286086099688
12503.75	0.100009799934924	19	satiated	stimuli/non_foods\non-food_animate_horse.jpg	1	1	1	non-food_animate_horse	0	V	15	0	119	0		0	0	61.3360708998516	61.4360806997865
12541.25	0.0999707998707891	20	satiated	stimuli/non_foods\non-food_animate_clown.jpg	1	1	1	non-food_animate_clown	0	X	17	0	102	0		0	0	61.4861094998196	61.5860802996904
12578.75	0.0999663001857698	21	satiated	stimuli/non_foods\non-food_inanimate_desk.jpg	1	1	1	non-food_inanimate_desk	0	P	11	0	178	0		0	0	61.6360924998298	61.7360588000156
12616.25	0.0999732003547251	22	satiated	stimuli/non_foods\non-food_inanimate_nailpolish.jpg	1	1	1	non-food_inanimate_nailpolish	0	J	6	0	195	0		0	0	61.7860912997276	61.8860645000823
12653.75	0.0999948000535369	23	satiated	stimuli/foods\meatballs.jpg	1	1	1	meatballs	1	H	5	0	81	0		0	0	61.9360739998519	62.0360687999055
12691.25	0.10002820007503	24	satiated	stimuli/non_foods\non-food_inanimate_toy_airplane.jpg	1	1	1	non-food_inanimate_toy_airplane	0	V	15	0	222	0		0	0	62.0860866997391	62.1861148998141
12728.75	0.0999703002162278	25	satiated	stimuli/foods\coffee_beans.jpg	1	1	1	coffee_beans	1	M	9	0	34	0		0	0	62.2361206999049	62.3360910001211
12766.25	0.099957499653101	26	satiated	stimuli/non_foods\non-food_animate_eagle.jpg	1	1	1	non-food_animate_eagle	0	H	5	0	110	0		0	0	62.3860856001265	62.4860430997796
12803.75	0.0999813000671566	27	satiated	stimuli/foods\waffle.jpg	1	1	1	waffle	1	L	8	0	278	0		0	0	62.5360833997838	62.636064699851
12841.25	0.0999875999987125	28	satiated	stimuli/foods\red_cabbage.jpg	1	1	1	red_cabbage	1	G	4	0	256	0		0	0	62.6860793000087	62.7860669000074
12878.75	0.0999875999987125	29	satiated	stimuli/foods\cabbage.jpg	1	1	1	cabbage	1	V	15	0	16	0		0	0	62.8360754000023	62.936063000001
12916.25	0.099989399779588	30	satiated	stimuli/foods\almonds.jpg	1	1	1	almonds	1	R	12	0	0	0		0	0	62.986072700005	63.0860620997846
12953.75	0.0999963004142046	31	satiated	stimuli/foods\frankfurter_and_provolone_salad.jpg	1	1	1	frankfurter_and_provolone_salad	1	P	11	0	49	0		0	0	63.1360736996867	63.2360700001009
12991.25	0.0999849000945687	32	satiated	stimuli/foods\grapefruits.jpg	1	1	1	grapefruits	1	F	3	0	59	0		0	0	63.2860725000501	63.3860574001446
13028.75	0.0999946002848446	33	satiated	stimuli/non_foods\non-food_inanimate_scissors.jpg	1	1	1	non-food_inanimate_scissors	0	U	23	1	205	0		0	0	63.4360635997728	63.5360582000576
13066.25	0.0999879003502429	34	satiated	stimuli/non_foods\non-food_animate_seahorse.jpg	1	1	1	non-food_animate_seahorse	0	C	1	0	145	0		0	0	63.5860655996948	63.6860535000451
13103.75	0.100005200132728	35	satiated	stimuli/non_foods\non-food_animate_llama.jpg	1	1	1	non-food_animate_llama	0	F	3	0	127	0		0	0	63.7360656997189	63.8360708998516
13141.25	0.100015199743211	36	satiated	stimuli/non_foods\non-food_animate_skunk.jpg	1	1	1	non-food_animate_skunk	0	D	2	0	147	0		0	0	63.8860520999879	63.9860672997311
13178.75	0.0999706997536123	37	satiated	stimuli/foods\risotto_with_zucchini.jpg	1	1	1	risotto_with_zucchini	1	G	4	0	260	1	a	0.69183690007776	1	64.0360751999542	64.1360458997078
13216.25	0.10000059986487	38	satiated	stimuli/foods\apricot.jpg	1	1	1	apricot	1	X	17	0	2	0		0	0	64.1860499000177	64.2860504998825
13253.75	0.0999827003106475	39	satiated	stimuli/non_foods\non-food_animate_polar_bear.jpg	1	1	1	non-food_animate_polar_bear	0	L	8	0	137	0		0	0	64.3360600997694	64.43604280008
13291.25	0.0999894998967648	40	satiated	stimuli/non_foods\non-food_inanimate_canoe.jpg	1	1	1	non-food_inanimate_canoe	0	P	11	0	170	0		0	0	64.4860561001115	64.5860456000082
13328.75	0.099984799977392	41	satiated	stimuli/foods\hazelnuts.jpg	1	1	1	hazelnuts	1	K	7	0	65	0		0	0	64.636055899784	64.7360406997614
13366.25	0.0999759002588689	42	satiated	stimuli/foods\red_beans.jpg	1	1	1	red_beans	1	C	1	0	255	0		0	0	64.7860599998385	64.8860359000973
13403.75	0.100007799919695	43	satiated	stimuli/non_foods\non-food_inanimate_suitcase.jpg	1	1	1	non-food_inanimate_suitcase	0	F	3	0	215	0		0	0	64.9360489998944	65.0360567998141
13441.25	0.0999841000884771	44	satiated	stimuli/non_foods\non-food_animate_parrot.jpg	1	1	1	non-food_animate_parrot	0	S	13	0	133	0		0	0	65.0860501998104	65.1860342998989
13478.75	0.0999875999987125	45	satiated	stimuli/foods\ice_cream.jpg	1	1	1	ice_cream	1	R	12	0	68	0		0	0	65.2360463999212	65.3360339999199
13516.25	0.0999838002026081	46	satiated	stimuli/non_foods\non-food_animate_runner.jpg	1	1	1	non-food_animate_runner	0	F	3	0	142	0		0	0	65.3860478997231	65.4860316999257
13553.75	0.0999994999729097	47	satiated	stimuli/non_foods\non-food_inanimate_chair.jpg	1	1	1	non-food_inanimate_chair	0	Z	18	0	172	0		0	0	65.536045699846	65.6360451998189
13591.25	0.0999944997020066	48	satiated	stimuli/non_foods\non-food_inanimate_gloves.jpg	1	1	1	non-food_inanimate_gloves	0	K	7	0	183	0		0	0	65.6860436000861	65.7860380997881
13628.75	0.0999688003212214	49	satiated	stimuli/foods\mandarin.jpg	1	1	1	mandarin	1	M	9	0	79	0		0	0	65.8360580997542	65.9360269000754
13666.25	0.0999802001751959	50	satiated	stimuli/foods\peas.jpg	1	1	1	peas	1	K	7	0	240	0		0	0	65.9860434997827	66.0860236999579
13703.75	0.0999843999743462	51	satiated	stimuli/foods\chilli.jpg	1	1	1	chilli	1	R	12	0	25	0		0	0	66.1360395997763	66.2360239997506
13741.25	0.0999858998693526	52	satiated	stimuli/non_foods\non-food_animate_yellow_bug.jpg	1	1	1	non-food_animate_yellow_bug	0	J	6	0	155	0		0	0	66.2860356001183	66.3860214999877
13778.75	0.0999873001128435	53	satiated	stimuli/non_foods\non-food_animate_slug.jpg	1	1	1	non-food_animate_slug	0	T	14	0	148	0		0	0	66.43603360001	66.5360209001228
13816.25	0.0999775999225676	54	satiated	stimuli/foods\egg.jpg	1	1	1	egg	1	N	10	0	45	0		0	0	66.586031800136	66.6860094000585
13853.75	0.0999879003502429	55	satiated	stimuli/foods\onion.jpg	1	1	1	onion	1	G	4	0	229	0		0	0	66.7360279997811	66.8360159001313
13891.25	0.0999533999711275	56	satiated	stimuli/foods\pasta_carbonara.jpg	1	1	1	pasta_carbonara	1	N	10	0	236	0		0	0	66.8860622998327	66.9860156998038
13928.75	0.099991399794817	57	satiated	stimuli/non_foods\non-food_animate_young_boy.jpg	1	1	1	non-food_animate_young_boy	0	B	0	0	156	0		0	0	67.0360195999965	67.1360109997913
13966.25	0.0999851999804378	58	satiated	stimuli/foods\grilled_chicken_breast.jpg	1	1	1	grilled_chicken_breast	1	T	14	0	63	0		0	0	67.1860253997147	67.2860105996951
14003.75	0.0999994003213942	59	satiated	stimuli/foods\omelette.jpg	1	1	1	omelette	1	R	12	0	228	0		0	0	67.3360226997174	67.4360221000388
14041.25	0.0999700003303587	60	satiated	stimuli/non_foods\non-food_animate_giraffe.jpg	1	1	1	non-food_animate_giraffe	0	M	9	0	115	0		0	0	67.4860382997431	67.5860083000734
14078.75	0.0999812996014953	61	satiated	stimuli/non_foods\non-food_inanimate_cactus_pot_plant.jpg	1	1	1	non-food_inanimate_cactus_pot_plant	0	V	15	0	169	0		0	0	67.6360272001475	67.736008499749
14116.25	0.099997800309211	62	satiated	stimuli/foods\potatoes.jpg	1	1	1	potatoes	1	J	6	0	248	0		0	0	67.7859951998107	67.8859930001199
14153.75	0.0999885001219809	63	satiated	stimuli/non_foods\non-food_animate_monkey.jpg	1	1	1	non-food_animate_monkey	0	H	5	0	130	0		0	0	67.9360102997161	68.0359987998381
14191.25	0.0999858002178371	64	satiated	stimuli/non_foods\non-food_inanimate_protractor.jpg	1	1	1	non-food_inanimate_protractor	0	M	9	0	201	0		0	0	68.086017199792	68.1860030000098
14228.75	0.0999809000641108	65	satiated	stimuli/foods\cereal.jpg	1	1	1	cereal	1	F	3	0	22	0		0	0	68.2360152998008	68.3359961998649
14266.25	0.0999874002300203	66	satiated	stimuli/foods\chocolate_bar.jpg	1	1	1	chocolate_bar	1	G	4	0	26	0		0	0	68.3860106999055	68.4859981001355
14303.75	0.0999962999485433	67	satiated	stimuli/foods\chocolate_pralines.jpg	1	1	1	chocolate_pralines	1	B	0	0	28	0		0	0	68.5360098998062	68.6360061997548
14341.25	0.0999827003106475	68	satiated	stimuli/non_foods\non-food_inanimate_fire_extinguisher.jpg	1	1	1	non-food_inanimate_fire_extinguisher	0	G	4	0	181	0		0	0	68.6860082997009	68.7859910000116
14378.75	0.0999779999256134	69	satiated	stimuli/foods\mussels.jpg	1	1	1	mussels	1	J	6	0	86	0		0	0	68.8360069999471	68.9359849998727
14416.25	0.100002599880099	70	satiated	stimuli/non_foods\non-food_animate_german_shepherd.jpg	1	1	1	non-food_animate_german_shepherd	0	H	5	0	114	0		0	0	68.98598340014	69.0859860000201
14453.75	0.0999952997080982	71	satiated	stimuli/non_foods\non-food_animate_student_female.jpg	1	1	1	non-food_animate_student_female	0	B	0	0	151	0		0	0	69.1359926001169	69.235987899825
14491.25	0.0999795002862811	72	satiated	stimuli/non_foods\non-food_inanimate_couch.jpg	1	1	1	non-food_inanimate_couch	0	L	8	0	176	0		0	0	69.2860225997865	69.3860021000728
14528.75	0.099989099893719	73	satiated	stimuli/non_foods\non-food_inanimate_table.jpg	1	1	1	non-food_inanimate_table	0	X	17	0	217	0		0	0	69.4359955000691	69.5359845999628
14566.25	0.0999882998876274	74	satiated	stimuli/foods\eggplant.jpg	1	1	1	eggplant	1	K	7	0	46	0		0	0	69.585995499976	69.6859837998636
14603.75	0.0999916000291705	75	satiated	stimuli/non_foods\non-food_inanimate_skateboard.jpg	1	1	1	non-food_inanimate_skateboard	0	B	0	0	208	0		0	0	69.7359885000624	69.8359801000915
14641.25	0.0999882998876274	76	satiated	stimuli/non_foods\non-food_inanimate_watering_can.jpg	1	1	1	non-food_inanimate_watering_can	0	J	6	0	225	0		0	0	69.8859908999875	69.9859791998751
14678.75	0.0999877997674048	77	satiated	stimuli/non_foods\non-food_animate_rhino.jpg	1	1	1	non-food_animate_rhino	0	V	15	0	141	0		0	0	70.0359889999963	70.1359767997637
14716.25	0.0999839003197849	78	satiated	stimuli/non_foods\non-food_animate_dragonfly.jpg	1	1	1	non-food_animate_dragonfly	0	K	7	0	108	0		0	0	70.1859907996841	70.2859747000039
14753.75	0.0999885997734964	79	satiated	stimuli/non_foods\non-food_inanimate_bamboo.jpg	1	1	1	non-food_inanimate_bamboo	0	W	16	0	159	0		0	0	70.335985600017	70.4359741997905
14791.25	0.099987399764359	80	satiated	stimuli/foods\peach.jpg	1	1	1	peach	1	D	2	0	238	0		0	0	70.485986799933	70.5859741996974
14828.75	0.100015500094742	81	satiated	stimuli/non_foods\non-food_animate_raccoon.jpg	1	1	1	non-food_animate_raccoon	0	Z	18	0	139	0		0	0	70.6359588997439	70.7359743998386
14866.25	0.0999835999682546	82	satiated	stimuli/foods\pineapple.jpg	1	1	1	pineapple	1	T	14	0	243	0		0	0	70.7859835000709	70.8859671000391
14903.75	0.100008000154048	83	satiated	stimuli/non_foods\non-food_animate_butterfly.jpg	1	1	1	non-food_animate_butterfly	0	Z	18	0	96	0		0	0	70.9359808997251	71.0359888998792
14941.25	0.0999648999422789	84	satiated	stimuli/non_foods\non-food_animate_dachshund.jpg	1	1	1	non-food_animate_dachshund	0	K	7	0	104	0		0	0	71.0860009999014	71.1859658998437
14978.75	0.0999863999895751	85	satiated	stimuli/non_foods\non-food_inanimate_pine_cone.jpg	1	1	1	non-food_inanimate_pine_cone	0	T	14	0	200	0		0	0	71.2359754997306	71.3359618997201
15016.25	0.099987699650228	86	satiated	stimuli/foods\swordfish.jpg	1	1	1	swordfish	1	V	15	0	273	0		0	0	71.3859743000939	71.4859619997442
15053.75	0.0999842002056539	87	satiated	stimuli/foods\fries.jpg	1	1	1	fries	1	Z	18	0	52	0		0	0	71.5359741998836	71.6359584000893
15091.25	0.0999823999591172	88	satiated	stimuli/foods\broccoli.jpg	1	1	1	broccoli	1	F	3	0	13	0		0	0	71.6859753997996	71.7859577997588
15128.75	0.0999949001707137	89	satiated	stimuli/non_foods\non-food_animate_dolphin.jpg	1	1	1	non-food_animate_dolphin	0	V	15	0	106	0		0	0	71.8359608999453	71.9359558001161
15166.25	0.0999826001934707	90	satiated	stimuli/foods\bagel.jpg	1	1	1	bagel	1	R	12	0	6	0		0	0	71.985968099907	72.0859507001005
15203.75	0.0999799999408424	91	satiated	stimuli/foods\lime.jpg	1	1	1	lime	1	J	6	0	76	0		0	0	72.1359827998094	72.2359627997503
15241.25	0.0999786998145282	92	satiated	stimuli/foods\oregano.jpg	1	1	1	oregano	1	B	0	0	231	0		0	0	72.2859664000571	72.3859450998716
15278.75	0.100007300265133	93	satiated	stimuli/non_foods\non-food_animate_snail.jpg	1	1	1	non-food_animate_snail	0	P	11	0	149	0		0	0	72.4359601996839	72.535967499949
15316.25	0.0999855999834836	94	satiated	stimuli/foods\lollies.jpg	1	1	1	lollies	1	D	2	0	78	0		0	0	72.5859604999423	72.6859460999258
15353.75	0.10001299995929	95	satiated	stimuli/foods\celery.jpg	1	1	1	celery	1	K	7	0	21	0		0	0	72.7359730000608	72.8359860000201
15391.25	0.0999711998738348	96	satiated	stimuli/non_foods\non-food_animate_cheetah.jpg	1	1	1	non-food_animate_cheetah	0	F	3	0	100	0		0	0	72.8859724998474	72.9859436997212
15428.75	0.0999674000777304	97	satiated	stimuli/foods\oyster.jpg	1	1	1	oyster	1	C	1	0	233	0		0	0	73.0359664000571	73.1359338001348
15466.25	0.0999841000884771	98	satiated	stimuli/foods\wafer.jpg	1	1	1	wafer	1	R	12	0	277	0		0	0	73.1859500999562	73.2859342000447
15503.75	0.0999731002375484	99	satiated	stimuli/foods\tomato.jpg	1	1	1	tomato	1	X	17	0	276	0		0	0	73.3359452998266	73.4359184000641
15541.25	0.0999861001037061	100	satiated	stimuli/non_foods\non-food_inanimate_nest.jpg	1	1	1	non-food_inanimate_nest	0	V	15	0	196	0		0	0	73.4859505998902	73.5859366999939
15578.75	0.0999881001189351	101	satiated	stimuli/non_foods\non-food_animate_tortoise.jpg	1	1	1	non-food_animate_tortoise	0	N	10	0	153	0		0	0	73.6359458998777	73.7359339999966
15616.25	0.0999866002239287	102	satiated	stimuli/foods\brie.jpg	1	1	1	brie	1	V	15	0	12	0		0	0	73.7859471999109	73.8859338001348
15653.75	0.0999892000108957	103	satiated	stimuli/foods\museli_bars.jpg	1	1	1	museli_bars	1	K	7	0	84	0		0	0	73.9359431997873	74.0359323997982
15691.25	0.100000700447708	104	satiated	stimuli/foods\fruit_pie.jpg	1	1	1	fruit_pie	1	V	15	0	54	0		0	0	74.085941999685	74.1859427001327
15728.75	0.0999835999682546	105	satiated	stimuli/non_foods\non-food_inanimate_stoplight.jpg	1	1	1	non-food_inanimate_stoplight	0	S	13	0	214	0		0	0	74.2359429998323	74.3359265998006
15766.25	0.0999921998009086	106	satiated	stimuli/non_foods\non-food_animate_cow.jpg	1	1	1	non-food_animate_cow	0	J	6	0	103	0		0	0	74.3859329000115	74.4859250998124
15803.75	0.100016999989748	107	satiated	stimuli/foods\stew_with_potatoes_and_carrots.jpg	1	1	1	stew_with_potatoes_and_carrots	1	O	22	1	271	0		0	0	74.5359383998439	74.6359553998336
15841.25	0.0999674000777304	108	satiated	stimuli/non_foods\non-food_animate_ram.jpg	1	1	1	non-food_animate_ram	0	W	16	0	140	0		0	0	74.6859523998573	74.7859197999351
15878.75	0.0999878998845816	109	satiated	stimuli/non_foods\non-food_animate_killer_whale.jpg	1	1	1	non-food_animate_killer_whale	0	X	17	0	123	0		0	0	74.8359321998432	74.9359200997278
15916.25	0.0999880000017583	110	satiated	stimuli/foods\gnocchi.jpg	1	1	1	gnocchi	1	T	14	0	58	0		0	0	74.9859329997562	75.0859209997579
15953.75	0.0999837997369468	111	satiated	stimuli/non_foods\non-food_inanimate_speakers.jpg	1	1	1	non-food_inanimate_speakers	0	V	15	0	212	0		0	0	75.1359306001104	75.2359143998474
15991.25	0.0999846998602152	112	satiated	stimuli/non_foods\non-food_inanimate_soccer_ball.jpg	1	1	1	non-food_inanimate_soccer_ball	0	L	8	0	210	1	a	0.841817100066692	1	75.2859304999001	75.3859151997603
16028.75	0.099989099893719	113	satiated	stimuli/non_foods\non-food_animate_deer.jpg	1	1	1	non-food_animate_deer	0	N	10	0	105	0		0	0	75.4359230999835	75.5359121998772
16066.25	0.099982799962163	114	satiated	stimuli/non_foods\non-food_inanimate_padlock.jpg	1	1	1	non-food_inanimate_padlock	0	V	15	0	199	0		0	0	75.585927200038	75.6859100000001
16103.75	0.0999746001325548	115	satiated	stimuli/foods\prawn.jpg	1	1	1	prawn	1	S	13	0	249	0		0	0	75.7359350998886	75.8359097000211
16141.25	0.0999785996973515	116	satiated	stimuli/non_foods\non-food_inanimate_buds.jpg	1	1	1	non-food_inanimate_buds	0	K	7	0	166	0		0	0	75.8859226000495	75.9859011997469
16178.75	0.0999875999987125	117	satiated	stimuli/foods\linguine_with_clams.jpg	1	1	1	linguine_with_clams	1	S	13	0	77	0		0	0	76.0359195997007	76.1359071996994
16216.25	0.0999816004186869	118	satiated	stimuli/foods\cauliflower.jpg	1	1	1	cauliflower	1	M	9	0	20	0		0	0	76.1859140996821	76.2858957001008
16253.75	0.0999911003746092	119	satiated	stimuli/non_foods\non-food_animate_hummingbird.jpg	1	1	1	non-food_animate_hummingbird	0	J	6	0	120	0		0	0	76.3359034997411	76.4358946001157
16291.25	0.0999916000291705	120	satiated	stimuli/foods\rice.jpg	1	1	1	rice	1	B	0	0	257	0		0	0	76.4859001999721	76.5858918000013
16328.75	0.0999818001873791	121	satiated	stimuli/foods\pomegranate.jpg	1	1	1	pomegranate	1	F	3	0	244	0		0	0	76.6359131997451	76.7358949999325
16366.25	0.0999839003197849	122	satiated	stimuli/non_foods\non-food_animate_lion.jpg	1	1	1	non-food_animate_lion	0	N	10	0	125	0		0	0	76.7859112997539	76.8858952000737
16403.75	0.0999795999377966	123	satiated	stimuli/foods\rice_cake.jpg	1	1	1	rice_cake	1	K	7	0	258	0		0	0	76.9359122999012	77.035891899839
16441.25	0.099978799931705	124	satiated	stimuli/non_foods\non-food_inanimate_cap.jpg	1	1	1	non-food_inanimate_cap	0	J	6	0	171	0		0	0	77.0859051998705	77.1858839998022
16478.75	0.0999837000854313	125	satiated	stimuli/non_foods\non-food_animate_grasshopper.jpg	1	1	1	non-food_animate_grasshopper	0	B	0	0	117	0		0	0	77.2359067997895	77.3358904998749
16516.25	0.100009600166231	126	satiated	stimuli/non_foods\non-food_animate_porcupine.jpg	1	1	1	non-food_animate_porcupine	0	T	14	0	138	0		0	0	77.3858982999809	77.4859079001471
16553.75	0.0999982003122568	127	satiated	stimuli/non_foods\non-food_inanimate_hay.jpg	1	1	1	non-food_inanimate_hay	0	P	11	0	187	0		0	0	77.5358997997828	77.635898000095
16591.25	0.0999846998602152	128	satiated	stimuli/foods\lasagna.jpg	1	1	1	lasagna	1	T	14	0	71	0		0	0	77.6859019999392	77.7858866997994
16628.75	0.0999866002239287	129	satiated	stimuli/foods\cracker.jpg	1	1	1	cracker	1	Z	18	0	38	0		0	0	77.8358982997015	77.9358848999254
16666.25	0.0999971996061504	130	satiated	stimuli/non_foods\non-food_inanimate_construction_helment.jpg	1	1	1	non-food_inanimate_construction_helment	0	R	12	0	175	0		0	0	77.9858868001029	78.085883999709
16703.75	0.0999850002117455	131	satiated	stimuli/foods\honey.jpg	1	1	1	honey	1	M	9	0	66	0		0	0	78.1358989998698	78.2358840000816
16741.25	0.0999809997156262	132	satiated	stimuli/foods\corncob.jpg	1	1	1	corncob	1	S	13	0	37	0		0	0	78.2858951999806	78.3858761996962
16778.75	0.0999877997674048	133	satiated	stimuli/non_foods\non-food_animate_duck.jpg	1	1	1	non-food_animate_duck	0	W	16	0	109	0		0	0	78.4358910000883	78.5358787998557
16816.25	0.0999841997399926	134	satiated	stimuli/foods\kiwi.jpg	1	1	1	kiwi	1	K	7	0	69	0		0	0	78.5858895001002	78.6858736998402
16853.75	0.0999858002178371	135	satiated	stimuli/foods\brownie.jpg	1	1	1	brownie	1	M	9	0	14	0		0	0	78.7358881998807	78.8358740000986
16891.25	0.0999833000823855	136	satiated	stimuli/non_foods\non-food_inanimate_jeans.jpg	1	1	1	non-food_inanimate_jeans	0	R	12	0	191	0		0	0	78.885882999748	78.9858662998304
16928.75	0.0999851999804378	137	satiated	stimuli/non_foods\non-food_animate_elephant.jpg	1	1	1	non-food_animate_elephant	0	W	16	0	111	0		0	0	79.0358755998313	79.1358607998118
16966.25	0.0999960997141898	138	satiated	stimuli/foods\green_olives.jpg	1	1	1	green_olives	1	F	3	0	62	0		0	0	79.1858753999695	79.2858714996837
17003.75	0.0999937001615763	139	satiated	stimuli/foods\raw_ham.jpg	1	1	1	raw_ham	1	X	17	0	253	0		0	0	79.335871799849	79.4358655000106
17737.25	0.0999849997460842	140	satiated	stimuli/non_foods\non-food_animate_ant.jpg	1	2	1	non-food_animate_ant	0	T	14	0	91	0		0	0	82.2691794000566	82.3691643998027
17774.75	0.0999841997399926	141	satiated	stimuli/non_foods\non-food_inanimate_grass.jpg	1	2	1	non-food_inanimate_grass	0	M	9	0	184	0		0	0	82.4191799000837	82.5191640998237
17812.25	0.0999763002619147	142	satiated	stimuli/foods\pear.jpg	1	2	1	pear	1	K	7	0	239	0		0	0	82.5691844997928	82.6691608000547
17849.75	0.0999920996837318	143	satiated	stimuli/non_foods\non-food_inanimate_teddy_bear.jpg	1	2	1	non-food_inanimate_teddy_bear	0	M	9	0	218	0		0	0	82.7191661000252	82.8191581997089
17887.25	0.099961600266397	144	satiated	stimuli/foods\apple.jpg	1	2	1	apple	1	N	10	0	1	0		0	0	82.8691953998059	82.9691570000723
17924.75	0.0999875999987125	145	satiated	stimuli/foods\blackberry.jpg	1	2	1	blackberry	1	C	1	0	11	0		0	0	83.0191695997491	83.1191571997479
17962.25	0.0999820996075869	146	satiated	stimuli/foods\pumpkin.jpg	1	2	1	pumpkin	1	J	6	0	250	0		0	0	83.169172800146	83.2691548997536
17999.75	0.0999822001904249	147	satiated	stimuli/non_foods\non-food_animate_millipede.jpg	1	2	1	non-food_animate_millipede	0	W	16	0	129	0		0	0	83.3191701998003	83.4191523999907
18037.25	0.0999863999895751	148	satiated	stimuli/foods\lentils.jpg	1	2	1	lentils	1	D	2	0	74	0		0	0	83.4691637000069	83.5691500999965
18074.75	0.0999829997308552	149	satiated	stimuli/foods\pickles.jpg	1	2	1	pickles	1	K	7	0	242	0		0	0	83.6191670000553	83.7191499997862
18112.25	0.09998539974913	150	satiated	stimuli/foods\minestrone_soup.jpg	1	2	1	minestrone_soup	1	H	5	0	82	0		0	0	83.7691604001448	83.8691457998939
18149.75	0.099991999566555	151	satiated	stimuli/non_foods\non-food_inanimate_alarm_clock.jpg	1	2	1	non-food_inanimate_alarm_clock	0	K	7	0	158	0		0	0	83.9191553001292	84.0191472996958
18187.25	0.0999774001538754	152	satiated	stimuli/foods\artichoke.jpg	1	2	1	artichoke	1	M	9	0	3	0		0	0	84.0691700996831	84.169147499837
18224.75	0.100030199624598	153	satiated	stimuli/non_foods\non-food_inanimate_briefcase.jpg	1	2	1	non-food_inanimate_briefcase	0	R	12	0	163	0		0	0	84.2191348001361	84.3191649997607
18262.25	0.100003200117499	154	satiated	stimuli/foods\potato_and_green_bean_salad.jpg	1	2	1	potato_and_green_bean_salad	1	F	3	0	246	0		0	0	84.3691378999501	84.4691411000676
18299.75	0.0999734001234174	155	satiated	stimuli/foods\papaya.jpg	1	2	1	papaya	1	J	6	0	235	0		0	0	84.5191640998237	84.6191374999471
18337.25	0.0999891995452344	156	satiated	stimuli/non_foods\non-food_animate_iguana.jpg	1	2	1	non-food_animate_iguana	0	H	5	0	121	0		0	0	84.6691418001428	84.7691309996881
18374.75	0.099976200144738	157	satiated	stimuli/foods\fried_calamari.jpg	1	2	1	fried_calamari	1	J	6	0	50	0		0	0	84.8191522997804	84.9191284999251
18412.25	0.100009799934924	158	satiated	stimuli/non_foods\non-food_inanimate_guitar.jpg	1	2	1	non-food_inanimate_guitar	0	F	3	0	185	0		0	0	84.9691492998973	85.0691590998322
18449.75	0.099995699711144	159	satiated	stimuli/foods\salami.jpg	1	2	1	salami	1	R	12	0	263	0		0	0	85.1191460001282	85.2191416998394
18487.25	0.0999603001400828	160	satiated	stimuli/non_foods\non-food_animate_peacock.jpg	1	2	1	non-food_animate_peacock	0	F	3	0	134	0		0	0	85.2691453997977	85.3691056999378
18524.75	0.0999833000823855	161	satiated	stimuli/non_foods\non-food_inanimate_tree.jpg	1	2	1	non-food_inanimate_tree	0	D	2	0	223	0		0	0	85.419137199875	85.5191204999574
18562.25	0.0999889997765422	162	satiated	stimuli/foods\asparagus.jpg	1	2	1	asparagus	1	Z	18	0	4	0		0	0	85.5691271000542	85.6691160998307
18599.75	0.099959900137037	163	satiated	stimuli/non_foods\non-food_inanimate_socks.jpg	1	2	1	non-food_inanimate_socks	0	S	13	0	211	0		0	0	85.7191532999277	85.8191132000647
18637.25	0.0999867999926209	164	satiated	stimuli/non_foods\non-food_inanimate_folding_chair.jpg	1	2	1	non-food_inanimate_folding_chair	0	W	16	0	182	0		0	0	85.8691384997219	85.9691252997145
18674.75	0.0999473999254405	165	satiated	stimuli/non_foods\non-food_animate_sea_lion.jpg	1	2	1	non-food_animate_sea_lion	0	O	22	1	143	0		0	0	86.019144800026	86.1190921999514
18712.25	0.0999835999682546	166	satiated	stimuli/foods\cannoli.jpg	1	2	1	cannoli	1	H	5	0	17	0		0	0	86.1691252999008	86.269108899869
18749.75	0.100002999883145	167	satiated	stimuli/foods\lemon.jpg	1	2	1	lemon	1	M	9	0	72	0		0	0	86.3191304998472	86.4191334997304
18787.25	0.0999692999757826	168	satiated	stimuli/non_foods\non-food_animate_baby_crawling.jpg	1	2	1	non-food_animate_baby_crawling	0	B	0	0	92	0		0	0	86.469136599917	86.5691058998927
18824.75	0.099978500045836	169	satiated	stimuli/foods\pepperoni_pizza.jpg	1	2	1	pepperoni_pizza	1	D	2	0	241	1	a	0.691804300062358	1	86.6191222998314	86.7191007998772
18862.25	0.100001499988139	170	satiated	stimuli/foods\raisins.jpg	1	2	1	raisins	1	X	17	0	252	0		0	0	86.769110399764	86.8691118997522
18899.75	0.0999775999225676	171	satiated	stimuli/foods\figs.jpg	1	2	1	figs	1	H	5	0	48	0		0	0	86.9191231997684	87.0191007996909
18937.25	0.0999648999422789	172	satiated	stimuli/non_foods\non-food_inanimate_bicycle.jpg	1	2	1	non-food_inanimate_bicycle	0	T	14	0	161	0		0	0	87.0691467998549	87.1691116997972
18974.75	0.0999854002147913	173	satiated	stimuli/foods\carrot.jpg	1	2	1	carrot	1	Z	18	0	19	0		0	0	87.2191222999245	87.3191077001393
19012.25	0.0999788003973663	174	satiated	stimuli/non_foods\non-food_inanimate_moss.jpg	1	2	1	non-food_inanimate_moss	0	B	0	0	194	0		0	0	87.3691193996929	87.4690982000902
19049.75	0.0999849997460842	175	satiated	stimuli/non_foods\non-food_animate_gorilla.jpg	1	2	1	non-food_animate_gorilla	0	R	12	0	116	0		0	0	87.5191192999482	87.6191042996943
19087.25	0.0999766997992992	176	satiated	stimuli/foods\toasted_bread_with_tomatoes.jpg	1	2	1	toasted_bread_with_tomatoes	1	J	6	0	275	0		0	0	87.6691163000651	87.7690929998644
19124.75	0.0999855999834836	177	satiated	stimuli/foods\strawberry.jpg	1	2	1	strawberry	1	C	1	0	272	0		0	0	87.819115600083	87.9191012000665
19162.25	0.0999932996928692	178	satiated	stimuli/foods\orange.jpg	1	2	1	orange	1	H	5	0	230	0		0	0	87.9691133000888	88.0691065997817
19199.75	0.0999950999394059	179	satiated	stimuli/foods\hamburger.jpg	1	2	1	hamburger	1	G	4	0	64	0		0	0	88.1191147998907	88.2191098998301
19237.25	0.0999670997262001	180	satiated	stimuli/foods\green_beans.jpg	1	2	1	green_beans	1	P	11	0	61	0		0	0	88.2691111001186	88.3690781998448
19274.75	0.1000099000521	181	satiated	stimuli/foods\lettuce.jpg	1	2	1	lettuce	1	C	1	0	75	0		0	0	88.4190825000405	88.5190924000926
19312.25	0.0999877001158893	182	satiated	stimuli/foods\radish.jpg	1	2	1	radish	1	N	10	0	251	0		0	0	88.5691060000099	88.6690937001258
19349.75	0.0999841000884771	183	satiated	stimuli/non_foods\non-food_animate_seal.jpg	1	2	1	non-food_animate_seal	0	F	3	0	146	0		0	0	88.7191039999016	88.81908809999
19387.25	0.0999966999515891	184	satiated	stimuli/foods\steak.jpg	1	2	1	steak	1	R	12	0	270	0		0	0	88.8690756000578	88.9690723000094
19424.75	0.0999909001402557	185	satiated	stimuli/non_foods\non-food_inanimate_rack.jpg	1	2	1	non-food_inanimate_rack	0	L	8	0	202	0		0	0	89.0190877998248	89.119078699965
19462.25	0.0999847003258765	186	satiated	stimuli/foods\savory_pie.jpg	1	2	1	savory_pie	1	M	9	0	265	0		0	0	89.1690901997499	89.2690749000758
19499.75	0.0999708999879658	187	satiated	stimuli/foods\hotdog.jpg	1	2	1	hotdog	1	W	16	0	67	0		0	0	89.3190973000601	89.4190682000481
19537.25	0.0999941998161376	188	satiated	stimuli/foods\pancakes.jpg	1	2	1	pancakes	1	K	7	0	234	0		0	0	89.4690851001069	89.569079299923
19574.75	0.099989099893719	189	satiated	stimuli/non_foods\non-food_inanimate_headphones.jpg	1	2	1	non-food_inanimate_headphones	0	T	14	0	188	0		0	0	89.6190928998403	89.719081999734
19612.25	0.0999775999225676	190	satiated	stimuli/foods\cucumber.jpg	1	2	1	cucumber	1	H	5	0	41	0		0	0	89.7690928000957	89.8690704000182
19649.75	0.0999835999682546	191	satiated	stimuli/non_foods\non-food_inanimate_towel.jpg	1	2	1	non-food_inanimate_towel	0	F	3	0	221	0		0	0	89.9190911999904	90.0190747999586
19687.25	0.099972500000149	192	satiated	stimuli/non_foods\non-food_inanimate_horn.jpg	1	2	1	non-food_inanimate_horn	0	H	5	0	190	0		0	0	90.0691021000966	90.1690746000968
19724.75	0.0999853000976145	193	satiated	stimuli/foods\mango.jpg	1	2	1	mango	1	L	8	0	80	0		0	0	90.2190882000141	90.3190735001117
19762.25	0.0999635001644492	194	satiated	stimuli/foods\fried_zucchini.jpg	1	2	1	fried_zucchini	1	N	10	0	51	0		0	0	90.3690853998996	90.4690489000641
19799.75	0.0999858002178371	195	satiated	stimuli/non_foods\non-food_animate_chicken.jpg	1	2	1	non-food_animate_chicken	0	B	0	0	101	0		0	0	90.519081399776	90.6190671999939
19837.25	0.0999627998098731	196	satiated	stimuli/non_foods\non-food_animate_pigeon.jpg	1	2	1	non-food_animate_pigeon	0	N	10	0	136	0		0	0	90.6690786001272	90.7690413999371
19874.75	0.0999845997430384	197	satiated	stimuli/foods\cupcake.jpg	1	2	1	cupcake	1	X	17	0	42	0		0	0	90.8190743001178	90.9190588998608
19912.25	0.100019400008023	198	satiated	stimuli/foods\ginger_root.jpg	1	2	1	ginger_root	1	W	16	0	57	0		0	0	90.9690696001053	91.0690890001133
19949.75	0.0999948997050524	199	satiated	stimuli/foods\smoked_ham.jpg	1	2	1	smoked_ham	1	B	0	0	266	0		0	0	91.1190760000609	91.2190708997659
19987.25	0.10000710003078	200	satiated	stimuli/foods\chestnut.jpg	1	2	1	chestnut	1	L	8	0	24	0		0	0	91.2690539998002	91.369061099831
20024.75	0.09998709987849	201	satiated	stimuli/non_foods\non-food_inanimate_broom.jpg	1	2	1	non-food_inanimate_broom	0	B	0	0	164	0		0	0	91.4190695998259	91.5190566997044
20062.25	0.100001399870962	202	satiated	stimuli/foods\chocolate_pudding.jpg	1	2	1	chocolate_pudding	1	I	21	1	29	0		0	0	91.5690608001314	91.6690622000024
20099.75	0.0999905001372099	203	satiated	stimuli/non_foods\non-food_inanimate_waterlily.jpg	1	2	1	non-food_inanimate_waterlily	0	X	17	0	226	0		0	0	91.7190960999578	91.819086600095
20137.25	0.0999950002878904	204	satiated	stimuli/non_foods\non-food_inanimate_nettle.jpg	1	2	1	non-food_inanimate_nettle	0	W	16	0	197	0		0	0	91.8690693997778	91.9690644000657
20174.75	0.0999900996685028	205	satiated	stimuli/foods\pork_and_rice.jpg	1	2	1	pork_and_rice	1	J	6	0	245	0		0	0	92.0190475001	92.1190375997685
20212.25	0.100004999898374	206	satiated	stimuli/non_foods\non-food_inanimate_bush.jpg	1	2	1	non-food_inanimate_bush	0	D	2	0	167	0		0	0	92.1690364000387	92.2690413999371
20249.75	0.100000500213355	207	satiated	stimuli/non_foods\non-food_inanimate_toilet.jpg	1	2	1	non-food_inanimate_toilet	0	K	7	0	220	0		0	0	92.3190469997935	92.4190475000069
20287.25	0.0999839999713004	208	satiated	stimuli/non_foods\non-food_animate_baby_sitting.jpg	1	2	1	non-food_animate_baby_sitting	0	N	10	0	93	0		0	0	92.4690618999302	92.5690458999015
20324.75	0.0999858002178371	209	satiated	stimuli/foods\baked_cod_with_carrots_and_green_beans.jpg	1	2	1	baked_cod_with_carrots_and_green_beans	1	F	3	0	7	0		0	0	92.6190571999177	92.7190430001356
20362.25	0.0999854998663068	210	satiated	stimuli/foods\clams.jpg	1	2	1	clams	1	M	9	0	32	0		0	0	92.7690567998216	92.8690422996879
20399.75	0.0999828004278243	211	satiated	stimuli/foods\mortadella.jpg	1	2	1	mortadella	1	G	4	0	83	0		0	0	92.9190539997071	93.0190368001349
20437.25	0.0999749000184238	212	satiated	stimuli/foods\roasted_chicken.jpg	1	2	1	roasted_chicken	1	L	8	0	261	0		0	0	93.0690635000356	93.169038400054
20474.75	0.0999863999895751	213	satiated	stimuli/foods\banana.jpg	1	2	1	banana	1	G	4	0	9	0		0	0	93.2190503999591	93.3190367999487
20512.25	0.0999781000427902	214	satiated	stimuli/foods\fruit_salad.jpg	1	2	1	fruit_salad	1	N	10	0	55	0		0	0	93.3690519998781	93.4690300999209
20549.75	0.0999614996835589	215	satiated	stimuli/non_foods\non-food_animate_ladybug.jpg	1	2	1	non-food_animate_ladybug	0	H	5	0	124	0		0	0	93.5190709000453	93.6190323997289
20587.25	0.0999849997460842	216	satiated	stimuli/non_foods\non-food_inanimate_wrench.jpg	1	2	1	non-food_inanimate_wrench	0	B	0	0	227	0		0	0	93.6690442999825	93.7690292997286
20624.75	0.0999872996471822	217	satiated	stimuli/non_foods\non-food_inanimate_drum_set.jpg	1	2	1	non-food_inanimate_drum_set	0	R	12	0	179	0		0	0	93.8190433001146	93.9190305997618
20662.25	0.0999904996715486	218	satiated	stimuli/foods\fruit_flan.jpg	1	2	1	fruit_flan	1	N	10	0	53	0		0	0	93.9690433000214	94.069033799693
20699.75	0.0999747002497315	219	satiated	stimuli/non_foods\non-food_animate_lizard.jpg	1	2	1	non-food_animate_lizard	0	S	13	0	126	0		0	0	94.1190360998735	94.2190108001232
20737.25	0.100000099744648	220	satiated	stimuli/foods\salmon.jpg	1	2	1	salmon	1	M	9	0	264	0		0	0	94.2690216000192	94.3690216997638
20774.75	0.0999993002042174	221	satiated	stimuli/foods\grapes.jpg	1	2	1	grapes	1	C	1	0	60	0		0	0	94.4190111998469	94.5190105000511
20812.25	0.0999852996319532	222	satiated	stimuli/non_foods\non-food_animate_Asian_man.jpg	1	2	1	non-food_animate_Asian_man	0	J	6	0	88	0		0	0	94.5690286001191	94.669013899751
20849.75	0.0999881001189351	223	satiated	stimuli/foods\cinnamon.jpg	1	2	1	cinnamon	1	W	16	0	30	0		0	0	94.7190208998509	94.8190089999698
20887.25	0.0999884000048041	224	satiated	stimuli/non_foods\non-food_inanimate_ring.jpg	1	2	1	non-food_inanimate_ring	0	Z	18	0	203	0		0	0	94.8690233998932	94.969011799898
20924.75	0.0999517003074288	225	satiated	stimuli/foods\cooked_prawn.jpg	1	2	1	cooked_prawn	1	J	6	0	36	0		0	0	95.0190424998291	95.1189942001365
20962.25	0.0999819999560714	226	satiated	stimuli/non_foods\non-food_inanimate_shell.jpg	1	2	1	non-food_inanimate_shell	0	Z	18	0	206	0		0	0	95.1690279999748	95.2690099999309
20999.75	0.0999813000671566	227	satiated	stimuli/foods\cinnamon_sroll.jpg	1	2	1	cinnamon_sroll	1	G	4	0	31	0		0	0	95.3190528000705	95.4190341001377
21037.25	0.0999866998754442	228	satiated	stimuli/non_foods\non-food_inanimate_stapler.jpg	1	2	1	non-food_inanimate_stapler	0	Z	18	0	213	0		0	0	95.4690260998905	95.5690127997659
21074.75	0.099983399733901	229	satiated	stimuli/non_foods\non-food_inanimate_bucket.jpg	1	2	1	non-food_inanimate_bucket	0	R	12	0	165	0		0	0	95.6190247000195	95.7190080997534
21112.25	0.0999846002086997	230	satiated	stimuli/non_foods\non-food_inanimate_bowling_ball.jpg	1	2	1	non-food_inanimate_bowling_ball	0	G	4	0	162	0		0	0	95.769021499902	95.8690061001107
21149.75	0.100003299769014	231	satiated	stimuli/non_foods\non-food_inanimate_orchid.jpg	1	2	1	non-food_inanimate_orchid	0	W	16	0	198	0		0	0	95.9190043001436	96.0190075999126
21187.25	0.0999744995497167	232	satiated	stimuli/foods\dates.jpg	1	2	1	dates	1	G	4	0	43	0		0	0	96.0690306001343	96.169005099684
21224.75	0.0999982999637723	233	satiated	stimuli/non_foods\non-food_animate_owl.jpg	1	2	1	non-food_animate_owl	0	J	6	0	132	0		0	0	96.2189978999086	96.3189961998723
21262.25	0.0999843999743462	234	satiated	stimuli/foods\avocado.jpg	1	2	1	avocado	1	H	5	0	5	0		0	0	96.3690072000027	96.468991599977
21299.75	0.100004400126636	235	satiated	stimuli/non_foods\non-food_animate_sea_turtle.jpg	1	2	1	non-food_animate_sea_turtle	0	C	1	0	144	0		0	0	96.5189991998486	96.6190035999753
21337.25	0.100005699787289	236	satiated	stimuli/foods\baked_lamb_with_potatoes.jpg	1	2	1	baked_lamb_with_potatoes	1	P	11	0	8	0		0	0	96.6689909999259	96.7689966997132
21374.75	0.0999564002268016	237	satiated	stimuli/non_foods\non-food_inanimate_tulip.jpg	1	2	1	non-food_inanimate_tulip	0	S	13	0	224	0		0	0	96.8190107997507	96.9189671999775
21412.25	0.100016499869525	238	satiated	stimuli/foods\spring_onions.jpg	1	2	1	spring_onions	1	H	5	0	269	0		0	0	96.9690005998127	97.0690170996822
21449.75	0.0999686000868678	239	satiated	stimuli/foods\chocolate_chip_cookies.jpg	1	2	1	chocolate_chip_cookies	1	F	3	0	27	0		0	0	97.119021799881	97.2189903999679
21487.25	0.0999846002086997	240	satiated	stimuli/foods\coconut.jpg	1	2	1	coconut	1	V	15	0	33	0		0	0	97.269004299771	97.3689888999797
21524.75	0.0999809000641108	241	satiated	stimuli/foods\lemon_meringue_pie.jpg	1	2	1	lemon_meringue_pie	1	W	16	0	73	0		0	0	97.419003999792	97.5189848998562
21562.25	0.0999829000793397	242	satiated	stimuli/foods\rockmelon.jpg	1	2	1	rockmelon	1	D	2	0	262	0		0	0	97.5689906999469	97.6689736000262
21599.75	0.099989099893719	243	satiated	stimuli/non_foods\non-food_inanimate_chandelier.jpg	1	2	1	non-food_inanimate_chandelier	0	M	9	0	173	0		0	0	97.7189902998507	97.8189793997444
21637.25	0.100004199892282	244	satiated	stimuli/foods\beetroots.jpg	1	2	1	beetroots	1	N	10	0	10	0		0	0	97.8689771001227	97.968981300015
21674.75	0.0999803999438882	245	satiated	stimuli/non_foods\non-food_inanimate_tent.jpg	1	2	1	non-food_inanimate_tent	0	C	1	0	219	0		0	0	98.0189944999292	98.1189748998731
21712.25	0.0999503000639379	246	satiated	stimuli/non_foods\non-food_inanimate_skirt.jpg	1	2	1	non-food_inanimate_skirt	0	D	2	0	209	0		0	0	98.1690298998728	98.2689801999368
21749.75	0.0999866998754442	247	satiated	stimuli/foods\fennel.jpg	1	2	1	fennel	1	S	13	0	47	0		0	0	98.3189885998145	98.4189752996899
21787.25	0.0999867999926209	248	satiated	stimuli/foods\lamb_chops.jpg	1	2	1	lamb_chops	1	T	14	0	70	0		0	0	98.4689811998978	98.5689679998904
21824.75	0.0999785996973515	249	satiated	stimuli/foods\raw_sausage.jpg	1	2	1	raw_sausage	1	Z	18	0	254	0		0	0	98.6189878000878	98.7189663997851
21862.25	0.0999880000017583	250	satiated	stimuli/non_foods\non-food_animate_bee.jpg	1	2	1	non-food_animate_bee	0	K	7	0	95	0		0	0	98.7689783996902	98.868966399692
21899.75	0.0999511000700295	251	satiated	stimuli/non_foods\non-food_animate_alligator.jpg	1	2	1	non-food_animate_alligator	0	R	12	0	90	0		0	0	98.9190111998469	99.0189622999169
21937.25	0.0999789997003973	252	satiated	stimuli/non_foods\non-food_animate_green_bug.jpg	1	2	1	non-food_animate_green_bug	0	K	7	0	118	0		0	0	99.0689829001203	99.1689618998207
21974.75	0.0999978999607265	253	satiated	stimuli/foods\pea_pod.jpg	1	2	1	pea_pod	1	T	14	0	237	0		0	0	99.2189740999602	99.3189719999209
22012.25	0.0999855003319681	254	satiated	stimuli/non_foods\non-food_animate_penguin.jpg	1	2	1	non-food_animate_penguin	0	S	13	0	135	0		0	0	99.3689787997864	99.4689643001184
22049.75	0.0999767002649605	255	satiated	stimuli/non_foods\non-food_animate_young_girl.jpg	1	2	1	non-food_animate_young_girl	0	Z	18	0	157	0		0	0	99.5189775996841	99.6189542999491
22087.25	0.100005599670112	256	satiated	stimuli/non_foods\non-food_inanimate_fern.jpg	1	2	1	non-food_inanimate_fern	0	V	15	0	180	0		0	0	99.6689518000931	99.7689573997632
22124.75	0.0999772003851831	257	satiated	stimuli/foods\potato_chips.jpg	1	2	1	potato_chips	1	G	4	0	247	0		0	0	99.8189642997459	99.918941500131
22162.25	0.100014999974519	258	satiated	stimuli/non_foods\non-food_animate_caterpillar.jpg	1	2	1	non-food_animate_caterpillar	0	M	9	0	99	0		0	0	99.9689472997561	100.068962299731
22199.75	0.09998539974913	259	satiated	stimuli/foods\oven-roasted_tomatoes.jpg	1	2	1	oven-roasted_tomatoes	1	F	3	0	232	0		0	0	100.118971399963	100.218956799712
22237.25	0.0999832004308701	260	satiated	stimuli/non_foods\non-food_animate_squirrel.jpg	1	2	1	non-food_animate_squirrel	0	V	15	0	150	0		0	0	100.268962499686	100.368945700116
22274.75	0.0999871999956667	261	satiated	stimuli/non_foods\non-food_inanimate_hammer.jpg	1	2	1	non-food_inanimate_hammer	0	M	9	0	186	0		0	0	100.418960299809	100.518947499804
22312.25	0.100001300219446	262	satiated	stimuli/foods\taco.jpg	1	2	1	taco	1	P	11	0	274	0		0	0	100.568972799927	100.668974100146
22349.75	0.099953499622643	263	satiated	stimuli/non_foods\non-food_animate_Causasian_man.jpg	1	2	1	non-food_animate_Causasian_man	0	G	4	0	89	0		0	0	100.718965900131	100.818919399753
22387.25	0.0999881001189351	264	satiated	stimuli/non_foods\non-food_animate_swan.jpg	1	2	1	non-food_animate_swan	0	W	16	0	152	0		0	0	100.86894039996	100.968928500079
22424.75	0.0999851999804378	265	satiated	stimuli/non_foods\non-food_inanimate_button.jpg	1	2	1	non-food_inanimate_button	0	H	5	0	168	0		0	0	101.018953399733	101.118938599713
22462.25	0.09998539974913	266	satiated	stimuli/non_foods\non-food_inanimate_highlighter.jpg	1	2	1	non-food_inanimate_highlighter	0	C	1	0	189	0		0	0	101.168952499982	101.268937899731
22499.75	0.0999884000048041	267	satiated	stimuli/non_foods\non-food_animate_donkey.jpg	1	2	1	non-food_animate_donkey	0	T	14	0	107	0		0	0	101.318946300074	101.418934700079
22537.25	0.0999869997613132	268	satiated	stimuli/non_foods\non-food_animate_mouse.jpg	1	2	1	non-food_animate_mouse	0	G	4	0	131	0		0	0	101.468946400099	101.56893339986
22574.75	0.0999758001416922	269	satiated	stimuli/foods\spinach.jpg	1	2	1	spinach	1	H	5	0	268	0		0	0	101.618946999777	101.718922799919
22612.25	0.0999791999347508	270	satiated	stimuli/foods\brussel_sprouts.jpg	1	2	1	brussel_sprouts	1	C	1	0	15	0		0	0	101.768950399943	101.868929599877
22649.75	0.0999888000078499	271	satiated	stimuli/non_foods\non-food_inanimate_cupboard.jpg	1	2	1	non-food_inanimate_cupboard	0	W	16	0	177	0		0	0	101.918942300137	102.018931100145
22687.25	0.0999777000397444	272	satiated	stimuli/non_foods\non-food_animate_woman.jpg	1	2	1	non-food_animate_woman	0	F	3	0	154	0		0	0	102.06895529991	102.16893299995
22724.75	0.0999865997582674	273	satiated	stimuli/foods\nectarine.jpg	1	2	1	nectarine	1	D	2	0	87	0		0	0	102.218942699954	102.318929299712
22762.25	0.10000710003078	274	satiated	stimuli/non_foods\non-food_inanimate_bed.jpg	1	2	1	non-food_inanimate_bed	0	H	5	0	160	0		0	0	102.368954899721	102.468961999752
22799.75	0.0999846998602152	275	satiated	stimuli/foods\risotto_with_peas_and_asparagus_tips.jpg	1	2	1	risotto_with_peas_and_asparagus_tips	1	M	9	0	259	0		0	0	102.51894079987	102.61892549973
22837.25	0.0999864996410906	276	satiated	stimuli/foods\garlic.jpg	1	2	1	garlic	1	B	0	0	56	0		0	0	102.668941500131	102.768927999772
22874.75	0.0999904000200331	277	satiated	stimuli/non_foods\non-food_animate_fox.jpg	1	2	1	non-food_animate_fox	0	S	13	0	112	0		0	0	102.818936999887	102.918927399907
22912.25	0.0999671001918614	278	satiated	stimuli/non_foods\non-food_inanimate_lighter.jpg	1	2	1	non-food_inanimate_lighter	0	K	7	0	193	0		0	0	102.968938599806	103.068905699998
22949.5	0.100008400157094	279	satiated	stimuli/non_foods\non-food_inanimate_rope.jpg	1	2	1	non-food_inanimate_rope	0	W	16	0	204	0		0	0	103.118905999698	103.218914399855
23637.25	0.0999771002680063	280	satiated	stimuli/foods\honey.jpg	1	3	1	honey	1	S	13	0	66	0		0	0	105.868910399731	105.968887499999
23674.75	0.0999884996563196	281	satiated	stimuli/non_foods\non-food_animate_donkey.jpg	1	3	1	non-food_animate_donkey	0	J	6	0	107	0		0	0	106.018895300105	106.118883799762
23712.25	0.0999817000702024	282	satiated	stimuli/non_foods\non-food_inanimate_construction_helment.jpg	1	3	1	non-food_inanimate_construction_helment	0	K	7	0	175	0		0	0	106.168901599944	106.268883300014
23749.5	0.0999710001051426	283	satiated	stimuli/foods\chocolate_pudding.jpg	1	3	1	chocolate_pudding	1	J	6	0	29	0		0	0	106.318881799933	106.418852800038
23787.25	0.0999966999515891	284	satiated	stimuli/foods\mushroom.jpg	1	3	1	mushroom	1	H	5	0	85	0		0	0	106.46889550006	106.568892200012
23824.75	0.0999640999361873	285	satiated	stimuli/non_foods\non-food_animate_fox.jpg	1	3	1	non-food_animate_fox	0	L	8	0	112	0		0	0	106.618894699961	106.718858799897
23862.25	0.0999862002208829	286	satiated	stimuli/non_foods\non-food_animate_giraffe.jpg	1	3	1	non-food_animate_giraffe	0	S	13	0	115	0		0	0	106.768891399726	106.868877599947
23899.75	0.0999718001112342	287	satiated	stimuli/non_foods\non-food_animate_seahorse.jpg	1	3	1	non-food_animate_seahorse	0	J	6	0	145	0		0	0	106.918896399904	107.018868200015
23937	0.100011699832976	288	satiated	stimuli/foods\fruit_flan.jpg	1	3	1	fruit_flan	1	Z	18	0	53	0		0	0	107.068883100059	107.168894799892
23974.75	0.0999751999042928	289	satiated	stimuli/non_foods\non-food_animate_frog.jpg	1	3	1	non-food_animate_frog	0	X	17	0	113	0		0	0	107.21891639987	107.318891599774
24012	0.100004300009459	290	satiated	stimuli/non_foods\non-food_animate_sea_turtle.jpg	1	3	1	non-food_animate_sea_turtle	0	W	16	0	144	0		0	0	107.368870799895	107.468875099905
24049.75	0.0999877001158893	291	satiated	stimuli/foods\cinnamon_sroll.jpg	1	3	1	cinnamon_sroll	1	P	11	0	31	0		0	0	107.518880799878	107.618868499994
24087.25	0.099985099863261	292	satiated	stimuli/foods\corncob.jpg	1	3	1	corncob	1	F	3	0	37	0		0	0	107.668882899918	107.768867999781
24124.75	0.0999794998206198	293	satiated	stimuli/foods\lamb_chops.jpg	1	3	1	lamb_chops	1	G	4	0	70	0		0	0	107.818881799933	107.918861299753
24162.25	0.0999870002269745	294	satiated	stimuli/non_foods\non-food_inanimate_rack.jpg	1	3	1	non-food_inanimate_rack	0	V	15	0	202	0		0	0	107.968876899686	108.068863899913
24199.5	0.0999961998313665	295	satiated	stimuli/foods\apple.jpg	1	3	1	apple	1	F	3	0	1	0		0	0	108.118867599871	108.218863799702
24237.25	0.0999857997521758	296	satiated	stimuli/non_foods\non-food_animate_llama.jpg	1	3	1	non-food_animate_llama	0	D	2	0	127	0		0	0	108.268872600049	108.368858399801
24274.5	0.100002399645746	297	satiated	stimuli/non_foods\non-food_inanimate_socks.jpg	1	3	1	non-food_inanimate_socks	0	T	14	0	211	0		0	0	108.418848900124	108.51885129977
24312	0.100000899750739	298	satiated	stimuli/non_foods\non-food_animate_baby_sitting.jpg	1	3	1	non-food_animate_baby_sitting	0	V	15	0	93	0		0	0	108.568857199978	108.668858099729
24349.5	0.099976799916476	299	satiated	stimuli/non_foods\non-food_inanimate_bush.jpg	1	3	1	non-food_inanimate_bush	0	K	7	0	167	0		0	0	108.718869599979	108.818846399896
24387	0.0999990003183484	300	satiated	stimuli/foods\baked_cod_with_carrots_and_green_beans.jpg	1	3	1	baked_cod_with_carrots_and_green_beans	1	M	9	0	7	0		0	0	108.868861599825	108.968860600144
24424.75	0.0999586000107229	301	satiated	stimuli/foods\peas.jpg	1	3	1	peas	1	J	6	0	240	0		0	0	109.018885599915	109.118844199926
24462	0.0999960000626743	302	satiated	stimuli/foods\raw_ham.jpg	1	3	1	raw_ham	1	T	14	0	253	0		0	0	109.168855699711	109.268851699773
24499.5	0.0999694000929594	303	satiated	stimuli/foods\fries.jpg	1	3	1	fries	1	L	8	0	52	0		0	0	109.318865899928	109.418835300021
24537	0.0999902999028563	304	satiated	stimuli/non_foods\non-food_inanimate_moss.jpg	1	3	1	non-food_inanimate_moss	0	H	5	0	194	0		0	0	109.4688591999	109.568849499803
24574.5	0.0999869001097977	305	satiated	stimuli/foods\grilled_chicken_breast.jpg	1	3	1	grilled_chicken_breast	1	K	7	0	63	0		0	0	109.618860699702	109.718847599812
24612	0.0999978999607265	306	satiated	stimuli/non_foods\non-food_inanimate_hay.jpg	1	3	1	non-food_inanimate_hay	0	N	10	0	187	0		0	0	109.768842800055	109.868840700015
24649.75	0.0999803002923727	307	satiated	stimuli/non_foods\non-food_animate_runner.jpg	1	3	1	non-food_animate_runner	0	T	14	0	142	0		0	0	109.918858499732	110.018838800024
24687.25	0.0999663998372853	308	satiated	stimuli/foods\prawn.jpg	1	3	1	prawn	1	S	13	0	249	0		0	0	110.068873499986	110.168839899823
24724.5	0.0999889001250267	309	satiated	stimuli/non_foods\non-food_animate_deer.jpg	1	3	1	non-food_animate_deer	0	W	16	0	105	0		0	0	110.218846799806	110.318835699931
24762	0.0999885997734964	310	satiated	stimuli/foods\lemon.jpg	1	3	1	lemon	1	I	21	1	72	0		0	0	110.368850300089	110.468838899862
24799.5	0.0999766001477838	311	satiated	stimuli/foods\orange.jpg	1	3	1	orange	1	C	1	0	230	0		0	0	110.518851699773	110.618828299921
24837	0.100036699790508	312	satiated	stimuli/foods\kiwi.jpg	1	3	1	kiwi	1	W	16	0	69	0		0	0	110.668838900048	110.768875599839
24874.75	0.0999281997792423	313	satiated	stimuli/non_foods\non-food_inanimate_scissors.jpg	1	3	1	non-food_inanimate_scissors	0	J	6	0	205	0		0	0	110.818894499913	110.918822699692
24912	0.099987699650228	314	satiated	stimuli/non_foods\non-food_inanimate_stoplight.jpg	1	3	1	non-food_inanimate_stoplight	0	L	8	0	214	0		0	0	110.968833900057	111.068821599707
24949.5	0.0999896000139415	315	satiated	stimuli/foods\spaghetti_with_meat_sauce.jpg	1	3	1	spaghetti_with_meat_sauce	1	M	9	0	267	0		0	0	111.11883299984	111.218822599854
24987	0.0999857001006603	316	satiated	stimuli/non_foods\non-food_animate_sea_lion.jpg	1	3	1	non-food_animate_sea_lion	0	V	15	0	143	0		0	0	111.268842299934	111.368828000035
25024.5	0.099985099863261	317	satiated	stimuli/non_foods\non-food_inanimate_bicycle.jpg	1	3	1	non-food_inanimate_bicycle	0	C	1	0	161	0		0	0	111.41883949982	111.518824599683
25062	0.0999863999895751	318	satiated	stimuli/foods\artichoke.jpg	1	3	1	artichoke	1	V	15	0	3	0		0	0	111.568835299928	111.668821699917
25099.5	0.0999857001006603	319	satiated	stimuli/non_foods\non-food_inanimate_skirt.jpg	1	3	1	non-food_inanimate_skirt	0	S	13	0	209	0		0	0	111.71883379994	111.81881950004
25137.25	0.0999777000397444	320	satiated	stimuli/non_foods\non-food_animate_cheetah.jpg	1	3	1	non-food_animate_cheetah	0	M	9	0	100	0		0	0	111.868842599913	111.968820299953
25174.5	0.0999835999682546	321	satiated	stimuli/foods\pomegranate.jpg	1	3	1	pomegranate	1	F	3	0	244	0		0	0	112.018832399976	112.118815999944
25212	0.0999869997613132	322	satiated	stimuli/foods\egg.jpg	1	3	1	egg	1	M	9	0	45	0		0	0	112.168827699963	112.268814699724
25249.5	0.0999839999713004	323	satiated	stimuli/foods\raw_sausage.jpg	1	3	1	raw_sausage	1	H	5	0	254	0		0	0	112.318820700049	112.418804700021
25287	0.10004029981792	324	satiated	stimuli/non_foods\non-food_inanimate_alarm_clock.jpg	1	3	1	non-food_inanimate_alarm_clock	0	Z	18	0	158	0		0	0	112.468814800028	112.568855099846
25324.5	0.0999801997095346	325	satiated	stimuli/foods\risotto_with_peas_and_asparagus_tips.jpg	1	3	1	risotto_with_peas_and_asparagus_tips	1	J	6	0	259	0		0	0	112.618826800026	112.718806999736
25362	0.100001699756831	326	satiated	stimuli/non_foods\non-food_animate_porcupine.jpg	1	3	1	non-food_animate_porcupine	0	H	5	0	138	0		0	0	112.768815800082	112.868817499839
25399.5	0.0999992000870407	327	satiated	stimuli/non_foods\non-food_inanimate_desk.jpg	1	3	1	non-food_inanimate_desk	0	M	9	0	178	0		0	0	112.91880069999	113.018799900077
25437	0.0999838998541236	328	satiated	stimuli/foods\wafer.jpg	1	3	1	wafer	1	X	17	0	277	0		0	0	113.068814700004	113.168798599858
25474.5	0.0999877997674048	329	satiated	stimuli/non_foods\non-food_animate_mammoth.jpg	1	3	1	non-food_animate_mammoth	0	B	0	0	128	0		0	0	113.218805300072	113.318793099839
25512	0.100033199880272	330	satiated	stimuli/non_foods\non-food_inanimate_tent.jpg	1	3	1	non-food_inanimate_tent	0	T	14	0	219	0		0	0	113.368792700116	113.468825899996
25549.5	0.0999846998602152	331	satiated	stimuli/foods\raisins.jpg	1	3	1	raisins	1	V	15	0	252	0		0	0	113.518814399838	113.618799099699
25587	0.0999911003746092	332	satiated	stimuli/non_foods\non-food_animate_hummingbird.jpg	1	3	1	non-food_animate_hummingbird	0	D	2	0	120	0		0	0	113.668806399684	113.768797500059
25624.5	0.0999886002391577	333	satiated	stimuli/foods\taco.jpg	1	3	1	taco	1	F	3	0	274	0		0	0	113.818810199853	113.918798800092
25662	0.099978799931705	334	satiated	stimuli/non_foods\non-food_inanimate_rope.jpg	1	3	1	non-food_inanimate_rope	0	W	16	0	204	0		0	0	113.968811700121	114.068790500052
25699.5	0.0999799999408424	335	satiated	stimuli/non_foods\non-food_animate_ant.jpg	1	3	1	non-food_animate_ant	0	K	7	0	91	0		0	0	114.118806799874	114.218786799815
25737	0.100029600318521	336	satiated	stimuli/foods\fennel.jpg	1	3	1	fennel	1	Z	18	0	47	0		0	0	114.2688114997	114.368841100018
25774.5	0.0999837000854313	337	satiated	stimuli/non_foods\non-food_animate_dolphin.jpg	1	3	1	non-food_animate_dolphin	0	M	9	0	106	0		0	0	114.418804700021	114.518788400106
25812	0.0999865001067519	338	satiated	stimuli/non_foods\non-food_inanimate_soccer_ball.jpg	1	3	1	non-food_inanimate_soccer_ball	0	R	12	0	210	0		0	0	114.568800299894	114.668786800001
25849.5	0.0999833000823855	339	satiated	stimuli/foods\salami.jpg	1	3	1	salami	1	L	8	0	263	0		0	0	114.718800900038	114.818784200121
25887	0.0999869997613132	340	satiated	stimuli/non_foods\non-food_inanimate_horn.jpg	1	3	1	non-food_inanimate_horn	0	P	11	0	190	0		0	0	114.86879940005	114.968786399812
25924.5	0.0999878998845816	341	satiated	stimuli/foods\bagel.jpg	1	3	1	bagel	1	C	1	0	6	0		0	0	115.018795399927	115.118783299811
25962	0.0999857001006603	342	satiated	stimuli/non_foods\non-food_inanimate_hammer.jpg	1	3	1	non-food_inanimate_hammer	0	N	10	0	186	0		0	0	115.168799299747	115.268784999847
25999.5	0.100008300039917	343	satiated	stimuli/non_foods\non-food_inanimate_suitcase.jpg	1	3	1	non-food_inanimate_suitcase	0	Z	18	0	215	0		0	0	115.318767999765	115.418776299804
26037	0.0999753000214696	344	satiated	stimuli/foods\hotdog.jpg	1	3	1	hotdog	1	G	4	0	67	0		0	0	115.46878980007	115.568765100092
26074.5	0.0999754997901618	345	satiated	stimuli/non_foods\non-food_inanimate_lighter.jpg	1	3	1	non-food_inanimate_lighter	0	N	10	0	193	0		0	0	115.6187907001	115.718766199891
26112	0.0999866998754442	346	satiated	stimuli/foods\pickles.jpg	1	3	1	pickles	1	D	2	0	242	0		0	0	115.768786999863	115.868773699738
26149.5	0.0999838002026081	347	satiated	stimuli/non_foods\non-food_inanimate_button.jpg	1	3	1	non-food_inanimate_button	0	B	0	0	168	0		0	0	115.918790899683	116.018774699885
26187	0.0999992997385561	348	satiated	stimuli/foods\potatoes.jpg	1	3	1	potatoes	1	T	14	0	248	0		0	0	116.0687837	116.168782999739
26224.5	0.0999806998297572	349	satiated	stimuli/non_foods\non-food_inanimate_pine_cone.jpg	1	3	1	non-food_inanimate_pine_cone	0	R	12	0	200	0		0	0	116.218778599985	116.318759299815
26262	0.0999843999743462	350	satiated	stimuli/non_foods\non-food_animate_lizard.jpg	1	3	1	non-food_animate_lizard	0	D	2	0	126	0		0	0	116.368782700039	116.468767100014
26299.5	0.0999859003350139	351	satiated	stimuli/foods\baked_lamb_with_potatoes.jpg	1	3	1	baked_lamb_with_potatoes	1	X	17	0	8	0		0	0	116.518778899685	116.61876480002
26337	0.0999921998009086	352	satiated	stimuli/foods\avocado.jpg	1	3	1	avocado	1	Z	18	0	5	0		0	0	116.668771000113	116.768763199914
26374.5	0.0999849000945687	353	satiated	stimuli/non_foods\non-food_animate_polar_bear.jpg	1	3	1	non-food_animate_polar_bear	0	X	17	0	137	0		0	0	116.818777299952	116.918762200046
26412	0.099984799977392	354	satiated	stimuli/non_foods\non-food_animate_woman.jpg	1	3	1	non-food_animate_woman	0	V	15	0	154	0		0	0	116.968771100044	117.068755900022
26449.5	0.100005299784243	355	satiated	stimuli/foods\carrot.jpg	1	3	1	carrot	1	B	0	0	19	0		0	0	117.11877280008	117.218778099865
26487	0.0999773000366986	356	satiated	stimuli/non_foods\non-food_animate_owl.jpg	1	3	1	non-food_animate_owl	0	C	1	0	132	0		0	0	117.268772299867	117.368749599904
26524.5	0.099997699726373	357	satiated	stimuli/foods\banana.jpg	1	3	1	banana	1	Z	18	0	9	0		0	0	117.418769299984	117.51876699971
26562	0.0999849000945687	358	satiated	stimuli/foods\linguine_with_clams.jpg	1	3	1	linguine_with_clams	1	W	16	0	77	0		0	0	117.568767999765	117.668752899859
26599.5	0.0999855999834836	359	satiated	stimuli/foods\roasted_chicken.jpg	1	3	1	roasted_chicken	1	L	8	0	261	0		0	0	117.718766000122	117.818751600105
26637	0.0999851003289223	360	satiated	stimuli/non_foods\non-food_animate_young_boy.jpg	1	3	1	non-food_animate_young_boy	0	N	10	0	156	0		0	0	117.86878919974	117.968774300069
26674.5	0.0999837997369468	361	satiated	stimuli/non_foods\non-food_inanimate_teddy_bear.jpg	1	3	1	non-food_inanimate_teddy_bear	0	S	13	0	218	0		0	0	118.018755299971	118.118739099707
26712	0.0999841000884771	362	satiated	stimuli/foods\chocolate_bar.jpg	1	3	1	chocolate_bar	1	Z	18	0	26	0		0	0	118.168752799742	118.26873689983
26749.5	0.0999922999180853	363	satiated	stimuli/foods\papaya.jpg	1	3	1	papaya	1	H	5	0	235	0		0	0	118.318754899781	118.418747199699
26787	0.100011900067329	364	satiated	stimuli/foods\hazelnuts.jpg	1	3	1	hazelnuts	1	F	3	0	65	0		0	0	118.468729199842	118.568741099909
26824.5	0.0999873001128435	365	satiated	stimuli/non_foods\non-food_inanimate_toilet.jpg	1	3	1	non-food_inanimate_toilet	0	Z	18	0	220	0		0	0	118.618756699841	118.718743999954
26862	0.0999865997582674	366	satiated	stimuli/non_foods\non-food_inanimate_wrench.jpg	1	3	1	non-food_inanimate_wrench	0	K	7	0	227	0		0	0	118.768753000069	118.868739599828
26899.75	0.0999640999361873	367	satiated	stimuli/non_foods\non-food_animate_dragonfly.jpg	1	3	1	non-food_animate_dragonfly	0	B	0	0	108	0		0	0	118.918771099765	119.018735199701
26937	0.0999866998754442	368	satiated	stimuli/foods\grapes.jpg	1	3	1	grapes	1	W	16	0	60	0		0	0	119.06874909997	119.168735799845
26974.5	0.09998539974913	369	satiated	stimuli/non_foods\non-food_inanimate_leaf.jpg	1	3	1	non-food_inanimate_leaf	0	F	3	0	192	0		0	0	119.218748399988	119.318733799737
27012	0.0999714001081884	370	satiated	stimuli/non_foods\non-food_animate_elephant.jpg	1	3	1	non-food_animate_elephant	0	M	9	0	111	0		0	0	119.368748399895	119.468719800003
27049.5	0.100011200178415	371	satiated	stimuli/non_foods\non-food_inanimate_canoe.jpg	1	3	1	non-food_inanimate_canoe	0	K	7	0	170	0		0	0	119.518719899934	119.618731100112
27087	0.0999631001614034	372	satiated	stimuli/non_foods\non-food_inanimate_waterlily.jpg	1	3	1	non-food_inanimate_waterlily	0	N	10	0	226	0		0	0	119.668763499707	119.768726599868
27124.5	0.0999823003076017	373	satiated	stimuli/non_foods\non-food_inanimate_towel.jpg	1	3	1	non-food_inanimate_towel	0	S	13	0	221	0		0	0	119.818745699711	119.918728000019
27162	0.0999919003807008	374	satiated	stimuli/non_foods\non-food_animate_parrot.jpg	1	3	1	non-food_animate_parrot	0	U	23	1	133	0		0	0	119.968732699752	120.068724600133
27199.5	0.0999874002300203	375	satiated	stimuli/foods\lasagna.jpg	1	3	1	lasagna	1	H	5	0	71	0		0	0	120.118737999815	120.218725400046
27237	0.0999887003563344	376	satiated	stimuli/foods\capsicum.jpg	1	3	1	capsicum	1	M	9	0	18	0		0	0	120.268726099748	120.368714800104
27274.5	0.0999869997613132	377	satiated	stimuli/foods\red_beans.jpg	1	3	1	red_beans	1	W	16	0	255	0		0	0	120.418724900112	120.518711899873
27312	0.0999870002269745	378	satiated	stimuli/non_foods\non-food_animate_snail.jpg	1	3	1	non-food_animate_snail	0	K	7	0	149	0		0	0	120.568726299796	120.668713300023
27349.5	0.0999712003394961	379	satiated	stimuli/non_foods\non-food_inanimate_short_sleeved_shirt.jpg	1	3	1	non-food_inanimate_short_sleeved_shirt	0	W	16	0	207	0		0	0	120.71873509977	120.81870630011
27387	0.0999894998967648	380	satiated	stimuli/non_foods\non-food_inanimate_nest.jpg	1	3	1	non-food_inanimate_nest	0	R	12	0	196	1	a	0.99182470003143	1	120.868718199898	120.968707699794
27424.5	0.100002499762923	381	satiated	stimuli/foods\onion.jpg	1	3	1	onion	1	V	15	0	229	0		0	0	121.018723899964	121.118726399727
27462	0.0999871999956667	382	satiated	stimuli/non_foods\non-food_animate_penguin.jpg	1	3	1	non-food_animate_penguin	0	L	8	0	135	0		0	0	121.168716799933	121.268703999929
27499.5	0.10002230014652	383	satiated	stimuli/foods\pineapple.jpg	1	3	1	pineapple	1	B	0	0	243	0		0	0	121.318715099711	121.418737399857
27537	0.0999723002314568	384	satiated	stimuli/foods\museli_bars.jpg	1	3	1	museli_bars	1	K	7	0	84	0		0	0	121.468739099801	121.568711400032
27574.5	0.0999537999741733	385	satiated	stimuli/foods\gnocchi.jpg	1	3	1	gnocchi	1	G	4	0	58	0		0	0	121.618724099826	121.7186778998
27612	0.0999769996851683	386	satiated	stimuli/non_foods\non-food_inanimate_bamboo.jpg	1	3	1	non-food_inanimate_bamboo	0	N	10	0	159	0		0	0	121.768719200045	121.86869619973
27649.5	0.099983099848032	387	satiated	stimuli/foods\ice_cream.jpg	1	3	1	ice_cream	1	V	15	0	68	0		0	0	121.918720699847	122.018703799695
27687	0.0999843999743462	388	satiated	stimuli/foods\stew_with_potatoes_and_carrots.jpg	1	3	1	stew_with_potatoes_and_carrots	1	L	8	0	271	0		0	0	122.068716399837	122.168700799812
27724.5	0.0999859999865294	389	satiated	stimuli/foods\mandarin.jpg	1	3	1	mandarin	1	H	5	0	79	0		0	0	122.218715299852	122.318701299839
27762	0.0999827003106475	390	satiated	stimuli/foods\cauliflower.jpg	1	3	1	cauliflower	1	C	1	0	20	0		0	0	122.368712099735	122.468694800045
27799.5	0.0999650000594556	391	satiated	stimuli/foods\beetroots.jpg	1	3	1	beetroots	1	T	14	0	10	0		0	0	122.518730499782	122.618695499841
27837	0.0999857997521758	392	satiated	stimuli/foods\fried_zucchini.jpg	1	3	1	fried_zucchini	1	L	8	0	51	0		0	0	122.668707800098	122.76869359985
27874.5	0.0999889997765422	393	satiated	stimuli/foods\lemon_meringue_pie.jpg	1	3	1	lemon_meringue_pie	1	W	16	0	73	0		0	0	122.81870630011	122.918695299886
27912	0.0999806001782417	394	satiated	stimuli/non_foods\non-food_inanimate_chair.jpg	1	3	1	non-food_inanimate_chair	0	V	15	0	172	0		0	0	122.968704099767	123.068684699945
27949.5	0.100023600272834	395	satiated	stimuli/non_foods\non-food_animate_baby_crawling.jpg	1	3	1	non-food_animate_baby_crawling	0	T	14	0	92	0		0	0	123.118708199821	123.218731800094
27987	0.0999676999635994	396	satiated	stimuli/foods\brie.jpg	1	3	1	brie	1	N	10	0	12	0		0	0	123.268719899934	123.368687599897
28024.5	0.0999894998967648	397	satiated	stimuli/non_foods\non-food_animate_monkey.jpg	1	3	1	non-food_animate_monkey	0	V	15	0	130	0		0	0	123.418703800067	123.518693299964
28062	0.100001000333577	398	satiated	stimuli/foods\frankfurter_and_provolone_salad.jpg	1	3	1	frankfurter_and_provolone_salad	1	W	16	0	49	0		0	0	123.56867699977	123.668678000104
28099.5	0.0999851999804378	399	satiated	stimuli/non_foods\non-food_inanimate_bowling_ball.jpg	1	3	1	non-food_inanimate_bowling_ball	0	G	4	0	162	0		0	0	123.718689899892	123.818675099872
28137	0.099997699726373	400	satiated	stimuli/non_foods\non-food_inanimate_couch.jpg	1	3	1	non-food_inanimate_couch	0	M	9	0	176	0		0	0	123.868688500021	123.968686199747
28174.5	0.0999477999284863	401	satiated	stimuli/non_foods\non-food_inanimate_padlock.jpg	1	3	1	non-food_inanimate_padlock	0	H	5	0	199	0		0	0	124.018697800115	124.118645600043
28212	0.0999779999256134	402	satiated	stimuli/foods\potato_chips.jpg	1	3	1	potato_chips	1	V	15	0	247	0		0	0	124.168691100087	124.268669100013
28249.5	0.0999735002405941	403	satiated	stimuli/foods\coffee_beans.jpg	1	3	1	coffee_beans	1	N	10	0	34	0		0	0	124.318701999728	124.418675499968
28287	0.0999857997521758	404	satiated	stimuli/non_foods\non-food_inanimate_highlighter.jpg	1	3	1	non-food_inanimate_highlighter	0	I	21	1	189	0		0	0	124.468688399997	124.568674199749
28324.5	0.0999848996289074	405	satiated	stimuli/non_foods\non-food_animate_cow.jpg	1	3	1	non-food_animate_cow	0	N	10	0	103	0		0	0	124.618687800132	124.718672699761
28362	0.0999841997399926	406	satiated	stimuli/non_foods\non-food_animate_yellow_bug.jpg	1	3	1	non-food_animate_yellow_bug	0	K	7	0	155	0		0	0	124.768685900141	124.868670099881
28399.5	0.100000299979001	407	satiated	stimuli/non_foods\non-food_animate_duck.jpg	1	3	1	non-food_animate_duck	0	C	1	0	109	0		0	0	124.918690599967	125.018690899946
28437	0.0999623001553118	408	satiated	stimuli/non_foods\non-food_animate_caterpillar.jpg	1	3	1	non-food_animate_caterpillar	0	V	15	0	99	0		0	0	125.068702499848	125.168664800003
28474.5	0.0999892000108957	409	satiated	stimuli/non_foods\non-food_animate_eagle.jpg	1	3	1	non-food_animate_eagle	0	B	0	0	110	0		0	0	125.218675700016	125.318664900027
28512	0.099985099863261	410	satiated	stimuli/foods\cooked_prawn.jpg	1	3	1	cooked_prawn	1	N	10	0	36	0		0	0	125.368677299935	125.468662399799
28549.5	0.0999851999804378	411	satiated	stimuli/non_foods\non-food_inanimate_briefcase.jpg	1	3	1	non-food_inanimate_briefcase	0	C	1	0	163	0		0	0	125.518675500061	125.618660700042
28587	0.0999855003319681	412	satiated	stimuli/foods\pumpkin.jpg	1	3	1	pumpkin	1	P	11	0	250	0		0	0	125.668673299719	125.768658800051
28624.5	0.0999819999560714	413	satiated	stimuli/non_foods\non-food_animate_clown.jpg	1	3	1	non-food_animate_clown	0	F	3	0	102	0		0	0	125.81867349986	125.918655499816
28662	0.0999918999150395	414	satiated	stimuli/non_foods\non-food_inanimate_cupboard.jpg	1	3	1	non-food_inanimate_cupboard	0	B	0	0	177	0		0	0	125.968667299952	126.068659199867
28699.5	0.0999831003136933	415	satiated	stimuli/non_foods\non-food_inanimate_bed.jpg	1	3	1	non-food_inanimate_bed	0	Z	18	0	160	0		0	0	126.118670799769	126.218653900083
28737	0.0999873001128435	416	satiated	stimuli/non_foods\non-food_animate_ram.jpg	1	3	1	non-food_animate_ram	0	L	8	0	140	0		0	0	126.268664299976	126.368651600089
28774.5	0.0999865997582674	417	satiated	stimuli/foods\blackberry.jpg	1	3	1	blackberry	1	N	10	0	11	0		0	0	126.418663199991	126.518649799749
28812	0.0999791999347508	418	satiated	stimuli/non_foods\non-food_animate_alligator.jpg	1	3	1	non-food_animate_alligator	0	B	0	0	90	0		0	0	126.568659699988	126.668638899922
28849.5	0.100008400157094	419	satiated	stimuli/foods\pork_and_rice.jpg	1	3	1	pork_and_rice	1	T	14	0	245	0		0	0	126.718662699685	126.818671099842
29570.5	0.0999779002740979	420	satiated	stimuli/non_foods\non-food_inanimate_buds.jpg	1	4	1	non-food_inanimate_buds	0	J	6	0	166	0		0	0	129.601968099829	129.701946000103
29608	0.0999849997460842	421	satiated	stimuli/non_foods\non-food_animate_dachshund.jpg	1	4	1	non-food_animate_dachshund	0	V	15	0	104	0		0	0	129.751960800029	129.851945799775
29645.5	0.0999674000777304	422	satiated	stimuli/foods\lollies.jpg	1	4	1	lollies	1	C	1	0	78	0		0	0	129.901949599851	130.001916999929
29683	0.0999844996258616	423	satiated	stimuli/foods\cannoli.jpg	1	4	1	cannoli	1	H	5	0	17	0		0	0	130.051951100118	130.151935599744
29720.5	0.0999866998754442	424	satiated	stimuli/non_foods\non-food_inanimate_protractor.jpg	1	4	1	non-food_inanimate_protractor	0	F	3	0	201	0		0	0	130.201955699828	130.301942399703
29758	0.100019200239331	425	satiated	stimuli/foods\cucumber.jpg	1	4	1	cucumber	1	N	10	0	41	0		0	0	130.351925199851	130.451944400091
29795.5	0.0999780003912747	426	satiated	stimuli/foods\chocolate_pralines.jpg	1	4	1	chocolate_pralines	1	M	9	0	28	0		0	0	130.501961699687	130.601939700078
29833	0.0999600999057293	427	satiated	stimuli/foods\donut.jpg	1	4	1	donut	1	V	15	0	44	0		0	0	130.651950600091	130.751910699997
29870.5	0.0999561999924481	428	satiated	stimuli/non_foods\non-food_inanimate_chandelier.jpg	1	4	1	non-food_inanimate_chandelier	0	N	10	0	173	0		0	0	130.801971899811	130.901928099804
29908	0.0999801997095346	429	satiated	stimuli/non_foods\non-food_animate_butterfly.jpg	1	4	1	non-food_animate_butterfly	0	S	13	0	96	0		0	0	130.951944400091	131.0519245998
29945.5	0.0999825997278094	430	satiated	stimuli/non_foods\non-food_inanimate_bucket.jpg	1	4	1	non-food_inanimate_bucket	0	D	2	0	165	0		0	0	131.101936900057	131.201919499785
29983	0.100011200178415	431	satiated	stimuli/non_foods\non-food_animate_Asian_man.jpg	1	4	1	non-food_animate_Asian_man	0	N	10	0	88	0		0	0	131.251920799725	131.351931999903
30020.5	0.0999859003350139	432	satiated	stimuli/non_foods\non-food_inanimate_watering_can.jpg	1	4	1	non-food_inanimate_watering_can	0	S	13	0	225	0		0	0	131.401940799784	131.501926700119
30058	0.0999851999804378	433	satiated	stimuli/foods\cinnamon.jpg	1	4	1	cinnamon	1	J	6	0	30	0		0	0	131.55193849979	131.65192369977
30095.5	0.0999769000336528	434	satiated	stimuli/foods\clams.jpg	1	4	1	clams	1	T	14	0	32	0		0	0	131.701935799792	131.801912699826
30133	0.0999600002542138	435	satiated	stimuli/non_foods\non-food_animate_peacock.jpg	1	4	1	non-food_animate_peacock	0	L	8	0	134	0		0	0	131.851963299792	131.951923300046
30170.5	0.0999757000245154	436	satiated	stimuli/foods\grapefruits.jpg	1	4	1	grapefruits	1	X	17	0	59	0		0	0	132.001936299726	132.101911999751
30208	0.0999777996912599	437	satiated	stimuli/foods\pasta_carbonara.jpg	1	4	1	pasta_carbonara	1	R	12	0	236	0		0	0	132.151932700071	132.251910499763
30245.5	0.0999811999499798	438	satiated	stimuli/non_foods\non-food_inanimate_grass.jpg	1	4	1	non-food_inanimate_grass	0	Z	18	0	184	0		0	0	132.301928400062	132.401909600012
30283	0.0999714001081884	439	satiated	stimuli/foods\oregano.jpg	1	4	1	oregano	1	C	1	0	231	0		0	0	132.451922999695	132.551894399803
30320.5	0.099965900182724	440	satiated	stimuli/foods\ginger_root.jpg	1	4	1	ginger_root	1	S	13	0	57	0		0	0	132.60193979973	132.701905699912
30358	0.0999600999057293	441	satiated	stimuli/non_foods\non-food_animate_horse.jpg	1	4	1	non-food_animate_horse	0	Z	18	0	119	0		0	0	132.751931199804	132.85189129971
30395.5	0.0999826998449862	442	satiated	stimuli/foods\pea_pod.jpg	1	4	1	pea_pod	1	M	9	0	237	0		0	0	132.901916400064	133.001899099909
30433	0.0999937001615763	443	satiated	stimuli/foods\cream_donuts.jpg	1	4	1	cream_donuts	1	J	6	0	39	0		0	0	133.051914799958	133.15190850012
30470.5	0.0999862002208829	444	satiated	stimuli/non_foods\non-food_inanimate_folding_chair.jpg	1	4	1	non-food_inanimate_folding_chair	0	X	17	0	182	0		0	0	133.2019214998	133.301907700021
30508	0.0999832996167243	445	satiated	stimuli/non_foods\non-food_animate_swan.jpg	1	4	1	non-food_animate_swan	0	J	6	0	152	0		0	0	133.351917500142	133.451900799759
30545.5	0.0999891003593802	446	satiated	stimuli/foods\figs.jpg	1	4	1	figs	1	C	1	0	48	0		0	0	133.501906099729	133.601895200089
30583	0.0999892000108957	447	satiated	stimuli/foods\hamburger.jpg	1	4	1	hamburger	1	X	17	0	64	0		0	0	133.651916899718	133.751906099729
30620.5	0.0999837997369468	448	satiated	stimuli/foods\pepperoni_pizza.jpg	1	4	1	pepperoni_pizza	1	P	11	0	241	0		0	0	133.801904600114	133.901888399851
30658	0.0999830001965165	449	satiated	stimuli/foods\risotto_with_zucchini.jpg	1	4	1	risotto_with_zucchini	1	F	3	0	260	0		0	0	133.951908699702	134.051891699899
30695.5	0.099982799962163	450	satiated	stimuli/foods\salmon.jpg	1	4	1	salmon	1	L	8	0	264	0		0	0	134.10190619994	134.201888999902
30733	0.100010999944061	451	satiated	stimuli/non_foods\non-food_animate_green_bug.jpg	1	4	1	non-food_animate_green_bug	0	J	6	0	118	0		0	0	134.251899300143	134.351910300087
30770.5	0.0999632002785802	452	satiated	stimuli/foods\cupcake.jpg	1	4	1	cupcake	1	H	5	0	42	0		0	0	134.401919299737	134.501882500015
30808	0.0999865001067519	453	satiated	stimuli/foods\cabbage.jpg	1	4	1	cabbage	1	Z	18	0	16	0		0	0	134.551896899939	134.651883400045
30845.5	0.0999775002710521	454	satiated	stimuli/non_foods\non-food_animate_iguana.jpg	1	4	1	non-food_animate_iguana	0	N	10	0	121	0		0	0	134.701888099778	134.801865600049
30883	0.0999858002178371	455	satiated	stimuli/non_foods\non-food_animate_slug.jpg	1	4	1	non-food_animate_slug	0	S	13	0	148	0		0	0	134.851894899737	134.951880699955
30920.5	0.0999940000474453	456	satiated	stimuli/foods\potato_and_green_bean_salad.jpg	1	4	1	potato_and_green_bean_salad	1	P	11	0	246	0		0	0	135.001893499866	135.101887499914
30958	0.100001499988139	457	satiated	stimuli/foods\coconut.jpg	1	4	1	coconut	1	G	4	0	33	0		0	0	135.151883299928	135.251884799916
30995.5	0.0999842002056539	458	satiated	stimuli/foods\rockmelon.jpg	1	4	1	rockmelon	1	M	9	0	262	0		0	0	135.301896299701	135.401880499907
31033	0.0999865997582674	459	satiated	stimuli/non_foods\non-food_animate_chicken.jpg	1	4	1	non-food_animate_chicken	0	P	11	0	101	0		0	0	135.451892700046	135.551879299805
31070.5	0.0999809997156262	460	satiated	stimuli/foods\lettuce.jpg	1	4	1	lettuce	1	X	17	0	75	0		0	0	135.601896800101	135.701877799816
31108	0.0999902002513409	461	satiated	stimuli/foods\dates.jpg	1	4	1	dates	1	J	6	0	43	0		0	0	135.751887899823	135.851878100075
31145.5	0.0999811999499798	462	satiated	stimuli/non_foods\non-food_animate_kangaroo.jpg	1	4	1	non-food_animate_kangaroo	0	R	12	0	122	0		0	0	135.901889699977	136.001870899927
31183	0.0999867999926209	463	satiated	stimuli/non_foods\non-food_animate_skunk.jpg	1	4	1	non-food_animate_skunk	0	S	13	0	147	0		0	0	136.051884999964	136.151871799957
31220.5	0.0999654000625014	464	satiated	stimuli/foods\cooked_ham.jpg	1	4	1	cooked_ham	1	L	8	0	35	0		0	0	136.201896799728	136.301862199791
31258	0.0999853000976145	465	satiated	stimuli/non_foods\non-food_animate_millipede.jpg	1	4	1	non-food_animate_millipede	0	W	16	0	129	0		0	0	136.351878699847	136.451863999944
31295.5	0.0999907003715634	466	satiated	stimuli/non_foods\non-food_animate_cat.jpg	1	4	1	non-food_animate_cat	0	X	17	0	98	0		0	0	136.501871099696	136.601861800067
31333	0.0999838998541236	467	satiated	stimuli/foods\cracker.jpg	1	4	1	cracker	1	C	1	0	38	0		0	0	136.651875399984	136.751859299839
31370.5	0.0999859999865294	468	satiated	stimuli/non_foods\non-food_inanimate_fire_extinguisher.jpg	1	4	1	non-food_inanimate_fire_extinguisher	0	V	15	0	181	0		0	0	136.801869200077	136.901855200063
31408	0.0999822998419404	469	satiated	stimuli/non_foods\non-food_inanimate_guitar.jpg	1	4	1	non-food_inanimate_guitar	0	G	4	0	185	0		0	0	136.951872400008	137.05185469985
31445.5	0.0999896000139415	470	satiated	stimuli/non_foods\non-food_inanimate_toy_airplane.jpg	1	4	1	non-food_inanimate_toy_airplane	0	R	12	0	222	0		0	0	137.101865000091	137.201854600105
31483	0.0999864996410906	471	satiated	stimuli/foods\rice.jpg	1	4	1	rice	1	G	4	0	257	0		0	0	137.251867900137	137.351854399778
31520.5	0.099982799962163	472	satiated	stimuli/non_foods\non-food_inanimate_gloves.jpg	1	4	1	non-food_inanimate_gloves	0	C	1	0	183	0		0	0	137.401865299791	137.501848099753
31558	0.0999839003197849	473	satiated	stimuli/foods\savory_pie.jpg	1	4	1	savory_pie	1	G	4	0	265	0		0	0	137.551863799803	137.651847700123
31595.5	0.0999866998754442	474	satiated	stimuli/foods\oyster.jpg	1	4	1	oyster	1	J	6	0	233	0		0	0	137.701862500049	137.801849199925
31633	0.0999892000108957	475	satiated	stimuli/foods\rice_cake.jpg	1	4	1	rice_cake	1	G	4	0	258	0		0	0	137.8518594997	137.951848699711
31670.5	0.0999622000381351	476	satiated	stimuli/foods\eggplant.jpg	1	4	1	eggplant	1	K	7	0	46	0		0	0	138.001877999865	138.101840199903
31708	0.0999898998998106	477	satiated	stimuli/foods\meatballs.jpg	1	4	1	meatballs	1	S	13	0	81	0		0	0	138.151853399817	138.251843299717
31745.5	0.0999839999713004	478	satiated	stimuli/non_foods\non-food_animate_gorilla.jpg	1	4	1	non-food_animate_gorilla	0	D	2	0	116	0		0	0	138.301856500097	138.401840500068
31783	0.0999877997674048	479	satiated	stimuli/non_foods\non-food_animate_grasshopper.jpg	1	4	1	non-food_animate_grasshopper	0	B	0	0	117	0		0	0	138.451850499958	138.551838299725
31820.5	0.0999855999834836	480	satiated	stimuli/foods\green_olives.jpg	1	4	1	green_olives	1	T	14	0	62	0		0	0	138.601850899868	138.701836499851
31858	0.099984799977392	481	satiated	stimuli/non_foods\non-food_inanimate_tree.jpg	1	4	1	non-food_inanimate_tree	0	C	1	0	223	0		0	0	138.751850700006	138.851835499983
31895.5	0.099984799977392	482	satiated	stimuli/foods\cherry.jpg	1	4	1	cherry	1	S	13	0	23	0		0	0	138.901848699898	139.001833499875
31933	0.0999849000945687	483	satiated	stimuli/non_foods\non-food_animate_german_shepherd.jpg	1	4	1	non-food_animate_german_shepherd	0	H	5	0	114	0		0	0	139.051844100002	139.151829000097
31970.5	0.100040799938142	484	satiated	stimuli/foods\smoked_ham.jpg	1	4	1	smoked_ham	1	O	22	1	266	0		0	0	139.201843999792	139.30188479973
32008	0.0999877001158893	485	satiated	stimuli/non_foods\non-food_animate_ladybug.jpg	1	4	1	non-food_animate_ladybug	0	B	0	0	124	0		0	0	139.351850499865	139.451838199981
32045.5	0.099978500045836	486	satiated	stimuli/foods\spinach.jpg	1	4	1	spinach	1	G	4	0	268	1	a	0.402102699968964	1	139.501847399864	139.60182589991
32083	0.0999821997247636	487	satiated	stimuli/foods\celery.jpg	1	4	1	celery	1	K	7	0	21	0		0	0	139.651843599975	139.7518257997
32120.5	0.0999608999118209	488	satiated	stimuli/foods\lime.jpg	1	4	1	lime	1	B	0	0	76	0		0	0	139.801843299996	139.901804199908
32158	0.0999782001599669	489	satiated	stimuli/non_foods\non-food_animate_lion.jpg	1	4	1	non-food_animate_lion	0	Z	18	0	125	0		0	0	139.951838799752	140.051816999912
32195.5	0.10000120010227	490	satiated	stimuli/foods\tomato.jpg	1	4	1	tomato	1	X	17	0	276	0		0	0	140.101826199796	140.201827399898
32233	0.0999924000352621	491	satiated	stimuli/non_foods\non-food_animate_tortoise.jpg	1	4	1	non-food_animate_tortoise	0	S	13	0	153	0		0	0	140.251823099796	140.351815499831
32270.5	0.0999853000976145	492	satiated	stimuli/foods\croissant.jpg	1	4	1	croissant	1	G	4	0	40	0		0	0	140.401837300044	140.501822600141
32308	0.0999866998754442	493	satiated	stimuli/foods\cereal.jpg	1	4	1	cereal	1	D	2	0	22	0		0	0	140.551834200043	140.651820899919
32345.5	0.0999889001250267	494	satiated	stimuli/foods\chilli.jpg	1	4	1	chilli	1	V	15	0	25	0		0	0	140.701829799917	140.801818700042
32383	0.0999743998982012	495	satiated	stimuli/non_foods\non-food_inanimate_drum_set.jpg	1	4	1	non-food_inanimate_drum_set	0	P	11	0	179	0		0	0	140.851835200097	140.951809599996
32420.5	0.0999841000884771	496	satiated	stimuli/non_foods\non-food_animate_killer_whale.jpg	1	4	1	non-food_animate_killer_whale	0	W	16	0	123	0		0	0	141.001825199928	141.101809300017
32458	0.0999835003167391	497	satiated	stimuli/foods\pear.jpg	1	4	1	pear	1	P	11	0	239	0		0	0	141.151822799817	141.251806300133
32495.5	0.0999869997613132	498	satiated	stimuli/foods\pancakes.jpg	1	4	1	pancakes	1	R	12	0	234	0		0	0	141.30182059994	141.401807599701
32533	0.0999695002101362	499	satiated	stimuli/non_foods\non-food_inanimate_table.jpg	1	4	1	non-food_inanimate_table	0	Z	18	0	217	0		0	0	141.451835199725	141.551804699935
32570.5	0.0999842998571694	500	satiated	stimuli/foods\chocolate_chip_cookies.jpg	1	4	1	chocolate_chip_cookies	1	M	9	0	27	0		0	0	141.601825499907	141.701809799764
32608	0.0999888000078499	501	satiated	stimuli/foods\strawberry.jpg	1	4	1	strawberry	1	P	11	0	272	0		0	0	141.751820900012	141.85180970002
32645.5	0.0999857001006603	502	satiated	stimuli/non_foods\non-food_inanimate_stapler.jpg	1	4	1	non-food_inanimate_stapler	0	L	8	0	213	0		0	0	141.901818099897	142.001803799998
32683	0.0999767002649605	503	satiated	stimuli/foods\brownie.jpg	1	4	1	brownie	1	G	4	0	14	0		0	0	142.051818799693	142.151795499958
32720.5	0.0999837000854313	504	satiated	stimuli/non_foods\non-food_animate_bee.jpg	1	4	1	non-food_animate_bee	0	J	6	0	95	0		0	0	142.20180879999	142.301792500075
32758	0.0999884000048041	505	satiated	stimuli/non_foods\non-food_animate_raccoon.jpg	1	4	1	non-food_animate_raccoon	0	N	10	0	139	0		0	0	142.351805400103	142.451793800108
32795.5	0.0999851999804378	506	satiated	stimuli/foods\lentils.jpg	1	4	1	lentils	1	C	1	0	74	0		0	0	142.501815599855	142.601800799835
32833	0.0999590996652842	507	satiated	stimuli/non_foods\non-food_inanimate_sun_flower.jpg	1	4	1	non-food_inanimate_sun_flower	0	G	4	0	216	0		0	0	142.651814700104	142.75177379977
32870.5	0.0999843999743462	508	satiated	stimuli/non_foods\non-food_inanimate_skateboard.jpg	1	4	1	non-food_inanimate_skateboard	0	D	2	0	208	0		0	0	142.801812699996	142.90179709997
32908	0.0999927003867924	509	satiated	stimuli/non_foods\non-food_inanimate_speakers.jpg	1	4	1	non-food_inanimate_speakers	0	L	8	0	212	0		0	0	142.951798999682	143.051791700069
32945.5	0.0999591997824609	510	satiated	stimuli/foods\nectarine.jpg	1	4	1	nectarine	1	J	6	0	87	0		0	0	143.101797299925	143.201756499708
32983	0.100007399916649	511	satiated	stimuli/non_foods\non-food_animate_Causasian_man.jpg	1	4	1	non-food_animate_Causasian_man	0	D	2	0	89	0		0	0	143.251811400056	143.351818799973
33020.5	0.0999908996745944	512	satiated	stimuli/non_foods\non-food_animate_student_female.jpg	1	4	1	non-food_animate_student_female	0	R	12	0	151	0		0	0	143.401794400066	143.501785299741
33058	0.0999894002452493	513	satiated	stimuli/non_foods\non-food_inanimate_cactus_pot_plant.jpg	1	4	1	non-food_inanimate_cactus_pot_plant	0	H	5	0	169	0		0	0	143.551796199754	143.651785599999
33095.5	0.0999853000976145	514	satiated	stimuli/foods\waffle.jpg	1	4	1	waffle	1	S	13	0	278	0		0	0	143.701798299793	143.801783599891
33133	0.0999867999926209	515	satiated	stimuli/foods\fruit_salad.jpg	1	4	1	fruit_salad	1	N	10	0	55	0		0	0	143.851796200033	143.951783000026
33170.5	0.0999878998845816	516	satiated	stimuli/non_foods\non-food_animate_camel.jpg	1	4	1	non-food_animate_camel	0	Z	18	0	97	0		0	0	144.00179790007	144.101785799954
33208	0.0999843999743462	517	satiated	stimuli/foods\peach.jpg	1	4	1	peach	1	G	4	0	238	0		0	0	144.151793200057	144.251777600031
33245.5	0.0999916000291705	518	satiated	stimuli/foods\mortadella.jpg	1	4	1	mortadella	1	H	5	0	83	0		0	0	144.30178879993	144.40178039996
33283	0.0999862998723984	519	satiated	stimuli/non_foods\non-food_inanimate_shell.jpg	1	4	1	non-food_inanimate_shell	0	T	14	0	206	0		0	0	144.451790499967	144.551776799839
33320.5	0.0999857997521758	520	satiated	stimuli/foods\omelette.jpg	1	4	1	omelette	1	C	1	0	228	0		0	0	144.601787900086	144.701773699839
33358	0.0999889997765422	521	satiated	stimuli/non_foods\non-food_inanimate_orchid.jpg	1	4	1	non-food_inanimate_orchid	0	N	10	0	198	0		0	0	144.75178920012	144.851778199896
33395.5	0.0999880000017583	522	satiated	stimuli/non_foods\non-food_inanimate_fern.jpg	1	4	1	non-food_inanimate_fern	0	P	11	0	180	0		0	0	144.901783700101	145.001771700103
33433	0.0999493999406695	523	satiated	stimuli/foods\swordfish.jpg	1	4	1	swordfish	1	W	16	0	273	0		0	0	145.051818300039	145.151767699979
33470.5	0.0999607001431286	524	satiated	stimuli/foods\radish.jpg	1	4	1	radish	1	M	9	0	251	0		0	0	145.201795899775	145.301756599918
33508	0.0999857001006603	525	satiated	stimuli/non_foods\non-food_inanimate_ring.jpg	1	4	1	non-food_inanimate_ring	0	H	5	0	203	0		0	0	145.351778999902	145.451764700003
33545.5	0.0999901997856796	526	satiated	stimuli/non_foods\non-food_inanimate_broom.jpg	1	4	1	non-food_inanimate_broom	0	J	6	0	164	0		0	0	145.501778699923	145.601768899709
33583	0.0999845000915229	527	satiated	stimuli/non_foods\non-food_animate_bat.jpg	1	4	1	non-food_animate_bat	0	G	4	0	94	0		0	0	145.651777099818	145.75176159991
33620.5	0.0999975996091962	528	satiated	stimuli/foods\brussel_sprouts.jpg	1	4	1	brussel_sprouts	1	F	3	0	15	0		0	0	145.801766300108	145.901763899717
33658	0.0999803002923727	529	satiated	stimuli/non_foods\non-food_inanimate_nettle.jpg	1	4	1	non-food_inanimate_nettle	0	H	5	0	197	0		0	0	145.951776399743	146.051756700035
33695.5	0.0999970003031194	530	satiated	stimuli/foods\watermelon.jpg	1	4	1	watermelon	1	F	3	0	279	0		0	0	146.101770899724	146.201767900027
33733	0.0999839999713004	531	satiated	stimuli/foods\minestrone_soup.jpg	1	4	1	minestrone_soup	1	P	11	0	82	0		0	0	146.25177379977	146.351757799741
33770.5	0.0999738001264632	532	satiated	stimuli/foods\toasted_bread_with_tomatoes.jpg	1	4	1	toasted_bread_with_tomatoes	1	J	6	0	275	0		0	0	146.401767499745	146.501741299871
33808	0.0999874002300203	533	satiated	stimuli/non_foods\non-food_animate_young_girl.jpg	1	4	1	non-food_animate_young_girl	0	U	23	1	157	0		0	0	146.551765299868	146.651752700098
33845.5	0.0999961001798511	534	satiated	stimuli/non_foods\non-food_animate_pigeon.jpg	1	4	1	non-food_animate_pigeon	0	L	8	0	136	0		0	0	146.701758699957	146.801754800137
33883	0.0999606000259519	535	satiated	stimuli/foods\fried_calamari.jpg	1	4	1	fried_calamari	1	M	9	0	50	0		0	0	146.851785399951	146.951745999977
33920.5	0.0999885997734964	536	satiated	stimuli/non_foods\non-food_inanimate_jeans.jpg	1	4	1	non-food_inanimate_jeans	0	B	0	0	191	1	a	0.550180099904537	1	147.001760200132	147.101748799905
33958	0.0999822998419404	537	satiated	stimuli/foods\green_beans.jpg	1	4	1	green_beans	1	N	10	0	61	0		0	0	147.151761400048	147.25174369989
33995.5	0.0999822998419404	538	satiated	stimuli/foods\steak.jpg	1	4	1	steak	1	F	3	0	270	0		0	0	147.301760199945	147.401742499787
34033	0.099987699650228	539	satiated	stimuli/non_foods\non-food_animate_mouse.jpg	1	4	1	non-food_animate_mouse	0	V	15	0	131	0		0	0	147.451758000068	147.551745699719
34070.5	0.0999695998616517	540	satiated	stimuli/non_foods\non-food_inanimate_cap.jpg	1	4	1	non-food_inanimate_cap	0	R	12	0	171	0		0	0	147.601754799951	147.701724399813
34108	0.0999733996577561	541	satiated	stimuli/non_foods\non-food_inanimate_clover.jpg	1	4	1	non-food_inanimate_clover	0	S	13	0	174	0		0	0	147.751756600104	147.851729999762
34145.5	0.100007699802518	542	satiated	stimuli/foods\mussels.jpg	1	4	1	mussels	1	L	8	0	86	0		0	0	147.901745900046	148.001753599849
34183	0.0999813000671566	543	satiated	stimuli/foods\spring_onions.jpg	1	4	1	spring_onions	1	Z	18	0	269	0		0	0	148.051745200064	148.151726500131
34220.5	0.099989099893719	544	satiated	stimuli/foods\red_cabbage.jpg	1	4	1	red_cabbage	1	G	4	0	256	0		0	0	148.201740799937	148.301729899831
34258	0.0999773000366986	545	satiated	stimuli/non_foods\non-food_animate_seal.jpg	1	4	1	non-food_animate_seal	0	V	15	0	146	0		0	0	148.351744799875	148.451722099911
34295.5	0.100004300009459	546	satiated	stimuli/foods\mango.jpg	1	4	1	mango	1	T	14	0	80	0		0	0	148.501737699844	148.601741999853
34333	0.0999201997183263	547	satiated	stimuli/non_foods\non-food_animate_squirrel.jpg	1	4	1	non-food_animate_squirrel	0	P	11	0	150	0		0	0	148.651783700101	148.751703899819
34370.5	0.0999869001097977	548	satiated	stimuli/foods\apricot.jpg	1	4	1	apricot	1	N	10	0	2	0		0	0	148.801739899907	148.901726800017
34408	0.0999886998906732	549	satiated	stimuli/non_foods\non-food_inanimate_nailpolish.jpg	1	4	1	non-food_inanimate_nailpolish	0	M	9	0	195	0		0	0	148.951737099793	149.051725799683
34445.5	0.0999815003015101	550	satiated	stimuli/foods\oven-roasted_tomatoes.jpg	1	4	1	oven-roasted_tomatoes	1	L	8	0	232	0		0	0	149.101739899721	149.201721400023
34483	0.0999886998906732	551	satiated	stimuli/non_foods\non-food_animate_rhino.jpg	1	4	1	non-food_animate_rhino	0	C	1	0	141	0		0	0	149.251734199934	149.351722899824
34520.5	0.099976500030607	552	satiated	stimuli/non_foods\non-food_inanimate_headphones.jpg	1	4	1	non-food_inanimate_headphones	0	L	8	0	188	0		0	0	149.401734099723	149.501710599754
34558	0.0999877001158893	553	satiated	stimuli/foods\chestnut.jpg	1	4	1	chestnut	1	B	0	0	24	0		0	0	149.551730799954	149.65171850007
34595.5	0.0999853000976145	554	satiated	stimuli/foods\broccoli.jpg	1	4	1	broccoli	1	X	17	0	13	0		0	0	149.701730399858	149.801715699956
34633	0.0999841000884771	555	satiated	stimuli/non_foods\non-food_inanimate_tulip.jpg	1	4	1	non-food_inanimate_tulip	0	V	15	0	224	0		0	0	149.851729699876	149.951713799965
34670.5	0.0999885001219809	556	satiated	stimuli/foods\asparagus.jpg	1	4	1	asparagus	1	F	3	0	4	0		0	0	150.001718699932	150.101707200054
34708	0.0999900000169873	557	satiated	stimuli/foods\fruit_pie.jpg	1	4	1	fruit_pie	1	P	11	0	54	0		0	0	150.151720799971	150.251710799988
34745.5	0.100006599910557	558	satiated	stimuli/foods\almonds.jpg	1	4	1	almonds	1	C	1	0	0	0		0	0	150.301721999887	150.401728599798
34783	0.0999475996941328	559	satiated	stimuli/foods\garlic.jpg	1	4	1	garlic	1	K	7	0	56	0		0	0	150.451762000099	150.551709599793
36799.5	0.0999748995527625	560	satiated	stimuli/non_foods\non-food_inanimate_cupboard.jpg	1	5	1	non-food_inanimate_cupboard	0	C	1	0	177	0		0	0	158.518319100142	158.618293999694
36837	0.0999857997521758	561	satiated	stimuli/foods\pasta_carbonara.jpg	1	5	1	pasta_carbonara	1	J	6	0	236	0		0	0	158.668296100106	158.768281899858
36874.5	0.0999837000854313	562	satiated	stimuli/foods\chocolate_pudding.jpg	1	5	1	chocolate_pudding	1	X	17	0	29	0		0	0	158.818296100013	158.918279800098
36912	0.0999891003593802	563	satiated	stimuli/foods\garlic.jpg	1	5	1	garlic	1	M	9	0	56	0		0	0	158.968291599769	159.068280700129
36949.5	0.0999841000884771	564	satiated	stimuli/non_foods\non-food_animate_Asian_man.jpg	1	5	1	non-food_animate_Asian_man	0	C	1	0	88	0		0	0	159.118291699793	159.218275799882
36987	0.0999858998693526	565	satiated	stimuli/foods\orange.jpg	1	5	1	orange	1	J	6	0	230	0		0	0	159.268288400024	159.368274299894
37024.5	0.0999794998206198	566	satiated	stimuli/non_foods\non-food_animate_baby_crawling.jpg	1	5	1	non-food_animate_baby_crawling	0	R	12	0	92	0		0	0	159.418287999928	159.518267499749
37062	0.100004700012505	567	satiated	stimuli/foods\lamb_chops.jpg	1	5	1	lamb_chops	1	P	11	0	70	0		0	0	159.568287099712	159.668291799724
37099.5	0.0999871999956667	568	satiated	stimuli/non_foods\non-food_inanimate_leaf.jpg	1	5	1	non-food_inanimate_leaf	0	C	1	0	192	0		0	0	159.718289699871	159.818276899867
37137	0.0999841000884771	569	satiated	stimuli/non_foods\non-food_animate_seal.jpg	1	5	1	non-food_animate_seal	0	W	16	0	146	0		0	0	159.868285899982	159.96827000007
37174.5	0.0999851999804378	570	satiated	stimuli/non_foods\non-food_inanimate_moss.jpg	1	5	1	non-food_inanimate_moss	0	G	4	0	194	0		0	0	160.018280299846	160.118265499827
37212	0.0999926999211311	571	satiated	stimuli/foods\honey.jpg	1	5	1	honey	1	K	7	0	66	0		0	0	160.168279299978	160.268271999899
37249.5	0.0999706001020968	572	satiated	stimuli/foods\radish.jpg	1	5	1	radish	1	P	11	0	251	0		0	0	160.31828999985	160.418260599952
37287	0.0999900000169873	573	satiated	stimuli/foods\pea_pod.jpg	1	5	1	pea_pod	1	B	0	0	237	0		0	0	160.46827520011	160.568265200127
37324.5	0.0999826998449862	574	satiated	stimuli/non_foods\non-food_inanimate_jeans.jpg	1	5	1	non-food_inanimate_jeans	0	S	13	0	191	0		0	0	160.618285899982	160.718268599827
37362	0.099989099893719	575	satiated	stimuli/foods\coconut.jpg	1	5	1	coconut	1	X	17	0	33	0		0	0	160.768270900007	160.868259999901
37399.5	0.0999864996410906	576	satiated	stimuli/foods\lime.jpg	1	5	1	lime	1	Z	18	0	76	0		0	0	160.918270300142	161.018256799784
37437	0.0999821000732481	577	satiated	stimuli/non_foods\non-food_inanimate_nest.jpg	1	5	1	non-food_inanimate_nest	0	N	10	0	196	0		0	0	161.068272799719	161.168254899792
37474.5	0.0999861997552216	578	satiated	stimuli/foods\risotto_with_peas_and_asparagus_tips.jpg	1	5	1	risotto_with_peas_and_asparagus_tips	1	W	16	0	259	0		0	0	161.218265600037	161.318251799792
37512	0.100001000333577	579	satiated	stimuli/foods\bagel.jpg	1	5	1	bagel	1	N	10	0	6	0		0	0	161.368244399782	161.468245400116
37549.5	0.0999789000488818	580	satiated	stimuli/non_foods\non-food_animate_runner.jpg	1	5	1	non-food_animate_runner	0	F	3	0	142	0		0	0	161.518253199756	161.618232099805
37587	0.099985099863261	581	satiated	stimuli/non_foods\non-food_inanimate_nailpolish.jpg	1	5	1	non-food_inanimate_nailpolish	0	T	14	0	195	0		0	0	161.668264599983	161.768249699846
37624.5	0.0999875999987125	582	satiated	stimuli/non_foods\non-food_animate_young_girl.jpg	1	5	1	non-food_animate_young_girl	0	C	1	0	157	0		0	0	161.818254699931	161.918242299929
37662	0.0999852996319532	583	satiated	stimuli/non_foods\non-food_animate_swan.jpg	1	5	1	non-food_animate_swan	0	O	22	1	152	0		0	0	161.968256500084	162.068241799716
37699.5	0.0999358003027737	584	satiated	stimuli/foods\mortadella.jpg	1	5	1	mortadella	1	H	5	0	83	0		0	0	162.118298799731	162.218234600034
37737	0.0999643998220563	585	satiated	stimuli/foods\red_cabbage.jpg	1	5	1	red_cabbage	1	W	16	0	256	0		0	0	162.268259299919	162.368223699741
37774.5	0.0999849000945687	586	satiated	stimuli/foods\pear.jpg	1	5	1	pear	1	J	6	0	239	0		0	0	162.418255299795	162.51824019989
37812	0.0999858002178371	587	satiated	stimuli/non_foods\non-food_inanimate_soccer_ball.jpg	1	5	1	non-food_inanimate_soccer_ball	0	G	4	0	210	1	a	0.593410399742424	1	162.568254899699	162.668240699917
37849.5	0.0999884000048041	588	satiated	stimuli/foods\peas.jpg	1	5	1	peas	1	T	14	0	240	0		0	0	162.718247999903	162.818236399908
37887	0.0999877001158893	589	satiated	stimuli/foods\kiwi.jpg	1	5	1	kiwi	1	J	6	0	69	0		0	0	162.868249199819	162.968236899935
37924.5	0.0999837000854313	590	satiated	stimuli/non_foods\non-food_animate_gorilla.jpg	1	5	1	non-food_animate_gorilla	0	V	15	0	116	0		0	0	163.018248099834	163.118231799919
37962	0.0999817000702024	591	satiated	stimuli/foods\avocado.jpg	1	5	1	avocado	1	Z	18	0	5	0		0	0	163.168242999818	163.268224699888
37999.5	0.0999708999879658	592	satiated	stimuli/foods\salami.jpg	1	5	1	salami	1	G	4	0	263	0		0	0	163.318255299702	163.41822619969
38037	0.0999892996624112	593	satiated	stimuli/non_foods\non-food_animate_donkey.jpg	1	5	1	non-food_animate_donkey	0	F	3	0	107	0		0	0	163.46823070012	163.568219999783
38074.5	0.099978500045836	594	satiated	stimuli/foods\risotto_with_zucchini.jpg	1	5	1	risotto_with_zucchini	1	T	14	0	260	0		0	0	163.618233999703	163.718212499749
38112	0.100012700073421	595	satiated	stimuli/foods\smoked_ham.jpg	1	5	1	smoked_ham	1	C	1	0	266	0		0	0	163.768239399884	163.868252099957
38149.5	0.0999647998251021	596	satiated	stimuli/foods\lemon_meringue_pie.jpg	1	5	1	lemon_meringue_pie	1	F	3	0	73	0		0	0	163.918249399867	164.018214199692
38187	0.0999827003106475	597	satiated	stimuli/non_foods\non-food_inanimate_broom.jpg	1	5	1	non-food_inanimate_broom	0	V	15	0	164	0		0	0	164.068232699763	164.168215400074
38224.5	0.100004400126636	598	satiated	stimuli/foods\figs.jpg	1	5	1	figs	1	S	13	0	48	0		0	0	164.218215399887	164.318219800014
38262	0.0999886002391577	599	satiated	stimuli/non_foods\non-food_animate_elephant.jpg	1	5	1	non-food_animate_elephant	0	D	2	0	111	0		0	0	164.368230199907	164.468218800146
38299.5	0.0999869001097977	600	satiated	stimuli/foods\chocolate_pralines.jpg	1	5	1	chocolate_pralines	1	X	17	0	28	0		0	0	164.51823149994	164.61821840005
38337	0.0999595997855067	601	satiated	stimuli/foods\chilli.jpg	1	5	1	chilli	1	Z	18	0	25	0		0	0	164.668229300063	164.768188899849
38374.5	0.099985099863261	602	satiated	stimuli/non_foods\non-food_inanimate_fire_extinguisher.jpg	1	5	1	non-food_inanimate_fire_extinguisher	0	C	1	0	181	0		0	0	164.818227599841	164.918212699704
38412	0.0999684003181756	603	satiated	stimuli/foods\donut.jpg	1	5	1	donut	1	T	14	0	44	1	a	0	0	164.968244699761	165.068213100079
38449.5	0.0999854002147913	604	satiated	stimuli/non_foods\non-food_animate_seahorse.jpg	1	5	1	non-food_animate_seahorse	0	V	15	0	145	0		0	0	165.118223299738	165.218208699953
38487	0.0999837000854313	605	satiated	stimuli/foods\pineapple.jpg	1	5	1	pineapple	1	C	1	0	243	0		0	0	165.268220199738	165.368203899823
38524.5	0.0999797000549734	606	satiated	stimuli/non_foods\non-food_inanimate_short_sleeved_shirt.jpg	1	5	1	non-food_inanimate_short_sleeved_shirt	0	J	6	0	207	0		0	0	165.418227099814	165.518206799868
38562	0.10001299995929	607	satiated	stimuli/non_foods\non-food_animate_frog.jpg	1	5	1	non-food_animate_frog	0	M	9	0	113	0		0	0	165.568232600112	165.668245600071
38599.5	0.0999711998738348	608	satiated	stimuli/foods\rice.jpg	1	5	1	rice	1	J	6	0	257	0		0	0	165.718231500126	165.8182027
38637	0.0999869997613132	609	satiated	stimuli/foods\pork_and_rice.jpg	1	5	1	pork_and_rice	1	M	9	0	245	0		0	0	165.868212900124	165.968199899886
38674.5	0.0999969998374581	610	satiated	stimuli/non_foods\non-food_animate_camel.jpg	1	5	1	non-food_animate_camel	0	J	6	0	97	0		0	0	166.018202899955	166.118199899793
38712	0.0999822998419404	611	satiated	stimuli/foods\beetroots.jpg	1	5	1	beetroots	1	W	16	0	10	0		0	0	166.16821620008	166.268198499922
38749.5	0.0999875999987125	612	satiated	stimuli/foods\cooked_prawn.jpg	1	5	1	cooked_prawn	1	K	7	0	36	0		0	0	166.318209199701	166.418196799699
38787	0.0999827003106475	613	satiated	stimuli/foods\chestnut.jpg	1	5	1	chestnut	1	T	14	0	24	0		0	0	166.468209299725	166.568192000035
38824.5	0.0999865997582674	614	satiated	stimuli/foods\fruit_salad.jpg	1	5	1	fruit_salad	1	J	6	0	55	0		0	0	166.618205999956	166.718192599714
38862	0.0999961001798511	615	satiated	stimuli/non_foods\non-food_animate_mouse.jpg	1	5	1	non-food_animate_mouse	0	F	3	0	131	0		0	0	166.768207499757	166.868203599937
38899.5	0.09995949966833	616	satiated	stimuli/non_foods\non-food_inanimate_protractor.jpg	1	5	1	non-food_inanimate_protractor	0	W	16	0	201	0		0	0	166.918209000025	167.018168499693
38937	0.100000000093132	617	satiated	stimuli/foods\fennel.jpg	1	5	1	fennel	1	P	11	0	47	0		0	0	167.068185799755	167.168185799848
38974.5	0.0999865001067519	618	satiated	stimuli/non_foods\non-food_animate_tortoise.jpg	1	5	1	non-food_animate_tortoise	0	B	0	0	153	0		0	0	167.218199199997	167.318185700104
39012	0.10000229999423	619	satiated	stimuli/non_foods\non-food_animate_cheetah.jpg	1	5	1	non-food_animate_cheetah	0	P	11	0	100	0		0	0	167.368210500106	167.4682128001
39049.5	0.0999803002923727	620	satiated	stimuli/non_foods\non-food_animate_horse.jpg	1	5	1	non-food_animate_horse	0	R	12	0	119	0		0	0	167.51820039982	167.618180700112
39087	0.0999716999940574	621	satiated	stimuli/foods\ice_cream.jpg	1	5	1	ice_cream	1	I	21	1	68	0		0	0	167.668201399967	167.768173099961
39124.5	0.0999835999682546	622	satiated	stimuli/foods\cabbage.jpg	1	5	1	cabbage	1	N	10	0	16	0		0	0	167.818193200044	167.918176800013
39162	0.0999853000976145	623	satiated	stimuli/foods\celery.jpg	1	5	1	celery	1	H	5	0	21	0		0	0	167.968191499822	168.068176799919
39199.5	0.0999875003471971	624	satiated	stimuli/non_foods\non-food_inanimate_construction_helment.jpg	1	5	1	non-food_inanimate_construction_helment	0	V	15	0	175	0		0	0	168.118188299704	168.218175800052
39237	0.0999846998602152	625	satiated	stimuli/non_foods\non-food_inanimate_highlighter.jpg	1	5	1	non-food_inanimate_highlighter	0	J	6	0	189	0		0	0	168.268187699839	168.3681723997
39274.5	0.0999889001250267	626	satiated	stimuli/non_foods\non-food_animate_green_bug.jpg	1	5	1	non-food_animate_green_bug	0	V	15	0	118	0		0	0	168.418187299743	168.518176199868
39312	0.0999481999315321	627	satiated	stimuli/non_foods\non-food_inanimate_stoplight.jpg	1	5	1	non-food_inanimate_stoplight	0	H	5	0	214	0		0	0	168.568197099958	168.668145299889
39349.5	0.0999914999119937	628	satiated	stimuli/foods\cauliflower.jpg	1	5	1	cauliflower	1	J	6	0	20	0		0	0	168.718172300141	168.818163800053
39387	0.100001799874008	629	satiated	stimuli/non_foods\non-food_inanimate_stapler.jpg	1	5	1	non-food_inanimate_stapler	0	L	8	0	213	0		0	0	168.868165899999	168.968167699873
39424.5	0.09998709987849	630	satiated	stimuli/foods\rice_cake.jpg	1	5	1	rice_cake	1	D	2	0	258	0		0	0	169.018178700004	169.118165799882
39462	0.100003200117499	631	satiated	stimuli/foods\green_beans.jpg	1	5	1	green_beans	1	B	0	0	61	0		0	0	169.168181799818	169.268184999935
39499.5	0.0999552998691797	632	satiated	stimuli/non_foods\non-food_animate_chicken.jpg	1	5	1	non-food_animate_chicken	0	D	2	0	101	0		0	0	169.318204199895	169.418159499764
39537	0.099999999627471	633	satiated	stimuli/non_foods\non-food_animate_polar_bear.jpg	1	5	1	non-food_animate_polar_bear	0	W	16	0	137	0		0	0	169.468151200097	169.568151199725
39574.5	0.0999758001416922	634	satiated	stimuli/non_foods\non-food_inanimate_waterlily.jpg	1	5	1	non-food_inanimate_waterlily	0	C	1	0	226	0		0	0	169.618164599873	169.718140400015
39612	0.100002100225538	635	satiated	stimuli/foods\grilled_chicken_breast.jpg	1	5	1	grilled_chicken_breast	1	H	5	0	63	0		0	0	169.76815589983	169.868158000056
39649.5	0.0999850002117455	636	satiated	stimuli/non_foods\non-food_animate_bat.jpg	1	5	1	non-food_animate_bat	0	P	11	0	94	0		0	0	169.91817069985	170.018155700061
39687	0.0999940000474453	637	satiated	stimuli/non_foods\non-food_animate_student_female.jpg	1	5	1	non-food_animate_student_female	0	N	10	0	151	0		0	0	170.068159800023	170.16815380007
39724.5	0.0999990999698639	638	satiated	stimuli/non_foods\non-food_inanimate_canoe.jpg	1	5	1	non-food_inanimate_canoe	0	H	5	0	170	0		0	0	170.218168399762	170.318167499732
39762	0.0999863999895751	639	satiated	stimuli/non_foods\non-food_animate_fox.jpg	1	5	1	non-food_animate_fox	0	T	14	0	112	0		0	0	170.368164499756	170.468150899746
39799.5	0.0999862998723984	640	satiated	stimuli/foods\meatballs.jpg	1	5	1	meatballs	1	X	17	0	81	0		0	0	170.518162399996	170.618148699868
