onset	duration	eventnumber	hunger_condition	stimfilename	blockno	trialno	is_faststream	stim	food_idx	letter	letter_idx	istarget	image_number	response	keypressed	rt	correct	time_stimon	time_stimoff
12239.75	0.099979099817574	0	hunger	stimuli/foods\hotdog.jpg	1	1	1	hotdog	1	S	13	0	67	0		0	0	59.6060452000238	59.7060242998414
12277.25	0.100036399904639	1	hunger	stimuli/foods\salmon.jpg	1	1	1	salmon	1	R	12	0	264	0		0	0	59.7560383002274	59.856074700132
12314.75	0.0999990003183484	2	hunger	stimuli/non_foods\non-food_animate_bat.jpg	1	1	1	non-food_animate_bat	0	X	17	0	94	0		0	0	59.9060181998648	60.0060172001831
12352.25	0.0999819999560714	3	hunger	stimuli/non_foods\non-food_animate_porcupine.jpg	1	1	1	non-food_animate_porcupine	0	G	4	0	138	0		0	0	60.0560349998996	60.1560169998556
12389.75	0.0999834998510778	4	hunger	stimuli/foods\rice_cake.jpg	1	1	1	rice_cake	1	L	8	0	258	0		0	0	60.2060418999754	60.3060253998265
12427.25	0.0999845997430384	5	hunger	stimuli/foods\cucumber.jpg	1	1	1	cucumber	1	J	6	0	41	0		0	0	60.3560286001302	60.4560131998733
12464.75	0.0999851999804378	6	hunger	stimuli/foods\hamburger.jpg	1	1	1	hamburger	1	T	14	0	64	0		0	0	60.506027800031	60.6060130000114
12502.25	0.0999800995923579	7	hunger	stimuli/non_foods\non-food_inanimate_bowling_ball.jpg	1	1	1	non-food_inanimate_bowling_ball	0	N	10	0	162	0		0	0	60.6560288001783	60.7560088997707
12539.75	0.0999931003898382	8	hunger	stimuli/foods\celery.jpg	1	1	1	celery	1	D	2	0	21	0		0	0	60.8060257998295	60.9060189002194
12577.25	0.0999690997414291	9	hunger	stimuli/non_foods\non-food_animate_cow.jpg	1	1	1	non-food_animate_cow	0	G	4	0	103	0		0	0	60.9560413002037	61.0560103999451
12614.75	0.0999839999713004	10	hunger	stimuli/non_foods\non-food_inanimate_skateboard.jpg	1	1	1	non-food_inanimate_skateboard	0	N	10	0	208	0		0	0	61.1060211998411	61.2060051998124
12652.25	0.0999692999757826	11	hunger	stimuli/foods\ice_cream.jpg	1	1	1	ice_cream	1	C	1	0	68	0		0	0	61.2560184001923	61.355987700168
12689.75	0.0999851003289223	12	hunger	stimuli/foods\bagel.jpg	1	1	1	bagel	1	L	8	0	6	0		0	0	61.4060181998648	61.5060033001937
12727.5	0.0997450002469122	13	hunger	stimuli/foods\lamb_chops.jpg	1	1	1	lamb_chops	1	X	17	0	70	0		0	0	61.5562582998537	61.6560033001006
12764.75	0.0999987996183336	14	hunger	stimuli/foods\smoked_ham.jpg	1	1	1	smoked_ham	1	C	1	0	266	0		0	0	61.705988000147	61.8059867997654
12802.25	0.0999814001843333	15	hunger	stimuli/foods\brussel_sprouts.jpg	1	1	1	brussel_sprouts	1	F	3	0	15	0		0	0	61.8560037999414	61.9559852001257
12839.75	0.0999493999406695	16	hunger	stimuli/non_foods\non-food_animate_millipede.jpg	1	1	1	non-food_animate_millipede	0	K	7	0	129	0		0	0	62.0060597001575	62.1060091000982
12877.25	0.099980500061065	17	hunger	stimuli/non_foods\non-food_animate_baby_crawling.jpg	1	1	1	non-food_animate_baby_crawling	0	M	9	0	92	0		0	0	62.1560122999363	62.2559927999973
12914.75	0.0999818001873791	18	hunger	stimuli/non_foods\non-food_animate_cat.jpg	1	1	1	non-food_animate_cat	0	B	0	0	98	0		0	0	62.3060059999116	62.405987800099
12952.25	0.0999972000718117	19	hunger	stimuli/foods\red_beans.jpg	1	1	1	red_beans	1	J	6	0	255	0		0	0	62.4560035001487	62.5560007002205
12989.75	0.100011399947107	20	hunger	stimuli/foods\minestrone_soup.jpg	1	1	1	minestrone_soup	1	S	13	0	82	0		0	0	62.6060061999597	62.7060175999068
13027.25	0.0999711002223194	21	hunger	stimuli/foods\clams.jpg	1	1	1	clams	1	Z	18	0	32	0		0	0	62.7560125999153	62.8559837001376
13064.75	0.099968200083822	22	hunger	stimuli/non_foods\non-food_animate_runner.jpg	1	1	1	non-food_animate_runner	0	H	5	0	142	0		0	0	62.9060006998479	63.0059688999318
13102.25	0.0999854998663068	23	hunger	stimuli/non_foods\non-food_animate_yellow_bug.jpg	1	1	1	non-food_animate_yellow_bug	0	X	17	0	155	0		0	0	63.0559940999374	63.1559795998037
13139.75	0.0999823999591172	24	hunger	stimuli/non_foods\non-food_inanimate_nettle.jpg	1	1	1	non-food_inanimate_nettle	0	R	12	0	197	0		0	0	63.2059964998625	63.3059788998216
13177.25	0.0999627998098731	25	hunger	stimuli/foods\spring_onions.jpg	1	1	1	spring_onions	1	W	16	0	269	0		0	0	63.3559922999702	63.4559550997801
13214.75	0.0999941001646221	26	hunger	stimuli/non_foods\non-food_animate_green_bug.jpg	1	1	1	non-food_animate_green_bug	0	I	21	1	118	0		0	0	63.5059846998192	63.6059787999839
13252.25	0.0999822998419404	27	hunger	stimuli/non_foods\non-food_inanimate_cupboard.jpg	1	1	1	non-food_inanimate_cupboard	0	N	10	0	177	0		0	0	63.6559929000214	63.7559751998633
13289.75	0.100007200147957	28	hunger	stimuli/non_foods\non-food_inanimate_toilet.jpg	1	1	1	non-food_inanimate_toilet	0	V	15	0	220	0		0	0	63.8059613998048	63.9059685999528
13327.25	0.0999869001097977	29	hunger	stimuli/foods\lentils.jpg	1	1	1	lentils	1	C	1	0	74	0		0	0	63.9559848997742	64.055971799884
13364.75	0.0999817000702024	30	hunger	stimuli/non_foods\non-food_inanimate_table.jpg	1	1	1	non-food_inanimate_table	0	V	15	0	217	0		0	0	64.1059865998104	64.2059682998806
13402.25	0.0999912996776402	31	hunger	stimuli/foods\mandarin.jpg	1	1	1	mandarin	1	F	3	0	79	0		0	0	64.2559790001251	64.3559702998027
13439.75	0.0999843999743462	32	hunger	stimuli/non_foods\non-food_animate_horse.jpg	1	1	1	non-food_animate_horse	0	G	4	0	119	0		0	0	64.405998500064	64.5059829000384
13477.25	0.0999356997199357	33	hunger	stimuli/non_foods\non-food_inanimate_leaf.jpg	1	1	1	non-food_inanimate_leaf	0	D	2	0	192	0		0	0	64.5560280000791	64.655963699799
13514.75	0.099984799977392	34	hunger	stimuli/non_foods\non-food_inanimate_soccer_ball.jpg	1	1	1	non-food_inanimate_soccer_ball	0	C	1	0	210	0		0	0	64.7059768000618	64.8059616000392
13552.25	0.0999818998388946	35	hunger	stimuli/foods\spaghetti_with_meat_sauce.jpg	1	1	1	spaghetti_with_meat_sauce	1	N	10	0	267	0		0	0	64.855977000203	64.9559589000419
13589.75	0.099984799977392	36	hunger	stimuli/foods\frankfurter_and_provolone_salad.jpg	1	1	1	frankfurter_and_provolone_salad	1	S	13	0	49	0		0	0	65.0059719001874	65.1059567001648
13627.25	0.0999794998206198	37	hunger	stimuli/foods\taco.jpg	1	1	1	taco	1	F	3	0	274	0		0	0	65.1559763001278	65.2559557999484
13664.75	0.0999839999713004	38	hunger	stimuli/foods\papaya.jpg	1	1	1	papaya	1	C	1	0	235	0		0	0	65.3059696001001	65.4059536000714
13702.25	0.100010700058192	39	hunger	stimuli/non_foods\non-food_inanimate_skirt.jpg	1	1	1	non-food_inanimate_skirt	0	P	11	0	209	0		0	0	65.4559679999948	65.5559787000529
13739.75	0.0999663998372853	40	hunger	stimuli/foods\cracker.jpg	1	1	1	cracker	1	S	13	0	38	0		0	0	65.6059852000326	65.7059515998699
13777.25	0.0999822001904249	41	hunger	stimuli/foods\kiwi.jpg	1	1	1	kiwi	1	T	14	0	69	0		0	0	65.7559644998983	65.8559467000887
13814.75	0.0999818998388946	42	hunger	stimuli/foods\roasted_chicken.jpg	1	1	1	roasted_chicken	1	F	3	0	261	0		0	0	65.9059672001749	66.0059491000138
13852.25	0.0999712003394961	43	hunger	stimuli/foods\raisins.jpg	1	1	1	raisins	1	N	10	0	252	0		0	0	66.0559589997865	66.155930200126
13889.75	0.0999399996362627	44	hunger	stimuli/non_foods\non-food_animate_bee.jpg	1	1	1	non-food_animate_bee	0	V	15	0	95	0		0	0	66.2059920001775	66.3059319998138
13927.25	0.0999668999575078	45	hunger	stimuli/non_foods\non-food_inanimate_towel.jpg	1	1	1	non-food_inanimate_towel	0	N	10	0	221	0		0	0	66.3559761000797	66.4559430000372
13964.75	0.0999877001158893	46	hunger	stimuli/non_foods\non-food_animate_Causasian_man.jpg	1	1	1	non-food_animate_Causasian_man	0	X	17	0	89	0		0	0	66.5059491000138	66.6059368001297
14002.25	0.0999862002208829	47	hunger	stimuli/non_foods\non-food_inanimate_teddy_bear.jpg	1	1	1	non-food_inanimate_teddy_bear	0	W	16	0	218	0		0	0	66.6559538999572	66.7559401001781
14039.75	0.0999880000017583	48	hunger	stimuli/non_foods\non-food_inanimate_tree.jpg	1	1	1	non-food_inanimate_tree	0	T	14	0	223	0		0	0	66.8059507999569	66.9059387999587
14077.25	0.0999791999347508	49	hunger	stimuli/non_foods\non-food_animate_chicken.jpg	1	1	1	non-food_animate_chicken	0	S	13	0	101	0		0	0	66.955948700197	67.0559279001318
14114.75	0.0999867999926209	50	hunger	stimuli/foods\chocolate_pralines.jpg	1	1	1	chocolate_pralines	1	P	11	0	28	0		0	0	67.1059409999289	67.2059277999215
14152.25	0.0999992997385561	51	hunger	stimuli/foods\risotto_with_zucchini.jpg	1	1	1	risotto_with_zucchini	1	X	17	0	260	0		0	0	67.2559400000609	67.3559392997995
14189.75	0.0999918999150395	52	hunger	stimuli/non_foods\non-food_animate_ladybug.jpg	1	1	1	non-food_animate_ladybug	0	C	1	0	124	0		0	0	67.4059426002204	67.5059345001355
14227.25	0.0999846998602152	53	hunger	stimuli/foods\chilli.jpg	1	1	1	chilli	1	N	10	0	25	0		0	0	67.5559469000436	67.6559315999039
14264.75	0.0999846998602152	54	hunger	stimuli/non_foods\non-food_inanimate_nest.jpg	1	1	1	non-food_inanimate_nest	0	K	7	0	196	0		0	0	67.7059430000372	67.8059276998974
14302.25	0.10001549962908	55	hunger	stimuli/foods\raw_sausage.jpg	1	1	1	raw_sausage	1	P	11	0	254	0		0	0	67.8559142001905	67.9559296998195
14339.75	0.0999630996957421	56	hunger	stimuli/foods\grapes.jpg	1	1	1	grapes	1	N	10	0	60	0		0	0	68.005957600195	68.1059206998907
14377.25	0.0999851003289223	57	hunger	stimuli/foods\baked_cod_with_carrots_and_green_beans.jpg	1	1	1	baked_cod_with_carrots_and_green_beans	1	X	17	0	7	0		0	0	68.155934699811	68.25591980014
14414.75	0.0999850002117455	58	hunger	stimuli/non_foods\non-food_animate_squirrel.jpg	1	1	1	non-food_animate_squirrel	0	H	5	0	150	0		0	0	68.3059367998503	68.4059218000621
14452.25	0.0999835999682546	59	hunger	stimuli/foods\linguine_with_clams.jpg	1	1	1	linguine_with_clams	1	W	16	0	77	0		0	0	68.4559309999458	68.5559145999141
14489.75	0.0999860996380448	60	hunger	stimuli/foods\wafer.jpg	1	1	1	wafer	1	S	13	0	277	0		0	0	68.6059301001951	68.7059161998332
14527.25	0.0999817997217178	61	hunger	stimuli/foods\fried_calamari.jpg	1	1	1	fried_calamari	1	B	0	0	50	0		0	0	68.7559302002192	68.8559119999409
14564.75	0.0999878002330661	62	hunger	stimuli/non_foods\non-food_inanimate_cap.jpg	1	1	1	non-food_inanimate_cap	0	P	11	0	171	0		0	0	68.9059248999692	69.0059127002023
14602.25	0.0999885997734964	63	hunger	stimuli/foods\lasagna.jpg	1	1	1	lasagna	1	J	6	0	71	0		0	0	69.0559259001166	69.1559144998901
14639.75	0.0999851999804378	64	hunger	stimuli/non_foods\non-food_inanimate_nailpolish.jpg	1	1	1	non-food_inanimate_nailpolish	0	L	8	0	195	0		0	0	69.2059217998758	69.3059069998562
14677.25	0.0999880000017583	65	hunger	stimuli/non_foods\non-food_animate_deer.jpg	1	1	1	non-food_animate_deer	0	G	4	0	105	0		0	0	69.3559179999866	69.4559059999883
14714.75	0.0999839003197849	66	hunger	stimuli/non_foods\non-food_animate_raccoon.jpg	1	1	1	non-food_animate_raccoon	0	R	12	0	139	0		0	0	69.5059230998158	69.6059070001356
14752.25	0.1000099000521	67	hunger	stimuli/foods\swordfish.jpg	1	1	1	swordfish	1	W	16	0	273	0		0	0	69.6559191998094	69.7559290998615
14789.75	0.0999623001553118	68	hunger	stimuli/non_foods\non-food_inanimate_hay.jpg	1	1	1	non-food_inanimate_hay	0	B	0	0	187	0		0	0	69.8059421000071	69.9059044001624
14827.25	0.0999842998571694	69	hunger	stimuli/non_foods\non-food_animate_seal.jpg	1	1	1	non-food_animate_seal	0	V	15	0	146	0		0	0	69.9559138999321	70.0558981997892
14864.75	0.0999871999956667	70	hunger	stimuli/non_foods\non-food_animate_skunk.jpg	1	1	1	non-food_animate_skunk	0	G	4	0	147	0		0	0	70.1059118001722	70.2058990001678
14902.25	0.0999860996380448	71	hunger	stimuli/foods\broccoli.jpg	1	1	1	broccoli	1	U	23	1	13	0		0	0	70.2559111001901	70.3558971998282
14939.75	0.0999862002208829	72	hunger	stimuli/foods\lollies.jpg	1	1	1	lollies	1	P	11	0	78	0		0	0	70.4059057999402	70.5058920001611
14977.25	0.0999884000048041	73	hunger	stimuli/foods\apple.jpg	1	1	1	apple	1	S	13	0	1	0		0	0	70.5559078999795	70.6558962999843
15014.75	0.099983099848032	74	hunger	stimuli/foods\baked_lamb_with_potatoes.jpg	1	1	1	baked_lamb_with_potatoes	1	X	17	0	8	0		0	0	70.7059058002196	70.8058889000677
15052.25	0.0999880996532738	75	hunger	stimuli/foods\cinnamon.jpg	1	1	1	cinnamon	1	G	4	0	30	0		0	0	70.8559019002132	70.9558899998665
15089.75	0.0999839003197849	76	hunger	stimuli/foods\mussels.jpg	1	1	1	mussels	1	X	17	0	86	1	a	0.841816699597985	1	71.0059019997716	71.1058859000914
15127.25	0.0999842002056539	77	hunger	stimuli/non_foods\non-food_animate_dragonfly.jpg	1	1	1	non-food_animate_dragonfly	0	J	6	0	108	0		0	0	71.1558999000117	71.2558841002174
15164.75	0.0999829997308552	78	hunger	stimuli/non_foods\non-food_inanimate_ring.jpg	1	1	1	non-food_inanimate_ring	0	M	9	0	203	0		0	0	71.305900900159	71.4058838998899
15202.25	0.100015100091696	79	hunger	stimuli/non_foods\non-food_inanimate_orchid.jpg	1	1	1	non-food_inanimate_orchid	0	F	3	0	198	0		0	0	71.4558967999183	71.55591190001
15239.75	0.0999503000639379	80	hunger	stimuli/foods\fruit_flan.jpg	1	1	1	fruit_flan	1	V	15	0	53	0		0	0	71.6059419000521	71.7058922001161
15277.25	0.0999851999804378	81	hunger	stimuli/foods\donut.jpg	1	1	1	donut	1	X	17	0	44	0		0	0	71.7558940001763	71.8558792001568
15314.75	0.0999880000017583	82	hunger	stimuli/non_foods\non-food_inanimate_shell.jpg	1	1	1	non-food_inanimate_shell	0	W	16	0	206	0		0	0	71.905890900176	72.0058789001778
15352.25	0.0999845997430384	83	hunger	stimuli/foods\grapefruits.jpg	1	1	1	grapefruits	1	C	1	0	59	0		0	0	72.055891700089	72.155876299832
15389.75	0.0999839999713004	84	hunger	stimuli/non_foods\non-food_animate_llama.jpg	1	1	1	non-food_animate_llama	0	S	13	0	127	0		0	0	72.2058868999593	72.3058708999306
15427.25	0.0999882998876274	85	hunger	stimuli/non_foods\non-food_inanimate_bucket.jpg	1	1	1	non-food_inanimate_bucket	0	G	4	0	165	0		0	0	72.3558839000762	72.4558721999638
15464.75	0.0999869997613132	86	hunger	stimuli/foods\cereal.jpg	1	1	1	cereal	1	M	9	0	22	0		0	0	72.5058849002235	72.6058718999848
15502.25	0.0999722997657955	87	hunger	stimuli/foods\pineapple.jpg	1	1	1	pineapple	1	W	16	0	243	0		0	0	72.6558972001076	72.7558694998734
15539.75	0.099976200144738	88	hunger	stimuli/non_foods\non-food_animate_woman.jpg	1	1	1	non-food_animate_woman	0	V	15	0	154	0		0	0	72.8058787998743	72.9058550000191
15577.25	0.0999910999089479	89	hunger	stimuli/non_foods\non-food_animate_donkey.jpg	1	1	1	non-food_animate_donkey	0	W	16	0	107	0		0	0	72.9558680001646	73.0558591000736
15614.75	0.0999771999195218	90	hunger	stimuli/foods\rice.jpg	1	1	1	rice	1	L	8	0	257	0		0	0	73.1058688000776	73.2058459999971
15652.25	0.100026700180024	91	hunger	stimuli/non_foods\non-food_inanimate_speakers.jpg	1	1	1	non-food_inanimate_speakers	0	D	2	0	212	0		0	0	73.2558567998931	73.3558835000731
15689.75	0.0999579001218081	92	hunger	stimuli/non_foods\non-food_animate_butterfly.jpg	1	1	1	non-food_animate_butterfly	0	N	10	0	96	0		0	0	73.4058985998854	73.5058565000072
15727.25	0.0999973001889884	93	hunger	stimuli/non_foods\non-food_animate_eagle.jpg	1	1	1	non-food_animate_eagle	0	C	1	0	110	0		0	0	73.5558696999215	73.6558670001104
15764.75	0.0999838002026081	94	hunger	stimuli/non_foods\non-food_animate_sea_lion.jpg	1	1	1	non-food_animate_sea_lion	0	F	3	0	143	0		0	0	73.7058709999546	73.8058548001572
15802.25	0.0999835999682546	95	hunger	stimuli/non_foods\non-food_animate_mouse.jpg	1	1	1	non-food_animate_mouse	0	S	13	0	131	0		0	0	73.8558681001887	73.9558517001569
15839.75	0.0999877997674048	96	hunger	stimuli/foods\capsicum.jpg	1	1	1	capsicum	1	X	17	0	18	0		0	0	74.0058669000864	74.1058546998538
15877.25	0.100005299784243	97	hunger	stimuli/foods\pea_pod.jpg	1	1	1	pea_pod	1	K	7	0	237	0		0	0	74.1558452001773	74.2558504999615
15914.75	0.0999739998951554	98	hunger	stimuli/foods\blackberry.jpg	1	1	1	blackberry	1	V	15	0	11	0		0	0	74.3058762000874	74.4058501999825
15952.25	0.0999672999605536	99	hunger	stimuli/foods\waffle.jpg	1	1	1	waffle	1	X	17	0	278	0		0	0	74.4558787001297	74.5558460000902
15989.75	0.099961900152266	100	hunger	stimuli/non_foods\non-food_inanimate_fire_extinguisher.jpg	1	1	1	non-food_inanimate_fire_extinguisher	0	P	11	0	181	0		0	0	74.6058586998843	74.7058206000365
16027.25	0.0999507000669837	101	hunger	stimuli/foods\prawn.jpg	1	1	1	prawn	1	V	15	0	249	0		0	0	74.755873600021	74.855824300088
16064.75	0.0999838002026081	102	hunger	stimuli/foods\coconut.jpg	1	1	1	coconut	1	Z	18	0	33	0		0	0	74.905856099911	75.0058399001136
16102.25	0.100018099881709	103	hunger	stimuli/non_foods\non-food_inanimate_socks.jpg	1	1	1	non-food_inanimate_socks	0	F	3	0	211	0		0	0	75.0558572001755	75.1558753000572
16139.75	0.0999819999560714	104	hunger	stimuli/non_foods\non-food_animate_mammoth.jpg	1	1	1	non-food_animate_mammoth	0	K	7	0	128	0		0	0	75.2058660001494	75.3058480001055
16177.25	0.100006300024688	105	hunger	stimuli/foods\oven-roasted_tomatoes.jpg	1	1	1	oven-roasted_tomatoes	1	L	8	0	232	0		0	0	75.3558248998597	75.4558311998844
16214.75	0.0999869997613132	106	hunger	stimuli/non_foods\non-food_animate_snail.jpg	1	1	1	non-food_animate_snail	0	F	3	0	149	0		0	0	75.5058447001502	75.6058316999115
16252.25	0.0999543000943959	107	hunger	stimuli/foods\nectarine.jpg	1	1	1	nectarine	1	V	15	0	87	0		0	0	75.6558528998867	75.7558071999811
16289.75	0.0999871999956667	108	hunger	stimuli/foods\fennel.jpg	1	1	1	fennel	1	L	8	0	47	0		0	0	75.8058417001739	75.9058289001696
16327.25	0.0999851999804378	109	hunger	stimuli/non_foods\non-food_animate_lizard.jpg	1	1	1	non-food_animate_lizard	0	K	7	0	126	0		0	0	75.9558439999819	76.0558291999623
16364.75	0.099984799977392	110	hunger	stimuli/non_foods\non-food_animate_tortoise.jpg	1	1	1	non-food_animate_tortoise	0	R	12	0	153	0		0	0	76.105841900222	76.2058267001994
16402.25	0.0999743002466857	111	hunger	stimuli/non_foods\non-food_animate_fox.jpg	1	1	1	non-food_animate_fox	0	G	4	0	112	0		0	0	76.2558523998596	76.3558267001063
16439.75	0.0999853000976145	112	hunger	stimuli/non_foods\non-food_inanimate_protractor.jpg	1	1	1	non-food_inanimate_protractor	0	X	17	0	201	0		0	0	76.4058379000053	76.5058232001029
16477.25	0.0999856004491448	113	hunger	stimuli/non_foods\non-food_inanimate_tent.jpg	1	1	1	non-food_inanimate_tent	0	B	0	0	219	0		0	0	76.5558353997767	76.6558210002258
16514.75	0.0999873001128435	114	hunger	stimuli/foods\red_cabbage.jpg	1	1	1	red_cabbage	1	R	12	0	256	0		0	0	76.7058327998966	76.8058201000094
16552.25	0.10000290023163	115	hunger	stimuli/non_foods\non-food_inanimate_fern.jpg	1	1	1	non-food_inanimate_fern	0	M	9	0	180	0		0	0	76.8558368999511	76.9558398001827
16589.75	0.0999472001567483	116	hunger	stimuli/non_foods\non-food_animate_dolphin.jpg	1	1	1	non-food_animate_dolphin	0	Z	18	0	106	0		0	0	77.0058683999814	77.1058156001382
16627.25	0.0999867999926209	117	hunger	stimuli/foods\eggplant.jpg	1	1	1	eggplant	1	F	3	0	46	0		0	0	77.1558298999444	77.255816699937
16664.75	0.0999857001006603	118	hunger	stimuli/non_foods\non-food_inanimate_rope.jpg	1	1	1	non-food_inanimate_rope	0	R	12	0	204	0		0	0	77.3058279999532	77.4058137000538
16702.25	0.0999997998587787	119	hunger	stimuli/non_foods\non-food_inanimate_construction_helment.jpg	1	1	1	non-food_inanimate_construction_helment	0	T	14	0	175	0		0	0	77.4558247001842	77.5558245000429
16739.75	0.0999829000793397	120	hunger	stimuli/foods\onion.jpg	1	1	1	onion	1	S	13	0	229	0		0	0	77.6058192998171	77.7058021998964
16777.25	0.0999859999865294	121	hunger	stimuli/foods\ginger_root.jpg	1	1	1	ginger_root	1	R	12	0	57	0		0	0	77.7558132000268	77.8557992000133
16814.75	0.0999857997521758	122	hunger	stimuli/non_foods\non-food_inanimate_rack.jpg	1	1	1	non-food_inanimate_rack	0	J	6	0	202	0		0	0	77.9058094001375	78.0057951998897
16852.25	0.0999782998114824	123	hunger	stimuli/foods\pumpkin.jpg	1	1	1	pumpkin	1	K	7	0	250	0		0	0	78.0558155002072	78.1557938000187
16889.75	0.0999826998449862	124	hunger	stimuli/foods\banana.jpg	1	1	1	banana	1	X	17	0	9	0		0	0	78.2058101999573	78.3057928998023
16927.25	0.0999849000945687	125	hunger	stimuli/non_foods\non-food_inanimate_canoe.jpg	1	1	1	non-food_inanimate_canoe	0	H	5	0	170	0		0	0	78.3558181999251	78.4558031000197
16964.75	0.10001439973712	126	hunger	stimuli/foods\fried_zucchini.jpg	1	1	1	fried_zucchini	1	F	3	0	51	0		0	0	78.5057874000631	78.6058017998002
17002.25	0.0999865001067519	127	hunger	stimuli/non_foods\non-food_animate_young_girl.jpg	1	1	1	non-food_animate_young_girl	0	L	8	0	157	0		0	0	78.6558242999017	78.7558108000085
17039.75	0.0999845000915229	128	hunger	stimuli/foods\savory_pie.jpg	1	1	1	savory_pie	1	Z	18	0	265	0		0	0	78.8058114000596	78.9057959001511
17077.25	0.0999866002239287	129	hunger	stimuli/foods\pomegranate.jpg	1	1	1	pomegranate	1	D	2	0	244	0		0	0	78.9558060998097	79.0557927000336
17114.75	0.0999809997156262	130	hunger	stimuli/foods\toasted_bread_with_tomatoes.jpg	1	1	1	toasted_bread_with_tomatoes	1	R	12	0	275	0		0	0	79.1058089002036	79.2057898999192
17152.25	0.0999877997674048	131	hunger	stimuli/non_foods\non-food_animate_grasshopper.jpg	1	1	1	non-food_animate_grasshopper	0	B	0	0	117	0		0	0	79.2558029000647	79.3557906998321
17189.75	0.0999882998876274	132	hunger	stimuli/non_foods\non-food_animate_owl.jpg	1	1	1	non-food_animate_owl	0	Z	18	0	132	0		0	0	79.4058004999533	79.505788799841
17227.25	0.0999694000929594	133	hunger	stimuli/non_foods\non-food_animate_peacock.jpg	1	1	1	non-food_animate_peacock	0	J	6	0	134	0		0	0	79.5558107998222	79.6557801999152
17264.75	0.0999865001067519	134	hunger	stimuli/foods\spinach.jpg	1	1	1	spinach	1	M	9	0	268	0		0	0	79.7057918999344	79.8057784000412
17302.25	0.099974799901247	135	hunger	stimuli/non_foods\non-food_inanimate_watering_can.jpg	1	1	1	non-food_inanimate_watering_can	0	R	12	0	225	0		0	0	79.8558012000285	79.9557759999298
17339.75	0.0999826001934707	136	hunger	stimuli/foods\fruit_pie.jpg	1	1	1	fruit_pie	1	B	0	0	54	0		0	0	80.0057899998501	80.1057726000436
17377.25	0.0999887003563344	137	hunger	stimuli/foods\chocolate_chip_cookies.jpg	1	1	1	chocolate_chip_cookies	1	J	6	0	27	0		0	0	80.1557836998254	80.2557724001817
17414.75	0.100006999913603	138	hunger	stimuli/foods\croissant.jpg	1	1	1	croissant	1	V	15	0	40	0		0	0	80.3057778999209	80.4057848998345
17452.25	0.0999640999361873	139	hunger	stimuli/non_foods\non-food_animate_elephant.jpg	1	1	1	non-food_animate_elephant	0	Z	18	0	111	0		0	0	80.4558116998523	80.5557757997885
19952.25	0.0999862002208829	140	hunger	stimuli/non_foods\non-food_inanimate_bush.jpg	1	2	1	non-food_inanimate_bush	0	H	5	0	167	0		0	0	90.4556714999489	90.5556577001698
19989.75	0.0999863999895751	141	hunger	stimuli/non_foods\non-food_animate_alligator.jpg	1	2	1	non-food_animate_alligator	0	G	4	0	90	0		0	0	90.605670100078	90.7056565000676
20027.25	0.0999817000702024	142	hunger	stimuli/non_foods\non-food_inanimate_chair.jpg	1	2	1	non-food_inanimate_chair	0	Z	18	0	172	0		0	0	90.7556721000001	90.8556538000703
20064.75	0.0999602000229061	143	hunger	stimuli/non_foods\non-food_inanimate_chandelier.jpg	1	2	1	non-food_inanimate_chandelier	0	G	4	0	173	0		0	0	90.9056894001551	91.005649600178
20102.25	0.0999829000793397	144	hunger	stimuli/non_foods\non-food_animate_monkey.jpg	1	2	1	non-food_animate_monkey	0	L	8	0	130	0		0	0	91.0556665998884	91.1556494999677
20139.75	0.099991699680686	145	hunger	stimuli/non_foods\non-food_inanimate_scissors.jpg	1	2	1	non-food_inanimate_scissors	0	M	9	0	205	0		0	0	91.2056585000828	91.3056501997635
20177.25	0.0999849000945687	146	hunger	stimuli/foods\orange.jpg	1	2	1	orange	1	S	13	0	230	0		0	0	91.3556614997797	91.4556463998742
20214.75	0.100030299741775	147	hunger	stimuli/non_foods\non-food_animate_sea_turtle.jpg	1	2	1	non-food_animate_sea_turtle	0	K	7	0	144	0		0	0	91.5056606000289	91.6056908997707
20252.25	0.0999246002174914	148	hunger	stimuli/foods\corncob.jpg	1	2	1	corncob	1	B	0	0	37	0		0	0	91.6556966998614	91.7556213000789
20289.75	0.0999822998419404	149	hunger	stimuli/foods\tomato.jpg	1	2	1	tomato	1	R	12	0	276	0		0	0	91.805650500115	91.9056327999569
20327.25	0.099985099863261	150	hunger	stimuli/non_foods\non-food_inanimate_guitar.jpg	1	2	1	non-food_inanimate_guitar	0	T	14	0	185	0		0	0	91.9556482001208	92.055633299984
20364.75	0.0999793000519276	151	hunger	stimuli/foods\watermelon.jpg	1	2	1	watermelon	1	P	11	0	279	0		0	0	92.1056491998024	92.2056284998544
20402.25	0.09998709987849	152	hunger	stimuli/non_foods\non-food_inanimate_gloves.jpg	1	2	1	non-food_inanimate_gloves	0	L	8	0	183	0		0	0	92.2556432001293	92.3556303000078
20439.75	0.0999829997308552	153	hunger	stimuli/foods\pasta_carbonara.jpg	1	2	1	pasta_carbonara	1	B	0	0	236	0		0	0	92.4056452000514	92.5056281997822
20477.25	0.0999803999438882	154	hunger	stimuli/non_foods\non-food_animate_slug.jpg	1	2	1	non-food_animate_slug	0	T	14	0	148	0		0	0	92.5556426998228	92.6556230997667
20514.75	0.0999797000549734	155	hunger	stimuli/non_foods\non-food_inanimate_bamboo.jpg	1	2	1	non-food_inanimate_bamboo	0	W	16	0	159	0		0	0	92.705641800072	92.805621500127
20552.25	0.0999841000884771	156	hunger	stimuli/foods\egg.jpg	1	2	1	egg	1	J	6	0	45	0		0	0	92.8556371000595	92.955621200148
20589.75	0.0999844996258616	157	hunger	stimuli/foods\steak.jpg	1	2	1	steak	1	K	7	0	270	0		0	0	93.005639700219	93.1056241998449
20627.25	0.0999845997430384	158	hunger	stimuli/non_foods\non-food_inanimate_moss.jpg	1	2	1	non-food_inanimate_moss	0	R	12	0	194	0		0	0	93.1556357000954	93.2556202998385
20664.75	0.0999737000092864	159	hunger	stimuli/non_foods\non-food_animate_baby_sitting.jpg	1	2	1	non-food_animate_baby_sitting	0	D	2	0	93	0		0	0	93.3056438001804	93.4056175001897
20702.25	0.0999849000945687	160	hunger	stimuli/non_foods\non-food_inanimate_pine_cone.jpg	1	2	1	non-food_inanimate_pine_cone	0	H	5	0	200	0		0	0	93.4556485000066	93.5556334001012
20739.75	0.0999761000275612	161	hunger	stimuli/non_foods\non-food_inanimate_short_sleeved_shirt.jpg	1	2	1	non-food_inanimate_short_sleeved_shirt	0	J	6	0	207	0		0	0	93.6056392001919	93.7056153002195
20777.25	0.0999798001721501	162	hunger	stimuli/non_foods\non-food_animate_killer_whale.jpg	1	2	1	non-food_animate_killer_whale	0	V	15	0	123	0		0	0	93.7556302999146	93.8556101000868
20814.75	0.0999828996136785	163	hunger	stimuli/foods\pear.jpg	1	2	1	pear	1	P	11	0	239	0		0	0	93.9056274001487	94.0056102997623
20852.25	0.0999864996410906	164	hunger	stimuli/non_foods\non-food_inanimate_sun_flower.jpg	1	2	1	non-food_inanimate_sun_flower	0	R	12	0	216	0		0	0	94.0556243001483	94.1556107997894
20889.75	0.0999867999926209	165	hunger	stimuli/foods\risotto_with_peas_and_asparagus_tips.jpg	1	2	1	risotto_with_peas_and_asparagus_tips	1	G	4	0	259	0		0	0	94.2056220001541	94.3056088001467
20927.25	0.0999833000823855	166	hunger	stimuli/foods\pork_and_rice.jpg	1	2	1	pork_and_rice	1	H	5	0	245	0		0	0	94.3556208000518	94.4556041001342
20964.75	0.0999838998541236	167	hunger	stimuli/foods\mortadella.jpg	1	2	1	mortadella	1	L	8	0	83	0		0	0	94.5056179999374	94.6056018997915
21002.25	0.0999892000108957	168	hunger	stimuli/foods\cauliflower.jpg	1	2	1	cauliflower	1	M	9	0	20	0		0	0	94.6556175998412	94.7556067998521
21039.75	0.0999826998449862	169	hunger	stimuli/non_foods\non-food_animate_polar_bear.jpg	1	2	1	non-food_animate_polar_bear	0	P	11	0	137	0		0	0	94.8056124001741	94.9055951000191
21077.25	0.0999817000702024	170	hunger	stimuli/foods\meatballs.jpg	1	2	1	meatballs	1	L	8	0	81	0		0	0	94.9556157998741	95.0555974999443
21114.75	0.100021600257605	171	hunger	stimuli/non_foods\non-food_inanimate_grass.jpg	1	2	1	non-food_inanimate_grass	0	M	9	0	184	0		0	0	95.1056094998494	95.205631100107
21152.25	0.0999524998478591	172	hunger	stimuli/non_foods\non-food_animate_caterpillar.jpg	1	2	1	non-food_animate_caterpillar	0	K	7	0	99	0		0	0	95.2556491000578	95.3556015999056
21189.75	0.0999889001250267	173	hunger	stimuli/non_foods\non-food_inanimate_bicycle.jpg	1	2	1	non-food_inanimate_bicycle	0	C	1	0	161	0		0	0	95.4056132999249	95.5056022000499
21227.25	0.09998539974913	174	hunger	stimuli/non_foods\non-food_inanimate_jeans.jpg	1	2	1	non-food_inanimate_jeans	0	B	0	0	191	0		0	0	95.5556124001741	95.6555977999233
21264.75	0.0999857001006603	175	hunger	stimuli/non_foods\non-food_inanimate_hammer.jpg	1	2	1	non-food_inanimate_hammer	0	Z	18	0	186	0		0	0	95.7056128000841	95.8055985001847
21302.25	0.0999882998876274	176	hunger	stimuli/foods\omelette.jpg	1	2	1	omelette	1	W	16	0	228	0		0	0	95.8556087999605	95.9555970998481
21339.75	0.099980799946934	177	hunger	stimuli/non_foods\non-food_animate_giraffe.jpg	1	2	1	non-food_animate_giraffe	0	G	4	0	115	0		0	0	96.0056096999906	96.1055904999375
21377.25	0.0999817000702024	178	hunger	stimuli/foods\cherry.jpg	1	2	1	cherry	1	P	11	0	23	0		0	0	96.1556077999994	96.2555895000696
21414.75	0.0999850002117455	179	hunger	stimuli/non_foods\non-food_animate_iguana.jpg	1	2	1	non-food_animate_iguana	0	D	2	0	121	0		0	0	96.3056055000052	96.4055905002169
21452.25	0.0999871999956667	180	hunger	stimuli/non_foods\non-food_inanimate_desk.jpg	1	2	1	non-food_inanimate_desk	0	X	17	0	178	0		0	0	96.4556011999957	96.5555883999914
21489.75	0.0999845997430384	181	hunger	stimuli/foods\fruit_salad.jpg	1	2	1	fruit_salad	1	H	5	0	55	0		0	0	96.6056002001278	96.7055847998708
21527.25	0.0999846002086997	182	hunger	stimuli/foods\mushroom.jpg	1	2	1	mushroom	1	Z	18	0	85	0		0	0	96.7556007998064	96.8555854000151
21564.75	0.0999750001356006	183	hunger	stimuli/foods\chocolate_pudding.jpg	1	2	1	chocolate_pudding	1	G	4	0	29	0		0	0	96.9055973999202	97.0055724000558
21602.25	0.0999767002649605	184	hunger	stimuli/non_foods\non-food_inanimate_folding_chair.jpg	1	2	1	non-food_inanimate_folding_chair	0	B	0	0	182	0		0	0	97.0556084997952	97.1555852000602
21639.75	0.0999739998951554	185	hunger	stimuli/foods\cannoli.jpg	1	2	1	cannoli	1	N	10	0	17	0		0	0	97.2056029001251	97.3055769000202
21677.25	0.0999838998541236	186	hunger	stimuli/non_foods\non-food_animate_swan.jpg	1	2	1	non-food_animate_swan	0	I	21	1	152	0		0	0	97.3555928999558	97.4555767998099
21714.75	0.0999838002026081	187	hunger	stimuli/non_foods\non-food_inanimate_suitcase.jpg	1	2	1	non-food_inanimate_suitcase	0	G	4	0	215	0		0	0	97.5055928998627	97.6055767000653
21752.25	0.0999862002208829	188	hunger	stimuli/foods\salami.jpg	1	2	1	salami	1	K	7	0	263	0		0	0	97.6555870999582	97.7555733001791
21789.75	0.0999857001006603	189	hunger	stimuli/foods\cinnamon_sroll.jpg	1	2	1	cinnamon_sroll	1	G	4	0	31	1	a	0.541821899823844	1	97.8055871999823	97.9055729000829
21827.25	0.100007299799472	190	hunger	stimuli/foods\radish.jpg	1	2	1	radish	1	B	0	0	251	0		0	0	97.9555855002254	98.0555928000249
21864.75	0.0999905001372099	191	hunger	stimuli/foods\gnocchi.jpg	1	2	1	gnocchi	1	G	4	0	58	0		0	0	98.1055835997686	98.2055740999058
21902.25	0.0999833000823855	192	hunger	stimuli/non_foods\non-food_animate_german_shepherd.jpg	1	2	1	non-food_animate_german_shepherd	0	J	6	0	114	0		0	0	98.2555835000239	98.3555668001063
21939.75	0.0999794001691043	193	hunger	stimuli/non_foods\non-food_inanimate_clover.jpg	1	2	1	non-food_inanimate_clover	0	Z	18	0	174	0		0	0	98.4055792000145	98.5055586001836
21977.25	0.100001600105315	194	hunger	stimuli/non_foods\non-food_inanimate_padlock.jpg	1	2	1	non-food_inanimate_padlock	0	M	9	0	199	0		0	0	98.5555728999898	98.6555745000951
22014.75	0.0999602000229061	195	hunger	stimuli/non_foods\non-food_animate_lion.jpg	1	2	1	non-food_animate_lion	0	N	10	0	125	0		0	0	98.7055935999379	98.8055537999608
22052.25	0.0999851999804378	196	hunger	stimuli/non_foods\non-food_inanimate_alarm_clock.jpg	1	2	1	non-food_inanimate_alarm_clock	0	S	13	0	158	0		0	0	98.8555645002052	98.9555497001857
22089.75	0.09998539974913	197	hunger	stimuli/foods\hazelnuts.jpg	1	2	1	hazelnuts	1	L	8	0	65	0		0	0	99.0055661001243	99.1055514998734
22127.25	0.0999809000641108	198	hunger	stimuli/non_foods\non-food_animate_ant.jpg	1	2	1	non-food_animate_ant	0	C	1	0	91	0		0	0	99.1555657000281	99.2555466000922
22164.75	0.0999843003228307	199	hunger	stimuli/non_foods\non-food_inanimate_waterlily.jpg	1	2	1	non-food_inanimate_waterlily	0	W	16	0	226	0		0	0	99.3055631997995	99.4055475001223
22202.25	0.0999777000397444	200	hunger	stimuli/foods\lettuce.jpg	1	2	1	lettuce	1	P	11	0	75	0		0	0	99.4555747001432	99.5555524001829
22239.75	0.0999991996213794	201	hunger	stimuli/foods\raw_ham.jpg	1	2	1	raw_ham	1	B	0	0	253	0		0	0	99.6055426001549	99.7055417997763
22277.25	0.099993999581784	202	hunger	stimuli/foods\peas.jpg	1	2	1	peas	1	S	13	0	240	0		0	0	99.755562600214	99.8555565997958
22314.75	0.0999769000336528	203	hunger	stimuli/foods\potato_and_green_bean_salad.jpg	1	2	1	potato_and_green_bean_salad	1	W	16	0	246	0		0	0	99.9055616999976	100.005538600031
22352.25	0.0999814998358488	204	hunger	stimuli/foods\chocolate_bar.jpg	1	2	1	chocolate_bar	1	P	11	0	26	0		0	0	100.055559500121	100.155540999956
22389.75	0.0999741996638477	205	hunger	stimuli/foods\cooked_ham.jpg	1	2	1	cooked_ham	1	L	8	0	35	0		0	0	100.205562400166	100.30553659983
22427.25	0.0999768003821373	206	hunger	stimuli/foods\green_beans.jpg	1	2	1	green_beans	1	T	14	0	61	0		0	0	100.355554599781	100.455531400163
22464.75	0.0999358999542892	207	hunger	stimuli/non_foods\non-food_animate_young_boy.jpg	1	2	1	non-food_animate_young_boy	0	H	5	0	156	0		0	0	100.505597100127	100.605533000082
22502.25	0.0999683998525143	208	hunger	stimuli/non_foods\non-food_animate_penguin.jpg	1	2	1	non-food_animate_penguin	0	B	0	0	135	0		0	0	100.655567199923	100.755535599776
22539.75	0.0999902002513409	209	hunger	stimuli/non_foods\non-food_animate_Asian_man.jpg	1	2	1	non-food_animate_Asian_man	0	D	2	0	88	0		0	0	100.805545699783	100.905535900034
22577.25	0.100005800370127	210	hunger	stimuli/foods\cabbage.jpg	1	2	1	cabbage	1	Z	18	0	16	0		0	0	100.955556099769	101.055561900139
22614.75	0.0999934002757072	211	hunger	stimuli/foods\honey.jpg	1	2	1	honey	1	P	11	0	66	0		0	0	101.105576599948	101.205570000224
22652.25	0.100056399591267	212	hunger	stimuli/non_foods\non-food_animate_rhino.jpg	1	2	1	non-food_animate_rhino	0	T	14	0	141	0		0	0	101.255562600214	101.355618999805
22689.75	0.100034600123763	213	hunger	stimuli/foods\figs.jpg	1	2	1	figs	1	N	10	0	48	0		0	0	101.405556099955	101.505590700079
22727.25	0.0999816996045411	214	hunger	stimuli/non_foods\non-food_animate_pigeon.jpg	1	2	1	non-food_animate_pigeon	0	P	11	0	136	0		0	0	101.555602500215	101.65558419982
22764.75	0.0999859003350139	215	hunger	stimuli/foods\artichoke.jpg	1	2	1	artichoke	1	M	9	0	3	0		0	0	101.705556499772	101.805542400107
22802.25	0.0999526996165514	216	hunger	stimuli/foods\apricot.jpg	1	2	1	apricot	1	S	13	0	2	0		0	0	101.855564100202	101.955516799819
22839.75	0.10000120010227	217	hunger	stimuli/foods\lemon_meringue_pie.jpg	1	2	1	lemon_meringue_pie	1	G	4	0	73	0		0	0	102.005534700118	102.10553590022
22877.25	0.10000059986487	218	hunger	stimuli/non_foods\non-food_animate_duck.jpg	1	2	1	non-food_animate_duck	0	T	14	0	109	0		0	0	102.155547800008	102.255548399873
22914.75	0.0999718001112342	219	hunger	stimuli/foods\strawberry.jpg	1	2	1	strawberry	1	D	2	0	272	0		0	0	102.305583199952	102.405555000063
22952.25	0.0999578000046313	220	hunger	stimuli/non_foods\non-food_inanimate_briefcase.jpg	1	2	1	non-food_inanimate_briefcase	0	B	0	0	163	0		0	0	102.455562400166	102.555520200171
22989.75	0.0999874998815358	221	hunger	stimuli/foods\pickles.jpg	1	2	1	pickles	1	N	10	0	242	0		0	0	102.605550799984	102.705538299866
23027.25	0.0999928000383079	222	hunger	stimuli/non_foods\non-food_inanimate_bed.jpg	1	2	1	non-food_inanimate_bed	0	C	1	0	160	0		0	0	102.755546899978	102.855539700016
23064.75	0.0999845997430384	223	hunger	stimuli/non_foods\non-food_animate_cheetah.jpg	1	2	1	non-food_animate_cheetah	0	V	15	0	100	0		0	0	102.905551000033	103.005535599776
23102.25	0.10002060001716	224	hunger	stimuli/non_foods\non-food_animate_student_female.jpg	1	2	1	non-food_animate_student_female	0	H	5	0	151	0		0	0	103.055499100126	103.155519700143
23139.75	0.0999835999682546	225	hunger	stimuli/foods\oregano.jpg	1	2	1	oregano	1	F	3	0	231	0		0	0	103.2055426999	103.305526299868
23177.25	0.0999698000960052	226	hunger	stimuli/foods\lemon.jpg	1	2	1	lemon	1	P	11	0	72	0		0	0	103.355550500099	103.455520300195
23214.75	0.099974200129509	227	hunger	stimuli/foods\garlic.jpg	1	2	1	garlic	1	B	0	0	56	0		0	0	103.505534600001	103.60550880013
23252.25	0.0999984997324646	228	hunger	stimuli/non_foods\non-food_inanimate_headphones.jpg	1	2	1	non-food_inanimate_headphones	0	P	11	0	188	0		0	0	103.655520900153	103.755519399885
23289.75	0.0999821000732481	229	hunger	stimuli/foods\brownie.jpg	1	2	1	brownie	1	M	9	0	14	0		0	0	103.805530299898	103.905512399971
23327.25	0.0999980000779033	230	hunger	stimuli/foods\dates.jpg	1	2	1	dates	1	P	11	0	43	0		0	0	103.955534299836	104.055532299913
23364.75	0.0999821997247636	231	hunger	stimuli/foods\mango.jpg	1	2	1	mango	1	S	13	0	80	0		0	0	104.10551750008	104.205499699805
23402.25	0.0999757000245154	232	hunger	stimuli/non_foods\non-food_inanimate_toy_airplane.jpg	1	2	1	non-food_inanimate_toy_airplane	0	W	16	0	222	0		0	0	104.255507200025	104.35548290005
23439.75	0.100007799919695	233	hunger	stimuli/non_foods\non-food_inanimate_stapler.jpg	1	2	1	non-food_inanimate_stapler	0	V	15	0	213	0		0	0	104.405492499936	104.505500299856
23477.25	0.0999854998663068	234	hunger	stimuli/foods\fries.jpg	1	2	1	fries	1	Z	18	0	52	0		0	0	104.555508300196	104.655493800063
23514.75	0.0999867999926209	235	hunger	stimuli/foods\rockmelon.jpg	1	2	1	rockmelon	1	J	6	0	262	0		0	0	104.705506099854	104.805492899846
23552.25	0.0999826001934707	236	hunger	stimuli/foods\stew_with_potatoes_and_carrots.jpg	1	2	1	stew_with_potatoes_and_carrots	1	L	8	0	271	0		0	0	104.855506199878	104.955488800071
23589.75	0.0999831999652088	237	hunger	stimuli/non_foods\non-food_animate_parrot.jpg	1	2	1	non-food_animate_parrot	0	B	0	0	133	0		0	0	105.005504299887	105.105487499852
23627.25	0.0999727002345026	238	hunger	stimuli/non_foods\non-food_inanimate_cactus_pot_plant.jpg	1	2	1	non-food_inanimate_cactus_pot_plant	0	D	2	0	169	0		0	0	105.155516999774	105.255489700008
23664.75	0.0999752003699541	239	hunger	stimuli/foods\lime.jpg	1	2	1	lime	1	V	15	0	76	0		0	0	105.305502399802	105.405477600172
23702.25	0.0999965001828969	240	hunger	stimuli/foods\grilled_chicken_breast.jpg	1	2	1	grilled_chicken_breast	1	C	1	0	63	0		0	0	105.455497299787	105.55549379997
23739.75	0.099978799931705	241	hunger	stimuli/foods\peach.jpg	1	2	1	peach	1	B	0	0	238	0		0	0	105.605496699922	105.705475499853
23777.25	0.100019600242376	242	hunger	stimuli/non_foods\non-food_animate_hummingbird.jpg	1	2	1	non-food_animate_hummingbird	0	T	14	0	120	0		0	0	105.755505899899	105.855525500141
23814.75	0.099961900152266	243	hunger	stimuli/non_foods\non-food_inanimate_couch.jpg	1	2	1	non-food_inanimate_couch	0	W	16	0	176	0		0	0	105.905515899882	106.005477800034
23852.25	0.0999813000671566	244	hunger	stimuli/non_foods\non-food_animate_seahorse.jpg	1	2	1	non-food_animate_seahorse	0	T	14	0	145	0		0	0	106.05549209984	106.155473399907
23889.75	0.0999869001097977	245	hunger	stimuli/foods\oyster.jpg	1	2	1	oyster	1	F	3	0	233	0		0	0	106.205487799831	106.305474699941
23927.25	0.099981399718672	246	hunger	stimuli/non_foods\non-food_animate_ram.jpg	1	2	1	non-food_animate_ram	0	X	17	0	140	0		0	0	106.355488100089	106.455469499808
23964.75	0.099985099863261	247	hunger	stimuli/foods\cupcake.jpg	1	2	1	cupcake	1	K	7	0	42	0		0	0	106.505486499984	106.605471599847
24002.25	0.0999688003212214	248	hunger	stimuli/foods\cream_donuts.jpg	1	2	1	cream_donuts	1	G	4	0	39	0		0	0	106.655486399774	106.755455200095
24039.75	0.0999839999713004	249	hunger	stimuli/foods\pancakes.jpg	1	2	1	pancakes	1	D	2	0	234	0		0	0	106.805482800119	106.90546680009
24077.25	0.0999646997079253	250	hunger	stimuli/foods\brie.jpg	1	2	1	brie	1	J	6	0	12	0		0	0	106.955478500109	107.055443199817
24114.75	0.0999630996957421	251	hunger	stimuli/foods\potatoes.jpg	1	2	1	potatoes	1	G	4	0	248	0		0	0	107.105481000151	107.205444099847
24152.25	0.0999849000945687	252	hunger	stimuli/non_foods\non-food_inanimate_lighter.jpg	1	2	1	non-food_inanimate_lighter	0	P	11	0	193	0		0	0	107.255473699886	107.355458599981
24189.75	0.0999790001660585	253	hunger	stimuli/non_foods\non-food_animate_kangaroo.jpg	1	2	1	non-food_animate_kangaroo	0	H	5	0	122	0		0	0	107.405480599962	107.505459600128
24227.25	0.100002699997276	254	hunger	stimuli/foods\coffee_beans.jpg	1	2	1	coffee_beans	1	Z	18	0	34	1	a	0	0	107.555481499992	107.65548419999
24264.75	0.0999907995574176	255	hunger	stimuli/non_foods\non-food_inanimate_broom.jpg	1	2	1	non-food_inanimate_broom	0	P	11	0	164	0		0	0	107.705460700206	107.805451499764
24302.25	0.0999989998526871	256	hunger	stimuli/foods\almonds.jpg	1	2	1	almonds	1	N	10	0	0	0		0	0	107.855455600191	107.955454600044
24339.75	0.0999737000092864	257	hunger	stimuli/non_foods\non-food_inanimate_button.jpg	1	2	1	non-food_inanimate_button	0	K	7	0	168	0		0	0	108.00546889985	108.105442599859
24377.25	0.0999875999987125	258	hunger	stimuli/non_foods\non-food_animate_camel.jpg	1	2	1	non-food_animate_camel	0	S	13	0	97	0		0	0	108.155464100186	108.255451700184
24414.75	0.0999834001995623	259	hunger	stimuli/foods\carrot.jpg	1	2	1	carrot	1	T	14	0	19	0		0	0	108.305465099867	108.405448500067
24452.25	0.0999852996319532	260	hunger	stimuli/non_foods\non-food_animate_gorilla.jpg	1	2	1	non-food_animate_gorilla	0	G	4	0	116	0		0	0	108.455461500213	108.555446799845
24489.75	0.100001700222492	261	hunger	stimuli/foods\museli_bars.jpg	1	2	1	museli_bars	1	F	3	0	84	0		0	0	108.605460999999	108.705462700222
24527.25	0.0999833000823855	262	hunger	stimuli/foods\beetroots.jpg	1	2	1	beetroots	1	V	15	0	10	0		0	0	108.755457099993	108.855440400075
24564.75	0.0999896000139415	263	hunger	stimuli/non_foods\non-food_inanimate_tulip.jpg	1	2	1	non-food_inanimate_tulip	0	M	9	0	224	0		0	0	108.905454999767	109.005444599781
24602.25	0.0999842002056539	264	hunger	stimuli/non_foods\non-food_animate_clown.jpg	1	2	1	non-food_animate_clown	0	T	14	0	102	0		0	0	109.055455599912	109.155439800117
24639.75	0.0999898002482951	265	hunger	stimuli/foods\avocado.jpg	1	2	1	avocado	1	H	5	0	5	0		0	0	109.205450099893	109.305439900141
24677.25	0.100003200117499	266	hunger	stimuli/non_foods\non-food_animate_frog.jpg	1	2	1	non-food_animate_frog	0	V	15	0	113	0		0	0	109.355451399926	109.455454600044
24714.75	0.0999795999377966	267	hunger	stimuli/foods\green_olives.jpg	1	2	1	green_olives	1	G	4	0	62	0		0	0	109.505451899953	109.605431499891
24752.25	0.0999892000108957	268	hunger	stimuli/foods\potato_chips.jpg	1	2	1	potato_chips	1	Z	18	0	247	0		0	0	109.655446900055	109.755436100066
24789.75	0.0999945001676679	269	hunger	stimuli/non_foods\non-food_inanimate_wrench.jpg	1	2	1	non-food_inanimate_wrench	0	I	21	1	227	0		0	0	109.805447999854	109.905442500021
24827.25	0.0999541003257036	270	hunger	stimuli/non_foods\non-food_inanimate_horn.jpg	1	2	1	non-food_inanimate_horn	0	R	12	0	190	0		0	0	109.955447699875	110.0554018002
24864.75	0.0999748003669083	271	hunger	stimuli/foods\cooked_prawn.jpg	1	2	1	cooked_prawn	1	X	17	0	36	0		0	0	110.105447699782	110.205422500148
24902.25	0.0999851999804378	272	hunger	stimuli/non_foods\non-food_inanimate_stoplight.jpg	1	2	1	non-food_inanimate_stoplight	0	T	14	0	214	1	a	0.450164000038058	1	110.255431700032	110.355416900013
24939.75	0.0999866002239287	273	hunger	stimuli/non_foods\non-food_inanimate_buds.jpg	1	2	1	non-food_inanimate_buds	0	Z	18	0	166	0		0	0	110.405431699939	110.505418300163
24977.25	0.0999873001128435	274	hunger	stimuli/foods\chestnut.jpg	1	2	1	chestnut	1	N	10	0	24	0		0	0	110.555438099895	110.655425400008
25014.75	0.0999817000702024	275	hunger	stimuli/foods\asparagus.jpg	1	2	1	asparagus	1	H	5	0	4	0		0	0	110.705438899808	110.805420599878
25052.25	0.0999835999682546	276	hunger	stimuli/non_foods\non-food_inanimate_highlighter.jpg	1	2	1	non-food_inanimate_highlighter	0	X	17	0	189	0		0	0	110.85543490015	110.955418500118
25089.75	0.0999857001006603	277	hunger	stimuli/foods\pepperoni_pizza.jpg	1	2	1	pepperoni_pizza	1	W	16	0	241	0		0	0	111.005432399921	111.105418100022
25127.25	0.0999444001354277	278	hunger	stimuli/non_foods\non-food_inanimate_drum_set.jpg	1	2	1	non-food_inanimate_drum_set	0	D	2	0	179	0		0	0	111.155474199913	111.255418600049
25164.75	0.0999452997930348	279	hunger	stimuli/non_foods\non-food_animate_dachshund.jpg	1	2	1	non-food_animate_dachshund	0	R	12	0	104	0		0	0	111.30545330001	111.405398599803
27539.75	0.0999779002740979	280	hunger	stimuli/foods\spring_onions.jpg	1	3	1	spring_onions	1	M	9	0	269	0		0	0	120.805314799771	120.905292700045
27577.25	0.0999885001219809	281	hunger	stimuli/non_foods\non-food_animate_owl.jpg	1	3	1	non-food_animate_owl	0	F	3	0	132	0		0	0	120.955300299916	121.055288800038
27614.75	0.0999972000718117	282	hunger	stimuli/non_foods\non-food_animate_sea_turtle.jpg	1	3	1	non-food_animate_sea_turtle	0	S	13	0	144	0		0	0	121.105302699842	121.205299899913
27652.25	0.0999814001843333	283	hunger	stimuli/non_foods\non-food_animate_clown.jpg	1	3	1	non-food_animate_clown	0	Z	18	0	102	0		0	0	121.255313499831	121.355294900015
27689.75	0.0999671998433769	284	hunger	stimuli/foods\raisins.jpg	1	3	1	raisins	1	K	7	0	252	0		0	0	121.405314200092	121.505281399935
27727.25	0.099969900213182	285	hunger	stimuli/foods\mango.jpg	1	3	1	mango	1	J	6	0	80	0		0	0	121.555302199908	121.655272100121
27764.75	0.0999835999682546	286	hunger	stimuli/foods\asparagus.jpg	1	3	1	asparagus	1	T	14	0	4	0		0	0	121.705310999881	121.80529459985
27802.25	0.0999797000549734	287	hunger	stimuli/non_foods\non-food_animate_bee.jpg	1	3	1	non-food_animate_bee	0	V	15	0	95	0		0	0	121.855306900106	121.955286600161
27839.75	0.0999944000504911	288	hunger	stimuli/foods\broccoli.jpg	1	3	1	broccoli	1	D	2	0	13	0		0	0	122.005318500102	122.105312900152
27877.25	0.0999952997080982	289	hunger	stimuli/foods\grilled_chicken_breast.jpg	1	3	1	grilled_chicken_breast	1	M	9	0	63	0		0	0	122.155296700075	122.255291999783
27914.75	0.0999857001006603	290	hunger	stimuli/non_foods\non-food_inanimate_canoe.jpg	1	3	1	non-food_inanimate_canoe	0	Z	18	0	170	0		0	0	122.305292299949	122.405278000049
27952.25	0.0999881001189351	291	hunger	stimuli/foods\brie.jpg	1	3	1	brie	1	S	13	0	12	0		0	0	122.455291499849	122.555279599968
27989.75	0.0999937998130918	292	hunger	stimuli/non_foods\non-food_inanimate_stapler.jpg	1	3	1	non-food_inanimate_stapler	0	R	12	0	213	0		0	0	122.605285000056	122.705278799869
28027.25	0.0999764003790915	293	hunger	stimuli/foods\figs.jpg	1	3	1	figs	1	G	4	0	48	0		0	0	122.755295599811	122.85527200019
28064.75	0.0999912996776402	294	hunger	stimuli/non_foods\non-food_animate_student_female.jpg	1	3	1	non-food_animate_student_female	0	X	17	0	151	0		0	0	122.905287600122	123.0052788998
28102.25	0.0999644999392331	295	hunger	stimuli/foods\pomegranate.jpg	1	3	1	pomegranate	1	P	11	0	244	0		0	0	123.055295799859	123.155260299798
28139.75	0.0999809000641108	296	hunger	stimuli/non_foods\non-food_animate_green_bug.jpg	1	3	1	non-food_animate_green_bug	0	W	16	0	118	0		0	0	123.205286699813	123.305267599877
28177.25	0.0999711002223194	297	hunger	stimuli/non_foods\non-food_inanimate_moss.jpg	1	3	1	non-food_inanimate_moss	0	J	6	0	194	0		0	0	123.355286099948	123.45525720017
28214.75	0.100010399706662	298	hunger	stimuli/foods\honey.jpg	1	3	1	honey	1	F	3	0	66	0		0	0	123.505259300116	123.605269699823
28252.25	0.0999904000200331	299	hunger	stimuli/foods\spaghetti_with_meat_sauce.jpg	1	3	1	spaghetti_with_meat_sauce	1	K	7	0	267	0		0	0	123.655274299905	123.755264699925
28289.75	0.0999859999865294	300	hunger	stimuli/foods\pasta_carbonara.jpg	1	3	1	pasta_carbonara	1	W	16	0	236	0		0	0	123.805285600014	123.905271600001
28327.25	0.0999964000657201	301	hunger	stimuli/non_foods\non-food_inanimate_soccer_ball.jpg	1	3	1	non-food_inanimate_soccer_ball	0	G	4	0	210	0		0	0	123.955271199811	124.055267599877
28364.75	0.0999619998037815	302	hunger	stimuli/foods\potato_and_green_bean_salad.jpg	1	3	1	potato_and_green_bean_salad	1	D	2	0	246	0		0	0	124.105281400029	124.205243399832
28402.25	0.0999823999591172	303	hunger	stimuli/foods\brussel_sprouts.jpg	1	3	1	brussel_sprouts	1	K	7	0	15	0		0	0	124.255271700211	124.35525410017
28439.75	0.0999940000474453	304	hunger	stimuli/non_foods\non-food_inanimate_gloves.jpg	1	3	1	non-food_inanimate_gloves	0	W	16	0	183	0		0	0	124.405269700103	124.50526370015
28477.25	0.0999825997278094	305	hunger	stimuli/foods\eggplant.jpg	1	3	1	eggplant	1	G	4	0	46	0		0	0	124.555280500092	124.655263099819
28514.75	0.0999870002269745	306	hunger	stimuli/non_foods\non-food_animate_young_boy.jpg	1	3	1	non-food_animate_young_boy	0	F	3	0	156	0		0	0	124.705265199766	124.805252199993
28552.25	0.099982799962163	307	hunger	stimuli/non_foods\non-food_inanimate_waterlily.jpg	1	3	1	non-food_inanimate_waterlily	0	M	9	0	226	0		0	0	124.855264599901	124.955247399863
28589.75	0.0999866002239287	308	hunger	stimuli/non_foods\non-food_inanimate_hammer.jpg	1	3	1	non-food_inanimate_hammer	0	P	11	0	186	0		0	0	125.005261399783	125.105248000007
28627.25	0.0999908000230789	309	hunger	stimuli/foods\baked_lamb_with_potatoes.jpg	1	3	1	baked_lamb_with_potatoes	1	O	22	1	8	0		0	0	125.155261999927	125.255252799951
28664.75	0.0999859999865294	310	hunger	stimuli/foods\cannoli.jpg	1	3	1	cannoli	1	W	16	0	17	0		0	0	125.305268900003	125.40525489999
28702.25	0.099974799901247	311	hunger	stimuli/foods\pepperoni_pizza.jpg	1	3	1	pepperoni_pizza	1	R	12	0	241	0		0	0	125.455264000222	125.555238800123
28739.75	0.0999885997734964	312	hunger	stimuli/non_foods\non-food_inanimate_ring.jpg	1	3	1	non-food_inanimate_ring	0	Z	18	0	203	1	a	0.541827800218016	1	125.605262400117	125.70525099989
28777.25	0.0999867999926209	313	hunger	stimuli/non_foods\non-food_inanimate_speakers.jpg	1	3	1	non-food_inanimate_speakers	0	M	9	0	212	0		0	0	125.755262500141	125.855249300133
28814.75	0.0999441002495587	314	hunger	stimuli/foods\pork_and_rice.jpg	1	3	1	pork_and_rice	1	B	0	0	245	0		0	0	125.905301599763	126.005245700013
28852.25	0.0999960997141898	315	hunger	stimuli/foods\pancakes.jpg	1	3	1	pancakes	1	K	7	0	234	0		0	0	126.055251500104	126.155247599818
28889.75	0.0999849000945687	316	hunger	stimuli/non_foods\non-food_animate_german_shepherd.jpg	1	3	1	non-food_animate_german_shepherd	0	T	14	0	114	0		0	0	126.205258899834	126.305243799929
28927.25	0.0999882998876274	317	hunger	stimuli/foods\linguine_with_clams.jpg	1	3	1	linguine_with_clams	1	M	9	0	77	0		0	0	126.355255200062	126.45524349995
28964.75	0.0999818001873791	318	hunger	stimuli/non_foods\non-food_inanimate_bush.jpg	1	3	1	non-food_inanimate_bush	0	F	3	0	167	0		0	0	126.505258399993	126.605240200181
29002.25	0.0999842998571694	319	hunger	stimuli/foods\fried_calamari.jpg	1	3	1	fried_calamari	1	M	9	0	50	0		0	0	126.655253900215	126.755238200072
29039.75	0.100000899750739	320	hunger	stimuli/non_foods\non-food_inanimate_bamboo.jpg	1	3	1	non-food_inanimate_bamboo	0	B	0	0	159	0		0	0	126.805236500222	126.905237399973
29077.25	0.0999885997734964	321	hunger	stimuli/foods\mushroom.jpg	1	3	1	mushroom	1	S	13	0	85	0		0	0	126.955244100187	127.05523269996
29114.75	0.0999900996685028	322	hunger	stimuli/foods\savory_pie.jpg	1	3	1	savory_pie	1	J	6	0	265	0		0	0	127.105246900115	127.205236999784
29152.25	0.0999835003167391	323	hunger	stimuli/non_foods\non-food_inanimate_couch.jpg	1	3	1	non-food_inanimate_couch	0	N	10	0	176	0		0	0	127.255249099806	127.355232600123
29189.75	0.0999794998206198	324	hunger	stimuli/non_foods\non-food_inanimate_alarm_clock.jpg	1	3	1	non-food_inanimate_alarm_clock	0	G	4	0	158	0		0	0	127.405250600073	127.505230099894
29227.25	0.0999851999804378	325	hunger	stimuli/foods\cinnamon_sroll.jpg	1	3	1	cinnamon_sroll	1	N	10	0	31	0		0	0	127.555242400151	127.655227600131
29264.75	0.0999875999987125	326	hunger	stimuli/non_foods\non-food_animate_camel.jpg	1	3	1	non-food_animate_camel	0	C	1	0	97	0		0	0	127.705240699928	127.805228299927
29302.25	0.0999867003411055	327	hunger	stimuli/non_foods\non-food_inanimate_broom.jpg	1	3	1	non-food_inanimate_broom	0	T	14	0	164	0		0	0	127.855238299817	127.955225000158
29339.75	0.0999859999865294	328	hunger	stimuli/non_foods\non-food_animate_baby_sitting.jpg	1	3	1	non-food_animate_baby_sitting	0	P	11	0	93	0		0	0	128.005238700192	128.105224700179
29377.25	0.0999850002117455	329	hunger	stimuli/non_foods\non-food_inanimate_protractor.jpg	1	3	1	non-food_inanimate_protractor	0	V	15	0	201	0		0	0	128.155235299841	128.255220300052
29414.75	0.099987399764359	330	hunger	stimuli/non_foods\non-food_inanimate_cap.jpg	1	3	1	non-food_inanimate_cap	0	C	1	0	171	0		0	0	128.305232900195	128.405220299959
29452.25	0.0999623998068273	331	hunger	stimuli/foods\cherry.jpg	1	3	1	cherry	1	S	13	0	23	0		0	0	128.455233300105	128.555195699912
29489.75	0.0999686000868678	332	hunger	stimuli/non_foods\non-food_animate_seahorse.jpg	1	3	1	non-food_animate_seahorse	0	T	14	0	145	0		0	0	128.605244100094	128.705212700181
29527.25	0.10001439973712	333	hunger	stimuli/non_foods\non-food_animate_mammoth.jpg	1	3	1	non-food_animate_mammoth	0	M	9	0	128	0		0	0	128.755198500119	128.855212899856
29564.75	0.0999827003106475	334	hunger	stimuli/foods\pickles.jpg	1	3	1	pickles	1	F	3	0	242	0		0	0	128.905226099771	129.005208800081
29602.25	0.099991399794817	335	hunger	stimuli/non_foods\non-food_inanimate_toilet.jpg	1	3	1	non-food_inanimate_toilet	0	R	12	0	220	0		0	0	129.055218399968	129.155209799763
29639.75	0.0999940996989608	336	hunger	stimuli/foods\toasted_bread_with_tomatoes.jpg	1	3	1	toasted_bread_with_tomatoes	1	M	9	0	275	0		0	0	129.205225800164	129.305219899863
29677.25	0.0999845000915229	337	hunger	stimuli/non_foods\non-food_inanimate_leaf.jpg	1	3	1	non-food_inanimate_leaf	0	F	3	0	192	0		0	0	129.355222099926	129.455206600018
29714.75	0.099979099817574	338	hunger	stimuli/foods\peas.jpg	1	3	1	peas	1	X	17	0	240	0		0	0	129.505217200145	129.605196299963
29752.25	0.0999825000762939	339	hunger	stimuli/non_foods\non-food_animate_monkey.jpg	1	3	1	non-food_animate_monkey	0	H	5	0	130	0		0	0	129.65521909995	129.755201600026
29789.75	0.0999863999895751	340	hunger	stimuli/foods\minestrone_soup.jpg	1	3	1	minestrone_soup	1	K	7	0	82	0		0	0	129.805216799956	129.905203199945
29827.25	0.100001600105315	341	hunger	stimuli/foods\mandarin.jpg	1	3	1	mandarin	1	B	0	0	79	0		0	0	129.955207400024	130.055209000129
29864.75	0.0999825997278094	342	hunger	stimuli/non_foods\non-food_animate_polar_bear.jpg	1	3	1	non-food_animate_polar_bear	0	H	5	0	137	0		0	0	130.105206300039	130.205188899767
29902.25	0.0999862998723984	343	hunger	stimuli/foods\pumpkin.jpg	1	3	1	pumpkin	1	T	14	0	250	0		0	0	130.255201899912	130.355188199785
29939.75	0.0999837000854313	344	hunger	stimuli/foods\frankfurter_and_provolone_salad.jpg	1	3	1	frankfurter_and_provolone_salad	1	K	7	0	49	0		0	0	130.405201599933	130.505185300019
29977.25	0.0999884000048041	345	hunger	stimuli/non_foods\non-food_inanimate_tree.jpg	1	3	1	non-food_inanimate_tree	0	C	1	0	223	0		0	0	130.555196099915	130.655184499919
30014.75	0.0999948997050524	346	hunger	stimuli/foods\chestnut.jpg	1	3	1	chestnut	1	K	7	0	24	1	a	0	0	130.705197900068	130.805192799773
30052.25	0.0999889997765422	347	hunger	stimuli/non_foods\non-food_animate_sea_lion.jpg	1	3	1	non-food_animate_sea_lion	0	L	8	0	143	0		0	0	130.855204000138	130.955192999914
30089.75	0.100007500033826	348	hunger	stimuli/foods\chocolate_pudding.jpg	1	3	1	chocolate_pudding	1	C	1	0	29	0		0	0	131.005180799868	131.105188299902
30127.25	0.0999855999834836	349	hunger	stimuli/foods\cupcake.jpg	1	3	1	cupcake	1	H	5	0	42	0		0	0	131.155203700066	131.255189300049
30164.75	0.0999837997369468	350	hunger	stimuli/foods\potatoes.jpg	1	3	1	potatoes	1	L	8	0	248	0		0	0	131.305197800044	131.405181599781
30202.25	0.0999960997141898	351	hunger	stimuli/foods\croissant.jpg	1	3	1	croissant	1	K	7	0	40	0		0	0	131.455186100211	131.555182199925
30239.75	0.0999797000549734	352	hunger	stimuli/non_foods\non-food_inanimate_bowling_ball.jpg	1	3	1	non-food_inanimate_bowling_ball	0	G	4	0	162	0		0	0	131.605194800068	131.705174500123
30277.25	0.0999815999530256	353	hunger	stimuli/non_foods\non-food_inanimate_guitar.jpg	1	3	1	non-food_inanimate_guitar	0	S	13	0	185	0		0	0	131.755192600191	131.855174200144
30314.75	0.0999945001676679	354	hunger	stimuli/non_foods\non-food_inanimate_pine_cone.jpg	1	3	1	non-food_inanimate_pine_cone	0	M	9	0	200	0		0	0	131.905178899877	132.005173400044
30352.25	0.0999822001904249	355	hunger	stimuli/non_foods\non-food_animate_llama.jpg	1	3	1	non-food_animate_llama	0	Z	18	0	127	0		0	0	132.055186499842	132.155168700032
30389.75	0.10000710003078	356	hunger	stimuli/non_foods\non-food_animate_snail.jpg	1	3	1	non-food_animate_snail	0	T	14	0	149	0		0	0	132.205167800188	132.305174900219
30427.25	0.0999846998602152	357	hunger	stimuli/non_foods\non-food_animate_Causasian_man.jpg	1	3	1	non-food_animate_Causasian_man	0	Z	18	0	89	0		0	0	132.355185300112	132.455169999972
30464.75	0.0999900000169873	358	hunger	stimuli/non_foods\non-food_animate_squirrel.jpg	1	3	1	non-food_animate_squirrel	0	X	17	0	150	0		0	0	132.505172600038	132.605162600055
30502.25	0.0999871999956667	359	hunger	stimuli/foods\coffee_beans.jpg	1	3	1	coffee_beans	1	P	11	0	34	0		0	0	132.655174700078	132.755161900073
30539.75	0.0999773000366986	360	hunger	stimuli/foods\waffle.jpg	1	3	1	waffle	1	Z	18	0	278	0		0	0	132.805186599959	132.905163899995
30577.25	0.099964200053364	361	hunger	stimuli/foods\red_cabbage.jpg	1	3	1	red_cabbage	1	H	5	0	256	0		0	0	132.955198300071	133.055162500124
30614.75	0.0999751999042928	362	hunger	stimuli/foods\green_olives.jpg	1	3	1	green_olives	1	C	1	0	62	0		0	0	133.105180100072	133.205155299976
30652.25	0.0999845000915229	363	hunger	stimuli/non_foods\non-food_animate_yellow_bug.jpg	1	3	1	non-food_animate_yellow_bug	0	D	2	0	155	0		0	0	133.255169400014	133.355153900106
30689.75	0.0999845000915229	364	hunger	stimuli/non_foods\non-food_inanimate_padlock.jpg	1	3	1	non-food_inanimate_padlock	0	V	15	0	199	0		0	0	133.405168899801	133.505153399892
30727.25	0.0999982999637723	365	hunger	stimuli/non_foods\non-food_animate_fox.jpg	1	3	1	non-food_animate_fox	0	K	7	0	112	0		0	0	133.555166400038	133.655164700001
30764.75	0.0999819999560714	366	hunger	stimuli/foods\museli_bars.jpg	1	3	1	museli_bars	1	N	10	0	84	0		0	0	133.705170799978	133.805152799934
30802.25	0.0999954002909362	367	hunger	stimuli/foods\cooked_ham.jpg	1	3	1	cooked_ham	1	P	11	0	35	0		0	0	133.855161299929	133.95515670022
30839.75	0.0999865997582674	368	hunger	stimuli/foods\garlic.jpg	1	3	1	garlic	1	T	14	0	56	0		0	0	134.005167100113	134.105153699871
30877.25	0.0999970999546349	369	hunger	stimuli/foods\cinnamon.jpg	1	3	1	cinnamon	1	H	5	0	30	0		0	0	134.155146100093	134.255143200047
30914.75	0.099976200144738	370	hunger	stimuli/non_foods\non-food_inanimate_horn.jpg	1	3	1	non-food_inanimate_horn	0	Z	18	0	190	0		0	0	134.30514909979	134.405125299934
30952.25	0.0999878998845816	371	hunger	stimuli/non_foods\non-food_inanimate_highlighter.jpg	1	3	1	non-food_inanimate_highlighter	0	S	13	0	189	0		0	0	134.45515449997	134.555142399855
30989.75	0.100017099641263	372	hunger	stimuli/non_foods\non-food_inanimate_orchid.jpg	1	3	1	non-food_inanimate_orchid	0	V	15	0	198	0		0	0	134.605133700185	134.705150799826
31027.25	0.0999803002923727	373	hunger	stimuli/non_foods\non-food_animate_chicken.jpg	1	3	1	non-food_animate_chicken	0	L	8	0	101	0		0	0	134.755154899787	134.85513520008
31064.75	0.099985099863261	374	hunger	stimuli/foods\avocado.jpg	1	3	1	avocado	1	D	2	0	5	0		0	0	134.905147400219	135.005132500082
31102.25	0.0999978999607265	375	hunger	stimuli/foods\wafer.jpg	1	3	1	wafer	1	K	7	0	277	0		0	0	135.055137999821	135.155135899782
31139.75	0.0999741000123322	376	hunger	stimuli/non_foods\non-food_animate_bat.jpg	1	3	1	non-food_animate_bat	0	F	3	0	94	0		0	0	135.205153000075	135.305127100088
31177.25	0.100006600376219	377	hunger	stimuli/non_foods\non-food_animate_raccoon.jpg	1	3	1	non-food_animate_raccoon	0	J	6	0	139	0		0	0	135.355132199824	135.4551388002
31214.75	0.0999703002162278	378	hunger	stimuli/foods\hotdog.jpg	1	3	1	hotdog	1	W	16	0	67	0		0	0	135.505152099766	135.605122399982
31252.25	0.100012900307775	379	hunger	stimuli/foods\papaya.jpg	1	3	1	papaya	1	P	11	0	235	0		0	0	135.65515269991	135.755165600218
31289.75	0.0999869001097977	380	hunger	stimuli/foods\radish.jpg	1	3	1	radish	1	X	17	0	251	0		0	0	135.805148399901	135.90513530001
31327.25	0.099985099863261	381	hunger	stimuli/non_foods\non-food_inanimate_towel.jpg	1	3	1	non-food_inanimate_towel	0	D	2	0	221	0		0	0	135.955146499909	136.055131599773
31364.75	0.0999918999150395	382	hunger	stimuli/non_foods\non-food_inanimate_fern.jpg	1	3	1	non-food_inanimate_fern	0	F	3	0	180	0		0	0	136.105142800137	136.205134700052
31402.25	0.100001899991184	383	hunger	stimuli/non_foods\non-food_animate_skunk.jpg	1	3	1	non-food_animate_skunk	0	J	6	0	147	0		0	0	136.255119100213	136.355121000204
31439.75	0.099985099863261	384	hunger	stimuli/foods\lemon_meringue_pie.jpg	1	3	1	lemon_meringue_pie	1	R	12	0	73	0		0	0	136.405140600167	136.50512570003
31477.25	0.0999863999895751	385	hunger	stimuli/foods\fruit_pie.jpg	1	3	1	fruit_pie	1	F	3	0	54	0		0	0	136.55513169989	136.655118099879
31514.75	0.0999878998845816	386	hunger	stimuli/non_foods\non-food_animate_dragonfly.jpg	1	3	1	non-food_animate_dragonfly	0	T	14	0	108	0		0	0	136.7051256001	136.805113499984
31552.25	0.0999875999987125	387	hunger	stimuli/non_foods\non-food_inanimate_tent.jpg	1	3	1	non-food_inanimate_tent	0	X	17	0	219	0		0	0	136.855126999784	136.955114599783
31589.75	0.0999908000230789	388	hunger	stimuli/non_foods\non-food_animate_cow.jpg	1	3	1	non-food_animate_cow	0	P	11	0	103	0		0	0	137.005117100198	137.105107900221
31627.25	0.0999858002178371	389	hunger	stimuli/non_foods\non-food_animate_Asian_man.jpg	1	3	1	non-food_animate_Asian_man	0	F	3	0	88	0		0	0	137.155129199848	137.255115000065
31664.75	0.0999691998586059	390	hunger	stimuli/foods\cereal.jpg	1	3	1	cereal	1	L	8	0	22	0		0	0	137.305121900048	137.405091099907
31702.25	0.0999981998465955	391	hunger	stimuli/non_foods\non-food_inanimate_nailpolish.jpg	1	3	1	non-food_inanimate_nailpolish	0	N	10	0	195	0		0	0	137.455103800166	137.555102000013
31739.75	0.0999695002101362	392	hunger	stimuli/foods\grapes.jpg	1	3	1	grapes	1	D	2	0	60	0		0	0	137.605125799775	137.705095299985
31777.25	0.0999861001037061	393	hunger	stimuli/foods\oven-roasted_tomatoes.jpg	1	3	1	oven-roasted_tomatoes	1	L	8	0	232	0		0	0	137.755116399843	137.855102499947
31814.75	0.0999718001112342	394	hunger	stimuli/foods\lollies.jpg	1	3	1	lollies	1	R	12	0	78	0		0	0	137.905111100059	138.00508290017
31852.25	0.0999863999895751	395	hunger	stimuli/foods\rice.jpg	1	3	1	rice	1	H	5	0	257	0		0	0	138.055123100057	138.155109500047
31889.75	0.0999993002042174	396	hunger	stimuli/non_foods\non-food_inanimate_hay.jpg	1	3	1	non-food_inanimate_hay	0	W	16	0	187	0		0	0	138.205103999935	138.305103300139
31927.25	0.100003700237721	397	hunger	stimuli/non_foods\non-food_animate_pigeon.jpg	1	3	1	non-food_animate_pigeon	0	G	4	0	136	0		0	0	138.35509889992	138.455102600157
31964.75	0.0999854998663068	398	hunger	stimuli/foods\cauliflower.jpg	1	3	1	cauliflower	1	D	2	0	20	0		0	0	138.505117500201	138.605103000067
32002.25	0.100003200117499	399	hunger	stimuli/non_foods\non-food_inanimate_drum_set.jpg	1	3	1	non-food_inanimate_drum_set	0	R	12	0	179	0		0	0	138.655092400033	138.755095600151
32039.75	0.100006700027734	400	hunger	stimuli/non_foods\non-food_inanimate_buds.jpg	1	3	1	non-food_inanimate_buds	0	F	3	0	166	0		0	0	138.805091999937	138.905098699965
32077.25	0.0999871999956667	401	hunger	stimuli/foods\chocolate_pralines.jpg	1	3	1	chocolate_pralines	1	R	12	0	28	0		0	0	138.955111999996	139.055099199992
32114.75	0.0999871999956667	402	hunger	stimuli/foods\orange.jpg	1	3	1	orange	1	B	0	0	230	0		0	0	139.105097999796	139.205085199792
32152.25	0.0999954999424517	403	hunger	stimuli/foods\fries.jpg	1	3	1	fries	1	K	7	0	52	0		0	0	139.255100599956	139.355096099898
32189.75	0.0999718997627497	404	hunger	stimuli/non_foods\non-food_animate_lizard.jpg	1	3	1	non-food_animate_lizard	0	R	12	0	126	0		0	0	139.405107500032	139.505079399794
32227.25	0.0999889997765422	405	hunger	stimuli/non_foods\non-food_animate_ram.jpg	1	3	1	non-food_animate_ram	0	D	2	0	140	0		0	0	139.555092100054	139.655081099831
32264.75	0.0999858002178371	406	hunger	stimuli/foods\smoked_ham.jpg	1	3	1	smoked_ham	1	T	14	0	266	0		0	0	139.705094499979	139.805080300197
32302.25	0.0999655001796782	407	hunger	stimuli/non_foods\non-food_inanimate_headphones.jpg	1	3	1	non-food_inanimate_headphones	0	F	3	0	188	0		0	0	139.855112699792	139.955078199971
32339.75	0.0999862002208829	408	hunger	stimuli/non_foods\non-food_animate_elephant.jpg	1	3	1	non-food_animate_elephant	0	K	7	0	111	0		0	0	140.00509059988	140.105076800101
32377.25	0.10000369977206	409	hunger	stimuli/non_foods\non-food_inanimate_tulip.jpg	1	3	1	non-food_inanimate_tulip	0	A	19	1	224	0		0	0	140.155078500044	140.255082199816
32414.75	0.100009600166231	410	hunger	stimuli/non_foods\non-food_inanimate_jeans.jpg	1	3	1	non-food_inanimate_jeans	0	T	14	0	191	0		0	0	140.30506179994	140.405071400106
32452.25	0.0999696999788284	411	hunger	stimuli/foods\lime.jpg	1	3	1	lime	1	P	11	0	76	0		0	0	140.455083900131	140.55505360011
32489.75	0.0999950999394059	412	hunger	stimuli/foods\spinach.jpg	1	3	1	spinach	1	L	8	0	268	1	a	0.541820699814707	1	140.605069499929	140.705064599868
32527.25	0.0999906999059021	413	hunger	stimuli/non_foods\non-food_animate_duck.jpg	1	3	1	non-food_animate_duck	0	P	11	0	109	0		0	0	140.755081600044	140.85507229995
32564.75	0.0999862002208829	414	hunger	stimuli/non_foods\non-food_animate_mouse.jpg	1	3	1	non-food_animate_mouse	0	L	8	0	131	0		0	0	140.905082399957	141.005068600178
32602.25	0.0999834001995623	415	hunger	stimuli/foods\apricot.jpg	1	3	1	apricot	1	H	5	0	2	0		0	0	141.055080099963	141.155063500162
32639.75	0.099982799962163	416	hunger	stimuli/non_foods\non-food_animate_young_girl.jpg	1	3	1	non-food_animate_young_girl	0	W	16	0	157	0		0	0	141.2050776002	141.305060400162
32677.25	0.0999842002056539	417	hunger	stimuli/foods\almonds.jpg	1	3	1	almonds	1	S	13	0	0	0		0	0	141.355077799875	141.455062000081
32714.75	0.0999904000200331	418	hunger	stimuli/non_foods\non-food_inanimate_short_sleeved_shirt.jpg	1	3	1	non-food_inanimate_short_sleeved_shirt	0	T	14	0	207	0		0	0	141.505068799946	141.605059199966
32752.25	0.099964200053364	419	hunger	stimuli/foods\stew_with_potatoes_and_carrots.jpg	1	3	1	stew_with_potatoes_and_carrots	1	P	11	0	271	0		0	0	141.655096800067	141.75506100012
35089.75	0.0999948000535369	420	hunger	stimuli/non_foods\non-food_animate_baby_crawling.jpg	1	4	1	non-food_animate_baby_crawling	0	X	17	0	92	0		0	0	151.004982099868	151.104976899922
35127.25	0.0999415996484458	421	hunger	stimuli/foods\red_beans.jpg	1	4	1	red_beans	1	S	13	0	255	0		0	0	151.155005100183	151.254946699832
35164.75	0.0999811999499798	422	hunger	stimuli/foods\steak.jpg	1	4	1	steak	1	N	10	0	270	0		0	0	151.304969499819	151.404950699769
35202.25	0.0999924000352621	423	hunger	stimuli/non_foods\non-food_inanimate_construction_helment.jpg	1	4	1	non-food_inanimate_construction_helment	0	R	12	0	175	0		0	0	151.454951200169	151.554943600204
35239.75	0.0999834001995623	424	hunger	stimuli/foods\mussels.jpg	1	4	1	mussels	1	N	10	0	86	0		0	0	151.604956700001	151.7049401002
35277.25	0.099970200099051	425	hunger	stimuli/non_foods\non-food_inanimate_cupboard.jpg	1	4	1	non-food_inanimate_cupboard	0	C	1	0	177	0		0	0	151.754963600077	151.854933800176
35314.75	0.0999874002300203	426	hunger	stimuli/non_foods\non-food_inanimate_wrench.jpg	1	4	1	non-food_inanimate_wrench	0	L	8	0	227	0		0	0	151.904962799978	152.004950200208
35352.25	0.0999862002208829	427	hunger	stimuli/non_foods\non-food_animate_porcupine.jpg	1	4	1	non-food_animate_porcupine	0	S	13	0	138	0		0	0	152.054960899986	152.154947100207
35389.75	0.0999584002420306	428	hunger	stimuli/non_foods\non-food_inanimate_table.jpg	1	4	1	non-food_inanimate_table	0	J	6	0	217	0		0	0	152.204985199962	152.304943600204
35427.25	0.0999855999834836	429	hunger	stimuli/foods\cracker.jpg	1	4	1	cracker	1	W	16	0	38	0		0	0	152.354955499992	152.454941099975
35464.75	0.100022399798036	430	hunger	stimuli/foods\prawn.jpg	1	4	1	prawn	1	S	13	0	249	0		0	0	152.504943400156	152.604965799954
35502.25	0.0999877001158893	431	hunger	stimuli/non_foods\non-food_animate_gorilla.jpg	1	4	1	non-food_animate_gorilla	0	B	0	0	116	0		0	0	152.654936899897	152.754924600013
35539.75	0.0999886998906732	432	hunger	stimuli/foods\green_beans.jpg	1	4	1	green_beans	1	P	11	0	61	0		0	0	152.804947500117	152.904936200008
35577.25	0.0999837000854313	433	hunger	stimuli/non_foods\non-food_animate_runner.jpg	1	4	1	non-food_animate_runner	0	V	15	0	142	0		0	0	152.954952499829	153.054936199915
35614.75	0.099966200068593	434	hunger	stimuli/non_foods\non-food_animate_parrot.jpg	1	4	1	non-food_animate_parrot	0	S	13	0	133	0		0	0	153.10494170012	153.204907900188
35652.25	0.0999839999713004	435	hunger	stimuli/foods\cabbage.jpg	1	4	1	cabbage	1	G	4	0	16	0		0	0	153.254937599879	153.35492159985
35689.75	0.0999892000108957	436	hunger	stimuli/non_foods\non-food_inanimate_skateboard.jpg	1	4	1	non-food_inanimate_skateboard	0	F	3	0	208	0		0	0	153.404931600206	153.504920800216
35727.25	0.0999834998510778	437	hunger	stimuli/foods\dates.jpg	1	4	1	dates	1	Z	18	0	43	0		0	0	153.554943100084	153.654926599935
35764.75	0.0999741000123322	438	hunger	stimuli/foods\pineapple.jpg	1	4	1	pineapple	1	L	8	0	243	0		0	0	153.704941799864	153.804915899877
35802.25	0.0999631998129189	439	hunger	stimuli/non_foods\non-food_animate_seal.jpg	1	4	1	non-food_animate_seal	0	X	17	0	146	0		0	0	153.85494050011	153.954903699923
35839.75	0.0999889997765422	440	hunger	stimuli/foods\rice_cake.jpg	1	4	1	rice_cake	1	N	10	0	258	0		0	0	154.004930600058	154.104919599835
35877.25	0.0999788003973663	441	hunger	stimuli/non_foods\non-food_inanimate_socks.jpg	1	4	1	non-food_inanimate_socks	0	R	12	0	211	0		0	0	154.154935999773	154.254914800171
35914.75	0.10000539990142	442	hunger	stimuli/foods\onion.jpg	1	4	1	onion	1	G	4	0	229	0		0	0	154.304904500023	154.404909899924
35952.25	0.0999758997932076	443	hunger	stimuli/non_foods\non-food_animate_killer_whale.jpg	1	4	1	non-food_animate_killer_whale	0	P	11	0	123	0		0	0	154.454924500082	154.554900399875
35989.75	0.0999719998799264	444	hunger	stimuli/non_foods\non-food_inanimate_bed.jpg	1	4	1	non-food_inanimate_bed	0	M	9	0	160	0		0	0	154.604918300174	154.704890300054
36027.25	0.0999545999802649	445	hunger	stimuli/non_foods\non-food_animate_giraffe.jpg	1	4	1	non-food_animate_giraffe	0	H	5	0	115	0		0	0	154.754959200043	154.854913800023
36064.75	0.099987399764359	446	hunger	stimuli/foods\donut.jpg	1	4	1	donut	1	X	17	0	44	0		0	0	154.904928400181	155.004915799946
36102.25	0.0999795999377966	447	hunger	stimuli/foods\lentils.jpg	1	4	1	lentils	1	C	1	0	74	0		0	0	155.054925399832	155.15490499977
36139.75	0.0999714997597039	448	hunger	stimuli/foods\strawberry.jpg	1	4	1	strawberry	1	X	17	0	272	0		0	0	155.204917800147	155.304889299907
36177.25	0.100002800114453	449	hunger	stimuli/non_foods\non-food_animate_swan.jpg	1	4	1	non-food_animate_swan	0	Z	18	0	152	0		0	0	155.354902499821	155.454905299935
36214.75	0.0999861001037061	450	hunger	stimuli/foods\clams.jpg	1	4	1	clams	1	X	17	0	32	0		0	0	155.504917399958	155.604903500061
36252.25	0.100025199819356	451	hunger	stimuli/non_foods\non-food_animate_cat.jpg	1	4	1	non-food_animate_cat	0	J	6	0	98	0		0	0	155.654921100009	155.754946299829
36289.75	0.0999843999743462	452	hunger	stimuli/non_foods\non-food_inanimate_cactus_pot_plant.jpg	1	4	1	non-food_inanimate_cactus_pot_plant	0	S	13	0	169	0		0	0	155.804908799939	155.904893199913
36327.25	0.100010999944061	453	hunger	stimuli/non_foods\non-food_inanimate_rope.jpg	1	4	1	non-food_inanimate_rope	0	H	5	0	204	0		0	0	155.954889799934	156.054900799878
36364.75	0.0999868996441364	454	hunger	stimuli/non_foods\non-food_animate_millipede.jpg	1	4	1	non-food_animate_millipede	0	X	17	0	129	0		0	0	156.104914700147	156.204901599791
36402.25	0.100010899826884	455	hunger	stimuli/non_foods\non-food_inanimate_scissors.jpg	1	4	1	non-food_inanimate_scissors	0	F	3	0	205	0		0	0	156.254891700111	156.354902599938
36439.75	0.0999584002420306	456	hunger	stimuli/foods\omelette.jpg	1	4	1	omelette	1	P	11	0	228	0		0	0	156.404935299885	156.504893700127
36477.25	0.0999874998815358	457	hunger	stimuli/non_foods\non-food_animate_deer.jpg	1	4	1	non-food_animate_deer	0	V	15	0	105	0		0	0	156.554906100035	156.654893599916
36514.75	0.0999722997657955	458	hunger	stimuli/non_foods\non-food_animate_frog.jpg	1	4	1	non-food_animate_frog	0	H	5	0	113	0		0	0	156.704911400098	156.804883699864
36552.25	0.0999859999865294	459	hunger	stimuli/non_foods\non-food_animate_rhino.jpg	1	4	1	non-food_animate_rhino	0	N	10	0	141	0		0	0	156.85489670001	156.954882699996
36589.75	0.0999830001965165	460	hunger	stimuli/non_foods\non-food_inanimate_nest.jpg	1	4	1	non-food_inanimate_nest	0	M	9	0	196	0		0	0	157.004897899926	157.104880900122
36627.25	0.0999837000854313	461	hunger	stimuli/foods\roasted_chicken.jpg	1	4	1	roasted_chicken	1	G	4	0	261	0		0	0	157.15489629982	157.254879999906
36664.75	0.0999867999926209	462	hunger	stimuli/foods\ice_cream.jpg	1	4	1	ice_cream	1	S	13	0	68	0		0	0	157.304889500141	157.404876300134
36702.25	0.10000649979338	463	hunger	stimuli/non_foods\non-food_animate_peacock.jpg	1	4	1	non-food_animate_peacock	0	X	17	0	134	0		0	0	157.454880000092	157.554886499885
36739.75	0.0999882998876274	464	hunger	stimuli/foods\capsicum.jpg	1	4	1	capsicum	1	C	1	0	18	0		0	0	157.604895099998	157.704883399885
36777.25	0.0999863999895751	465	hunger	stimuli/non_foods\non-food_animate_lion.jpg	1	4	1	non-food_animate_lion	0	H	5	0	125	0		0	0	157.754894199781	157.854880599771
36814.75	0.0999857997521758	466	hunger	stimuli/non_foods\non-food_animate_iguana.jpg	1	4	1	non-food_animate_iguana	0	J	6	0	121	0		0	0	157.904887800105	158.004873599857
36852.25	0.0999803999438882	467	hunger	stimuli/non_foods\non-food_inanimate_bicycle.jpg	1	4	1	non-food_inanimate_bicycle	0	B	0	0	161	0		0	0	158.054885200225	158.154865600169
36889.75	0.0999793000519276	468	hunger	stimuli/foods\brownie.jpg	1	4	1	brownie	1	T	14	0	14	0		0	0	158.204898199998	158.30487750005
36927.25	0.099983399733901	469	hunger	stimuli/foods\celery.jpg	1	4	1	celery	1	R	12	0	21	0		0	0	158.354879400227	158.454862799961
36964.75	0.100017999764532	470	hunger	stimuli/foods\blackberry.jpg	1	4	1	blackberry	1	D	2	0	11	0		0	0	158.504857200198	158.604875199962
37002.25	0.0999839999713004	471	hunger	stimuli/non_foods\non-food_inanimate_stoplight.jpg	1	4	1	non-food_inanimate_stoplight	0	P	11	0	214	0		0	0	158.654887699988	158.754871699959
37039.75	0.0999559997580945	472	hunger	stimuli/non_foods\non-food_animate_hummingbird.jpg	1	4	1	non-food_animate_hummingbird	0	L	8	0	120	0		0	0	158.804882800207	158.904838799965
37077.25	0.0999841000884771	473	hunger	stimuli/foods\risotto_with_zucchini.jpg	1	4	1	risotto_with_zucchini	1	N	10	0	260	0		0	0	158.954883799888	159.054867899977
37114.75	0.0999990999698639	474	hunger	stimuli/foods\risotto_with_peas_and_asparagus_tips.jpg	1	4	1	risotto_with_peas_and_asparagus_tips	1	H	5	0	259	0		0	0	159.104856799822	159.204855899792
37152.25	0.100013799965382	475	hunger	stimuli/non_foods\non-food_animate_dolphin.jpg	1	4	1	non-food_animate_dolphin	0	P	11	0	106	0		0	0	159.254871400073	159.354885200039
37189.75	0.0999980000779033	476	hunger	stimuli/non_foods\non-food_inanimate_sun_flower.jpg	1	4	1	non-food_inanimate_sun_flower	0	G	4	0	216	0		0	0	159.40486270003	159.504860700108
37227.25	0.0999835999682546	477	hunger	stimuli/foods\fried_zucchini.jpg	1	4	1	fried_zucchini	1	T	14	0	51	0		0	0	159.554873600136	159.654857200105
37264.75	0.0999925001524389	478	hunger	stimuli/foods\tomato.jpg	1	4	1	tomato	1	D	2	0	276	0		0	0	159.704869799782	159.804862299934
37302.25	0.0999840996228158	479	hunger	stimuli/foods\coconut.jpg	1	4	1	coconut	1	F	3	0	33	0		0	0	159.854871800169	159.954855899792
37339.75	0.0999635998159647	480	hunger	stimuli/non_foods\non-food_inanimate_button.jpg	1	4	1	non-food_inanimate_button	0	N	10	0	168	0		0	0	160.004890600219	160.104854200035
37377.25	0.0999682997353375	481	hunger	stimuli/foods\egg.jpg	1	4	1	egg	1	D	2	0	45	0		0	0	160.154888300225	160.25485659996
37414.75	0.0999869001097977	482	hunger	stimuli/foods\pea_pod.jpg	1	4	1	pea_pod	1	P	11	0	237	0		0	0	160.304865600076	160.404852500185
37452.25	0.0999881001189351	483	hunger	stimuli/non_foods\non-food_inanimate_shell.jpg	1	4	1	non-food_inanimate_shell	0	N	10	0	206	0		0	0	160.454864900094	160.554853000212
37489.75	0.0999873001128435	484	hunger	stimuli/non_foods\non-food_animate_tortoise.jpg	1	4	1	non-food_animate_tortoise	0	P	11	0	153	0		0	0	160.604863199871	160.704850499984
37527.25	0.0999941001646221	485	hunger	stimuli/foods\mortadella.jpg	1	4	1	mortadella	1	H	5	0	83	0		0	0	160.754836699925	160.85483080009
37564.75	0.10002029966563	486	hunger	stimuli/foods\ginger_root.jpg	1	4	1	ginger_root	1	S	13	0	57	0		0	0	160.904827800114	161.004848099779
37602.25	0.0999842002056539	487	hunger	stimuli/non_foods\non-food_animate_ant.jpg	1	4	1	non-food_animate_ant	0	N	10	0	91	0		0	0	161.054857499897	161.154841700103
37639.75	0.0999579001218081	488	hunger	stimuli/foods\lemon.jpg	1	4	1	lemon	1	X	17	0	72	0		0	0	161.204856100027	161.304814000148
37677.25	0.100015500094742	489	hunger	stimuli/foods\fruit_flan.jpg	1	4	1	fruit_flan	1	G	4	0	53	0		0	0	161.354835399892	161.454850899987
37714.75	0.0999838002026081	490	hunger	stimuli/foods\gnocchi.jpg	1	4	1	gnocchi	1	K	7	0	58	0		0	0	161.504846199881	161.604830000084
37752.25	0.0999867999926209	491	hunger	stimuli/foods\oregano.jpg	1	4	1	oregano	1	T	14	0	231	0		0	0	161.654846299905	161.754833099898
37789.75	0.0999845997430384	492	hunger	stimuli/foods\peach.jpg	1	4	1	peach	1	J	6	0	238	0		0	0	161.804842900019	161.904827499762
37827.25	0.0999699998646975	493	hunger	stimuli/non_foods\non-food_animate_donkey.jpg	1	4	1	non-food_animate_donkey	0	F	3	0	107	0		0	0	161.954834800214	162.054804800078
37864.75	0.100018000230193	494	hunger	stimuli/non_foods\non-food_inanimate_briefcase.jpg	1	4	1	non-food_inanimate_briefcase	0	G	4	0	163	0		0	0	162.104814399965	162.204832400195
37902.25	0.0999750001356006	495	hunger	stimuli/non_foods\non-food_inanimate_folding_chair.jpg	1	4	1	non-food_inanimate_folding_chair	0	X	17	0	182	0		0	0	162.254844199866	162.354819200002
37939.75	0.0999863999895751	496	hunger	stimuli/foods\meatballs.jpg	1	4	1	meatballs	1	N	10	0	81	0		0	0	162.404839199968	162.504825599957
37977.25	0.0999858002178371	497	hunger	stimuli/foods\lasagna.jpg	1	4	1	lasagna	1	L	8	0	71	0		0	0	162.554841300007	162.654827100225
38014.75	0.100010499823838	498	hunger	stimuli/non_foods\non-food_inanimate_toy_airplane.jpg	1	4	1	non-food_inanimate_toy_airplane	0	K	7	0	222	0		0	0	162.704813200049	162.804823699873
38052.25	0.100001900456846	499	hunger	stimuli/foods\kiwi.jpg	1	4	1	kiwi	1	N	10	0	69	0		0	0	162.854834499769	162.954836400226
38089.75	0.0999590000137687	500	hunger	stimuli/non_foods\non-food_inanimate_suitcase.jpg	1	4	1	non-food_inanimate_suitcase	0	M	9	0	215	0		0	0	163.004834900144	163.104793900158
38127.25	0.0999857001006603	501	hunger	stimuli/non_foods\non-food_inanimate_skirt.jpg	1	4	1	non-food_inanimate_skirt	0	W	16	0	209	0		0	0	163.154825599864	163.254811299965
38164.75	0.099989699665457	502	hunger	stimuli/foods\taco.jpg	1	4	1	taco	1	V	15	0	274	0		0	0	163.304823100101	163.404812799767
38202.25	0.0999774001538754	503	hunger	stimuli/foods\watermelon.jpg	1	4	1	watermelon	1	Z	18	0	279	0		0	0	163.454828899819	163.554806299973
38239.75	0.100019100122154	504	hunger	stimuli/foods\nectarine.jpg	1	4	1	nectarine	1	L	8	0	87	0		0	0	163.604809499811	163.704828599934
38277.25	0.0999952997080982	505	hunger	stimuli/non_foods\non-food_animate_horse.jpg	1	4	1	non-food_animate_horse	0	B	0	0	119	0		0	0	163.75482770009	163.854822999798
38314.75	0.100012300070375	506	hunger	stimuli/foods\baked_cod_with_carrots_and_green_beans.jpg	1	4	1	baked_cod_with_carrots_and_green_beans	1	Z	18	0	7	0		0	0	163.904799100012	164.004811400082
38352.25	0.0999695002101362	507	hunger	stimuli/foods\chocolate_bar.jpg	1	4	1	chocolate_bar	1	K	7	0	26	0		0	0	164.054821699858	164.154791200068
38389.75	0.0999859003350139	508	hunger	stimuli/non_foods\non-food_inanimate_desk.jpg	1	4	1	non-food_inanimate_desk	0	M	9	0	178	0		0	0	164.204812999815	164.30479890015
38427.25	0.0999864996410906	509	hunger	stimuli/foods\cooked_prawn.jpg	1	4	1	cooked_prawn	1	G	4	0	36	0		0	0	164.354813000187	164.454799499828
38464.75	0.0999946999363601	510	hunger	stimuli/foods\fennel.jpg	1	4	1	fennel	1	W	16	0	47	0		0	0	164.504811000079	164.604805700015
38502.25	0.0999866998754442	511	hunger	stimuli/foods\swordfish.jpg	1	4	1	swordfish	1	O	22	1	273	0		0	0	164.654817400035	164.75480409991
38539.75	0.099976200144738	512	hunger	stimuli/foods\rockmelon.jpg	1	4	1	rockmelon	1	L	8	0	262	0		0	0	164.80481459992	164.904790800065
38577.25	0.0999806998297572	513	hunger	stimuli/non_foods\non-food_inanimate_clover.jpg	1	4	1	non-food_inanimate_clover	0	G	4	0	174	0		0	0	164.954807300121	165.05478799995
38614.75	0.0999847003258765	514	hunger	stimuli/non_foods\non-food_animate_eagle.jpg	1	4	1	non-food_animate_eagle	0	V	15	0	110	1	a	0.443184699863195	1	165.104805199895	165.204789900221
38652.25	0.099968200083822	515	hunger	stimuli/non_foods\non-food_animate_slug.jpg	1	4	1	non-food_animate_slug	0	Z	18	0	148	0		0	0	165.254808399826	165.35477659991
38689.75	0.100000499747694	516	hunger	stimuli/foods\lamb_chops.jpg	1	4	1	lamb_chops	1	B	0	0	70	0		0	0	165.404786100145	165.504786599893
38727.25	0.0999686000868678	517	hunger	stimuli/foods\salmon.jpg	1	4	1	salmon	1	D	2	0	264	0		0	0	165.554794399999	165.654763000086
38764.75	0.0999781000427902	518	hunger	stimuli/foods\artichoke.jpg	1	4	1	artichoke	1	W	16	0	3	0		0	0	165.70480629988	165.804784399923
38802.25	0.099983399733901	519	hunger	stimuli/non_foods\non-food_inanimate_fire_extinguisher.jpg	1	4	1	non-food_inanimate_fire_extinguisher	0	X	17	0	181	0		0	0	165.854795400053	165.954778799787
38839.75	0.0999861001037061	520	hunger	stimuli/non_foods\non-food_inanimate_rack.jpg	1	4	1	non-food_inanimate_rack	0	C	1	0	202	0		0	0	166.004792999942	166.104779100046
38877.25	0.0999821000732481	521	hunger	stimuli/non_foods\non-food_inanimate_chair.jpg	1	4	1	non-food_inanimate_chair	0	R	12	0	172	0		0	0	166.154795499984	166.254777600057
38914.75	0.0999803999438882	522	hunger	stimuli/foods\grapefruits.jpg	1	4	1	grapefruits	1	T	14	0	59	0		0	0	166.304791899864	166.404772299808
38952.25	0.0999390999786556	523	hunger	stimuli/foods\pear.jpg	1	4	1	pear	1	R	12	0	239	0		0	0	166.454843599815	166.554782699794
38989.75	0.0999817000702024	524	hunger	stimuli/foods\lettuce.jpg	1	4	1	lettuce	1	Z	18	0	75	0		0	0	166.60479500005	166.70477670012
39027.25	0.0999861001037061	525	hunger	stimuli/foods\chilli.jpg	1	4	1	chilli	1	H	5	0	25	0		0	0	166.754790499806	166.85477659991
39064.75	0.0999811999499798	526	hunger	stimuli/foods\raw_ham.jpg	1	4	1	raw_ham	1	Z	18	0	253	0		0	0	166.904790800065	167.004772000015
39102.25	0.100003500003368	527	hunger	stimuli/non_foods\non-food_animate_ladybug.jpg	1	4	1	non-food_animate_ladybug	0	S	13	0	124	0		0	0	167.054784399923	167.154787899926
39139.75	0.0999874998815358	528	hunger	stimuli/non_foods\non-food_inanimate_lighter.jpg	1	4	1	non-food_inanimate_lighter	0	V	15	0	193	0		0	0	167.204786099959	167.304773599841
39177.25	0.0999804004095495	529	hunger	stimuli/foods\raw_sausage.jpg	1	4	1	raw_sausage	1	W	16	0	254	0		0	0	167.354787999764	167.454768400174
39214.75	0.0999695002101362	530	hunger	stimuli/non_foods\non-food_animate_kangaroo.jpg	1	4	1	non-food_animate_kangaroo	0	T	14	0	122	0		0	0	167.504784999881	167.604754500091
39252.25	0.099965900182724	531	hunger	stimuli/non_foods\non-food_animate_butterfly.jpg	1	4	1	non-food_animate_butterfly	0	M	9	0	96	0		0	0	167.654784000013	167.754749900196
39289.75	0.0999839999713004	532	hunger	stimuli/non_foods\non-food_animate_woman.jpg	1	4	1	non-food_animate_woman	0	Z	18	0	154	0		0	0	167.804782200139	167.90476620011
39327.25	0.0999847003258765	533	hunger	stimuli/non_foods\non-food_animate_penguin.jpg	1	4	1	non-food_animate_penguin	0	R	12	0	135	0		0	0	167.954781599808	168.054766300134
39364.75	0.0999782001599669	534	hunger	stimuli/foods\banana.jpg	1	4	1	banana	1	Z	18	0	9	0		0	0	168.104777299799	168.204755499959
39402.25	0.0999969001859426	535	hunger	stimuli/non_foods\non-food_animate_cheetah.jpg	1	4	1	non-food_animate_cheetah	0	B	0	0	100	0		0	0	168.254765599966	168.354762500152
39439.75	0.0999622000381351	536	hunger	stimuli/non_foods\non-food_animate_caterpillar.jpg	1	4	1	non-food_animate_caterpillar	0	F	3	0	99	0		0	0	168.404789499938	168.504751699977
39477.25	0.0999838998541236	537	hunger	stimuli/foods\hamburger.jpg	1	4	1	hamburger	1	V	15	0	64	0		0	0	168.554764700122	168.654748599976
39514.75	0.100000299979001	538	hunger	stimuli/foods\carrot.jpg	1	4	1	carrot	1	J	6	0	19	0		0	0	168.704760199878	168.804760499857
39552.25	0.0999671998433769	539	hunger	stimuli/foods\oyster.jpg	1	4	1	oyster	1	V	15	0	233	0		0	0	168.854789000005	168.954756199848
39589.75	0.0999857001006603	540	hunger	stimuli/foods\fruit_salad.jpg	1	4	1	fruit_salad	1	G	4	0	55	0		0	0	169.004768100102	169.104753800202
39627.25	0.0999990999698639	541	hunger	stimuli/foods\bagel.jpg	1	4	1	bagel	1	W	16	0	6	0		0	0	169.154741100036	169.254740200005
39664.75	0.099985099863261	542	hunger	stimuli/foods\apple.jpg	1	4	1	apple	1	H	5	0	1	0		0	0	169.304762400221	169.404747500084
39702.25	0.0999755002558231	543	hunger	stimuli/non_foods\non-food_inanimate_teddy_bear.jpg	1	4	1	non-food_inanimate_teddy_bear	0	G	4	0	218	0		0	0	169.454764199909	169.554739700165
39739.75	0.0999935995787382	544	hunger	stimuli/non_foods\non-food_inanimate_nettle.jpg	1	4	1	non-food_inanimate_nettle	0	N	10	0	197	0		0	0	169.604753800202	169.704747399781
39777.25	0.0999896000139415	545	hunger	stimuli/non_foods\non-food_inanimate_grass.jpg	1	4	1	non-food_inanimate_grass	0	E	20	1	184	0		0	0	169.754747500177	169.854737100191
39814.75	0.099983099848032	546	hunger	stimuli/foods\hazelnuts.jpg	1	4	1	hazelnuts	1	F	3	0	65	0		0	0	169.904752300121	170.004735399969
39852.25	0.0999821997247636	547	hunger	stimuli/foods\beetroots.jpg	1	4	1	beetroots	1	X	17	0	10	0		0	0	170.054748400114	170.154730599839
39889.75	0.0999839999713004	548	hunger	stimuli/non_foods\non-food_inanimate_chandelier.jpg	1	4	1	non-food_inanimate_chandelier	0	B	0	0	173	0		0	0	170.204747700132	170.304731700104
39927.25	0.0999851003289223	549	hunger	stimuli/foods\corncob.jpg	1	4	1	corncob	1	L	8	0	37	0		0	0	170.354742799886	170.454727900214
39964.75	0.100015900097787	550	hunger	stimuli/foods\potato_chips.jpg	1	4	1	potato_chips	1	D	2	0	247	0		0	0	170.504720699973	170.604736600071
40002.25	0.099968499969691	551	hunger	stimuli/foods\salami.jpg	1	4	1	salami	1	K	7	0	263	0		0	0	170.654765999876	170.754734499846
40039.75	0.0999797000549734	552	hunger	stimuli/non_foods\non-food_inanimate_watering_can.jpg	1	4	1	non-food_inanimate_watering_can	0	W	16	0	225	0		0	0	170.804743799847	170.904723499902
40077.25	0.09999810019508	553	hunger	stimuli/foods\chocolate_chip_cookies.jpg	1	4	1	chocolate_chip_cookies	1	S	13	0	27	0		0	0	170.954735199921	171.054733300116
40114.75	0.099983399733901	554	hunger	stimuli/foods\cucumber.jpg	1	4	1	cucumber	1	R	12	0	41	0		0	0	171.10474650003	171.204729899764
40152.25	0.0999838002026081	555	hunger	stimuli/non_foods\non-food_inanimate_bucket.jpg	1	4	1	non-food_inanimate_bucket	0	F	3	0	165	0		0	0	171.254741000012	171.354724800214
40189.75	0.099989699665457	556	hunger	stimuli/foods\cream_donuts.jpg	1	4	1	cream_donuts	1	H	5	0	39	0		0	0	171.40474080015	171.504730499815
40227.25	0.0999837000854313	557	hunger	stimuli/non_foods\non-food_animate_dachshund.jpg	1	4	1	non-food_animate_dachshund	0	Z	18	0	104	0		0	0	171.554736699909	171.654720399994
40264.75	0.100001799874008	558	hunger	stimuli/non_foods\non-food_animate_alligator.jpg	1	4	1	non-food_animate_alligator	0	X	17	0	90	0		0	0	171.704736100044	171.804737899918
40302.25	0.0999909997917712	559	hunger	stimuli/non_foods\non-food_animate_grasshopper.jpg	1	4	1	non-food_animate_grasshopper	0	G	4	0	117	0		0	0	171.854726599995	171.954717599787
40710.5	0.0999883003532887	560	hunger	stimuli/non_foods\non-food_inanimate_nettle.jpg	1	5	1	non-food_inanimate_nettle	0	J	6	0	197	0		0	0	173.488042899873	173.588031200226
40748	0.100003700237721	561	hunger	stimuli/non_foods\non-food_animate_peacock.jpg	1	5	1	non-food_animate_peacock	0	B	0	0	134	0		0	0	173.638020299841	173.738024000078
40785.5	0.0999692999757826	562	hunger	stimuli/non_foods\non-food_inanimate_canoe.jpg	1	5	1	non-food_inanimate_canoe	0	Z	18	0	170	0		0	0	173.788033400197	173.888002700172
40823	0.0999802001751959	563	hunger	stimuli/non_foods\non-food_animate_alligator.jpg	1	5	1	non-food_animate_alligator	0	L	8	0	90	0		0	0	173.938046699855	174.038026900031
40860.5	0.0999783999286592	564	hunger	stimuli/foods\baked_cod_with_carrots_and_green_beans.jpg	1	5	1	baked_cod_with_carrots_and_green_beans	1	C	1	0	7	0		0	0	174.088040899951	174.18801929988
40898	0.0999897997826338	565	hunger	stimuli/non_foods\non-food_animate_seal.jpg	1	5	1	non-food_animate_seal	0	V	15	0	146	0		0	0	174.238033500034	174.338023299817
40935.5	0.100000899750739	566	hunger	stimuli/foods\raw_ham.jpg	1	5	1	raw_ham	1	Z	18	0	253	0		0	0	174.388011800125	174.488012699876
40973	0.0999700999818742	567	hunger	stimuli/foods\fennel.jpg	1	5	1	fennel	1	P	11	0	47	0		0	0	174.53803260019	174.638002700172
41010.5	0.100007799919695	568	hunger	stimuli/foods\radish.jpg	1	5	1	radish	1	C	1	0	251	0		0	0	174.688011799939	174.788019599859
41048	0.0999980000779033	569	hunger	stimuli/foods\pepperoni_pizza.jpg	1	5	1	pepperoni_pizza	1	B	0	0	241	0		0	0	174.838032200001	174.938030200079
41085.5	0.0999699998646975	570	hunger	stimuli/non_foods\non-food_inanimate_tulip.jpg	1	5	1	non-food_inanimate_tulip	0	W	16	0	224	0		0	0	174.988035100047	175.088005099911
41123	0.0999845997430384	571	hunger	stimuli/non_foods\non-food_animate_sea_turtle.jpg	1	5	1	non-food_animate_sea_turtle	0	R	12	0	144	0		0	0	175.138020900078	175.238005499821
41160.5	0.0999759999103844	572	hunger	stimuli/foods\fruit_pie.jpg	1	5	1	fruit_pie	1	W	16	0	54	0		0	0	175.288018200081	175.387994199991
41198	0.0999819003045559	573	hunger	stimuli/non_foods\non-food_animate_mammoth.jpg	1	5	1	non-food_animate_mammoth	0	T	14	0	128	0		0	0	175.438023199793	175.538005100098
41235.5	0.0999835999682546	574	hunger	stimuli/non_foods\non-food_inanimate_padlock.jpg	1	5	1	non-food_inanimate_padlock	0	U	23	1	199	0		0	0	175.588012599852	175.68799619982
41273	0.0999827003106475	575	hunger	stimuli/foods\mango.jpg	1	5	1	mango	1	G	4	0	80	0		0	0	175.738018599804	175.838001300115
41310.5	0.099982799962163	576	hunger	stimuli/non_foods\non-food_inanimate_skateboard.jpg	1	5	1	non-food_inanimate_skateboard	0	W	16	0	208	0		0	0	175.888010200113	175.987993000075
41348	0.100003500003368	577	hunger	stimuli/non_foods\non-food_animate_young_boy.jpg	1	5	1	non-food_animate_young_boy	0	V	15	0	156	0		0	0	176.038020499982	176.138023999985
41385.5	0.0999851999804378	578	hunger	stimuli/non_foods\non-food_inanimate_desk.jpg	1	5	1	non-food_inanimate_desk	0	H	5	0	178	0		0	0	176.188006300014	176.287991499994
41423	0.0999867999926209	579	hunger	stimuli/foods\peach.jpg	1	5	1	peach	1	X	17	0	238	0		0	0	176.338005899917	176.43799269991
41460.5	0.0999885997734964	580	hunger	stimuli/foods\lettuce.jpg	1	5	1	lettuce	1	H	5	0	75	1	a	0.893255200237036	1	176.488000900019	176.587989499792
41498	0.100004199892282	581	hunger	stimuli/foods\strawberry.jpg	1	5	1	strawberry	1	C	1	0	272	0		0	0	176.637994000223	176.737998200115
41535.5	0.0999941998161376	582	hunger	stimuli/non_foods\non-food_inanimate_button.jpg	1	5	1	non-food_inanimate_button	0	T	14	0	168	0		0	0	176.788002300076	176.887996499892
41573	0.0999841000884771	583	hunger	stimuli/non_foods\non-food_inanimate_chair.jpg	1	5	1	non-food_inanimate_chair	0	M	9	0	172	0		0	0	176.938011799939	177.037995900027
41610.5	0.09998539974913	584	hunger	stimuli/foods\chocolate_bar.jpg	1	5	1	chocolate_bar	1	N	10	0	26	0		0	0	177.088006000035	177.187991399784
41648	0.0999867999926209	585	hunger	stimuli/non_foods\non-food_inanimate_waterlily.jpg	1	5	1	non-food_inanimate_waterlily	0	P	11	0	226	0		0	0	177.238005700056	177.337992500048
41685.5	0.099982799962163	586	hunger	stimuli/foods\apple.jpg	1	5	1	apple	1	G	4	0	1	0		0	0	177.388006799854	177.487989599817
41723	0.0999838002026081	587	hunger	stimuli/foods\apricot.jpg	1	5	1	apricot	1	H	5	0	2	0		0	0	177.538002899848	177.637986700051
41760.5	0.100007300265133	588	hunger	stimuli/non_foods\non-food_animate_cheetah.jpg	1	5	1	non-food_animate_cheetah	0	Z	18	0	100	0		0	0	177.687980299816	177.787987600081
41798	0.099978500045836	589	hunger	stimuli/foods\taco.jpg	1	5	1	taco	1	C	1	0	274	0		0	0	177.838008599821	177.937987099867
41835.5	0.099972799886018	590	hunger	stimuli/foods\pork_and_rice.jpg	1	5	1	pork_and_rice	1	P	11	0	245	0		0	0	177.987998399884	178.08797119977
41873	0.100013399962336	591	hunger	stimuli/non_foods\non-food_animate_monkey.jpg	1	5	1	non-food_animate_monkey	0	N	10	0	130	0		0	0	178.137980999891	178.237994399853
41910.5	0.0999854998663068	592	hunger	stimuli/foods\banana.jpg	1	5	1	banana	1	W	16	0	9	0		0	0	178.287995399907	178.387980899774
41948	0.0999996000900865	593	hunger	stimuli/foods\minestrone_soup.jpg	1	5	1	minestrone_soup	1	G	4	0	82	0		0	0	178.437982500065	178.537982100155
41985.5	0.0999855003319681	594	hunger	stimuli/foods\cannoli.jpg	1	5	1	cannoli	1	N	10	0	17	0		0	0	178.587990699802	178.687976200134
42023	0.0999837000854313	595	hunger	stimuli/non_foods\non-food_animate_runner.jpg	1	5	1	non-food_animate_runner	0	R	12	0	142	0		0	0	178.737990600057	178.837974300142
42060.5	0.0999875999987125	596	hunger	stimuli/foods\lemon_meringue_pie.jpg	1	5	1	lemon_meringue_pie	1	H	5	0	73	0		0	0	178.887987500057	178.987975100055
42098	0.099982799962163	597	hunger	stimuli/foods\lentils.jpg	1	5	1	lentils	1	B	0	0	74	0		0	0	179.037991099991	179.137973899953
42135.5	0.0999885001219809	598	hunger	stimuli/foods\egg.jpg	1	5	1	egg	1	J	6	0	45	0		0	0	179.187983300071	179.287971800193
42173	0.0999881001189351	599	hunger	stimuli/non_foods\non-food_animate_lion.jpg	1	5	1	non-food_animate_lion	0	M	9	0	125	0		0	0	179.337983199861	179.43797129998
42210.5	0.0999845997430384	600	hunger	stimuli/foods\brussel_sprouts.jpg	1	5	1	brussel_sprouts	1	B	0	0	15	0		0	0	179.487981600221	179.587966199964
42248	0.099982799962163	601	hunger	stimuli/foods\mandarin.jpg	1	5	1	mandarin	1	D	2	0	79	0		0	0	179.637985500041	179.737968300004
42285.5	0.0999875999987125	602	hunger	stimuli/non_foods\non-food_inanimate_protractor.jpg	1	5	1	non-food_inanimate_protractor	0	P	11	0	201	0		0	0	179.787977700122	179.88796530012
42323	0.0999968997202814	603	hunger	stimuli/foods\fried_zucchini.jpg	1	5	1	fried_zucchini	1	W	16	0	51	0		0	0	179.937965900172	180.037962799892
42360.5	0.0999842002056539	604	hunger	stimuli/non_foods\non-food_inanimate_speakers.jpg	1	5	1	non-food_inanimate_speakers	0	H	5	0	212	0		0	0	180.087974399794	180.1879586
42398	0.0999890002422035	605	hunger	stimuli/non_foods\non-food_animate_yellow_bug.jpg	1	5	1	non-food_animate_yellow_bug	0	L	8	0	155	0		0	0	180.237972499803	180.337961500045
42435.5	0.0999669004231691	606	hunger	stimuli/foods\toasted_bread_with_tomatoes.jpg	1	5	1	toasted_bread_with_tomatoes	1	V	15	0	275	0		0	0	180.387969399802	180.487936300226
42473	0.0999814001843333	607	hunger	stimuli/non_foods\non-food_inanimate_gloves.jpg	1	5	1	non-food_inanimate_gloves	0	B	0	0	183	0		0	0	180.537966799922	180.637948200107
42510.5	0.100004100240767	608	hunger	stimuli/non_foods\non-food_animate_baby_crawling.jpg	1	5	1	non-food_animate_baby_crawling	0	P	11	0	92	0		0	0	180.687965299934	180.787969400175
42548	0.0999616999179125	609	hunger	stimuli/non_foods\non-food_inanimate_briefcase.jpg	1	5	1	non-food_inanimate_briefcase	0	K	7	0	163	0		0	0	180.837990500033	180.937952199951
42585.5	0.0999940996989608	610	hunger	stimuli/foods\mortadella.jpg	1	5	1	mortadella	1	L	8	0	83	0		0	0	180.987963700201	181.0879577999
42623	0.0999835999682546	611	hunger	stimuli/foods\dates.jpg	1	5	1	dates	1	Z	18	0	43	0		0	0	181.137966699898	181.237950299866
42660.5	0.0999874002300203	612	hunger	stimuli/foods\oyster.jpg	1	5	1	oyster	1	F	3	0	233	0		0	0	181.287961099762	181.387948499992
42698	0.0999634000472724	613	hunger	stimuli/foods\oregano.jpg	1	5	1	oregano	1	Z	18	0	231	0		0	0	181.437983700074	181.537947100122
42735.5	0.099991399794817	614	hunger	stimuli/non_foods\non-food_animate_deer.jpg	1	5	1	non-food_animate_deer	0	S	13	0	105	0		0	0	181.587952000089	181.687943399884
42773	0.0999754997901618	615	hunger	stimuli/non_foods\non-food_inanimate_drum_set.jpg	1	5	1	non-food_inanimate_drum_set	0	Z	18	0	179	0		0	0	181.737958400045	181.837933899835
42810.5	0.0999761000275612	616	hunger	stimuli/non_foods\non-food_animate_ant.jpg	1	5	1	non-food_animate_ant	0	T	14	0	91	0		0	0	181.887944300193	181.987920400221
42848	0.099953199736774	617	hunger	stimuli/non_foods\non-food_animate_skunk.jpg	1	5	1	non-food_animate_skunk	0	K	7	0	147	0		0	0	182.03795700008	182.137910199817
42885.5	0.099976500030607	618	hunger	stimuli/foods\cauliflower.jpg	1	5	1	cauliflower	1	B	0	0	20	0		0	0	182.187951200176	182.287927700207
42923	0.100002699997276	619	hunger	stimuli/non_foods\non-food_animate_pigeon.jpg	1	5	1	non-food_animate_pigeon	0	S	13	0	136	0		0	0	182.33793340018	182.437936100177
42960.5	0.0999837000854313	620	hunger	stimuli/non_foods\non-food_inanimate_toilet.jpg	1	5	1	non-food_inanimate_toilet	0	D	2	0	220	0		0	0	182.487948900089	182.587932600174
42998	0.0999862998723984	621	hunger	stimuli/foods\lollies.jpg	1	5	1	lollies	1	F	3	0	78	0		0	0	182.637945400085	182.737931699958
43035.5	0.0999993002042174	622	hunger	stimuli/non_foods\non-food_animate_gorilla.jpg	1	5	1	non-food_animate_gorilla	0	G	4	0	116	0		0	0	182.787930199876	182.887929500081
43073	0.0999858998693526	623	hunger	stimuli/non_foods\non-food_animate_duck.jpg	1	5	1	non-food_animate_duck	0	K	7	0	109	0		0	0	182.937942299992	183.037928199861
43110.5	0.0999861001037061	624	hunger	stimuli/foods\donut.jpg	1	5	1	donut	1	X	17	0	44	0		0	0	183.087939799763	183.187925899867
43148	0.0999618996866047	625	hunger	stimuli/non_foods\non-food_animate_killer_whale.jpg	1	5	1	non-food_animate_killer_whale	0	J	6	0	123	0		0	0	183.237963600084	183.337925499771
43185.5	0.0999890002422035	626	hunger	stimuli/non_foods\non-food_animate_seahorse.jpg	1	5	1	non-food_animate_seahorse	0	H	5	0	145	0		0	0	183.387934799772	183.487923800014
43223	0.0999811999499798	627	hunger	stimuli/non_foods\non-food_animate_swan.jpg	1	5	1	non-food_animate_swan	0	W	16	0	152	0		0	0	183.537941500079	183.637922700029
43260.5	0.0999902002513409	628	hunger	stimuli/foods\pumpkin.jpg	1	5	1	pumpkin	1	N	10	0	250	0		0	0	183.687919599935	183.787909800187
43298	0.0999984000809491	629	hunger	stimuli/non_foods\non-food_inanimate_wrench.jpg	1	5	1	non-food_inanimate_wrench	0	L	8	0	227	0		0	0	183.837923299987	183.937921700068
43335.5	0.0999825000762939	630	hunger	stimuli/foods\figs.jpg	1	5	1	figs	1	R	12	0	48	0		0	0	183.98792980006	184.087912300136
43373	0.09998709987849	631	hunger	stimuli/foods\potatoes.jpg	1	5	1	potatoes	1	X	17	0	248	0		0	0	184.137927399948	184.237914499827
43410.5	0.0999818001873791	632	hunger	stimuli/foods\grapes.jpg	1	5	1	grapes	1	R	12	0	60	0		0	0	184.2879311	184.387912900187
43448	0.0999875003471971	633	hunger	stimuli/foods\papaya.jpg	1	5	1	papaya	1	F	3	0	235	0		0	0	184.437928199768	184.537915700115
43485.5	0.0999897001311183	634	hunger	stimuli/foods\cream_donuts.jpg	1	5	1	cream_donuts	1	V	15	0	39	0		0	0	184.587921400089	184.68791110022
43523	0.099984799977392	635	hunger	stimuli/foods\prawn.jpg	1	5	1	prawn	1	N	10	0	249	0		0	0	184.737920999993	184.83790579997
43560.5	0.0999754997901618	636	hunger	stimuli/non_foods\non-food_inanimate_ring.jpg	1	5	1	non-food_inanimate_ring	0	X	17	0	203	0		0	0	184.887919900008	184.987895399798
43598	0.0999644002877176	637	hunger	stimuli/foods\coffee_beans.jpg	1	5	1	coffee_beans	1	P	11	0	34	0		0	0	185.037930599879	185.137895000167
43635.5	0.0999658997170627	638	hunger	stimuli/foods\pomegranate.jpg	1	5	1	pomegranate	1	J	6	0	244	0		0	0	185.187907100189	185.287872999907
43673	0.100012199953198	639	hunger	stimuli/non_foods\non-food_animate_millipede.jpg	1	5	1	non-food_animate_millipede	0	D	2	0	129	0		0	0	185.3378901002	185.437902300153
43710.5	0.0999672999605536	640	hunger	stimuli/non_foods\non-food_inanimate_cupboard.jpg	1	5	1	non-food_inanimate_cupboard	0	H	5	0	177	0		0	0	185.487906400114	185.587873700075
43748	0.0999833000823855	641	hunger	stimuli/foods\baked_lamb_with_potatoes.jpg	1	5	1	baked_lamb_with_potatoes	1	G	4	0	8	0		0	0	185.637904699892	185.737887999974
43785.5	0.0999859999865294	642	hunger	stimuli/foods\beetroots.jpg	1	5	1	beetroots	1	J	6	0	10	0		0	0	185.787900600117	185.887886600103
43823	0.0999821000732481	643	hunger	stimuli/foods\raisins.jpg	1	5	1	raisins	1	G	4	0	252	0		0	0	185.937900899909	186.037882999983
43860.5	0.100020799785852	644	hunger	stimuli/foods\peas.jpg	1	5	1	peas	1	N	10	0	240	0		0	0	186.087895900011	186.187916699797
43898	0.0999862002208829	645	hunger	stimuli/non_foods\non-food_inanimate_rack.jpg	1	5	1	non-food_inanimate_rack	0	P	11	0	202	0		0	0	186.237898699939	186.33788490016
