onset	duration	eventnumber	hunger_condition	stimfilename	blockno	trialno	is_faststream	stim	food_idx	letter	letter_idx	istarget	image_number	response	keypressed	rt	correct	time_stimon	time_stimoff
33698.25	0.0999745000008261	0	hunger	stimuli/foods\raw_ham.jpg	1	1	1	raw_ham	1	N	10	0	253	0		0	0	124.60148669999	124.701461199991
33735.75	0.100048300009803	1	hunger	stimuli/non_foods\non-food_animate_ram.jpg	1	1	1	non-food_animate_ram	0	B	0	0	140	0		0	0	124.751488999987	124.851537299997
33773.25	0.0999794999952428	2	hunger	stimuli/foods\banana.jpg	1	1	1	banana	1	S	13	0	9	0		0	0	124.901498199994	125.001477699989
33810.75	0.0999850999942282	3	hunger	stimuli/foods\radish.jpg	1	1	1	radish	1	W	16	0	251	0		0	0	125.051491899998	125.151476999992
33848.25	0.0999928999954136	4	hunger	stimuli/non_foods\non-food_animate_grasshopper.jpg	1	1	1	non-food_animate_grasshopper	0	H	5	0	117	0		0	0	125.201484999998	125.301477899993
33885.75	0.099986599991098	5	hunger	stimuli/foods\mushroom.jpg	1	1	1	mushroom	1	S	13	0	85	0		0	0	125.351491199996	125.451477799987
33923.25	0.0999821000004886	6	hunger	stimuli/foods\honey.jpg	1	1	1	honey	1	T	14	0	66	0		0	0	125.501490399998	125.601472499999
33960.75	0.0999833999958355	7	hunger	stimuli/foods\nectarine.jpg	1	1	1	nectarine	1	K	7	0	87	0		0	0	125.651486999996	125.751470399991
33998.25	0.0999958999891533	8	hunger	stimuli/non_foods\non-food_inanimate_stoplight.jpg	1	1	1	non-food_inanimate_stoplight	0	T	14	0	214	0		0	0	125.801474599997	125.901470499986
34035.75	0.0999808999913512	9	hunger	stimuli/foods\green_beans.jpg	1	1	1	green_beans	1	B	0	0	61	0		0	0	125.951473299996	126.051454199987
34073.25	0.0999658000073396	10	hunger	stimuli/foods\gnocchi.jpg	1	1	1	gnocchi	1	Z	18	0	58	0		0	0	126.101491899986	126.201457699994
34110.75	0.0999794999952428	11	hunger	stimuli/non_foods\non-food_animate_raccoon.jpg	1	1	1	non-food_animate_raccoon	0	S	13	0	139	0		0	0	126.251472799995	126.35145229999
34148.25	0.0999897000001511	12	hunger	stimuli/non_foods\non-food_animate_deer.jpg	1	1	1	non-food_animate_deer	0	B	0	0	105	0		0	0	126.401463099988	126.501452799988
34185.75	0.099783199999365	13	hunger	stimuli/foods\peach.jpg	1	1	1	peach	1	V	15	0	238	0		0	0	126.551700299999	126.651483499998
34223.25	0.0999588999984553	14	hunger	stimuli/foods\salmon.jpg	1	1	1	salmon	1	C	1	0	264	0		0	0	126.701496499998	126.801455399996
34260.75	0.099987699999474	15	hunger	stimuli/foods\chocolate_pudding.jpg	1	1	1	chocolate_pudding	1	R	12	0	29	0		0	0	126.851469699992	126.951457399991
34298.25	0.0999794000090333	16	hunger	stimuli/non_foods\non-food_animate_dragonfly.jpg	1	1	1	non-food_animate_dragonfly	0	C	1	0	108	0		0	0	127.001471899988	127.101451299997
34335.75	0.100006499997107	17	hunger	stimuli/foods\eggplant.jpg	1	1	1	eggplant	1	H	5	0	46	0		0	0	127.15146719999	127.251473699987
34373.25	0.0999937000015052	18	hunger	stimuli/non_foods\non-food_inanimate_cupboard.jpg	1	1	1	non-food_inanimate_cupboard	0	X	17	0	177	0		0	0	127.301470599996	127.401464299997
34410.75	0.0999775999953272	19	hunger	stimuli/foods\pea_pod.jpg	1	1	1	pea_pod	1	V	15	0	237	0		0	0	127.451468899992	127.551446499987
34448.25	0.0999835000111489	20	hunger	stimuli/foods\grilled_chicken_breast.jpg	1	1	1	grilled_chicken_breast	1	T	14	0	63	0		0	0	127.601463299987	127.701446799998
34485.75	0.0999816999974428	21	hunger	stimuli/non_foods\non-food_inanimate_headphones.jpg	1	1	1	non-food_inanimate_headphones	0	W	16	0	188	0		0	0	127.751461599997	127.851443299995
34523.25	0.099985499997274	22	hunger	stimuli/non_foods\non-food_animate_dachshund.jpg	1	1	1	non-food_animate_dachshund	0	N	10	0	104	0		0	0	127.901456599997	128.001442099994
34560.75	0.0999846000049729	23	hunger	stimuli/non_foods\non-food_animate_baby_crawling.jpg	1	1	1	non-food_animate_baby_crawling	0	V	15	0	92	0		0	0	128.051457999987	128.151442599992
34598.25	0.0999848000064958	24	hunger	stimuli/foods\peas.jpg	1	1	1	peas	1	H	5	0	240	0		0	0	128.201453099988	128.301437899994
34635.75	0.100000800011912	25	hunger	stimuli/foods\hamburger.jpg	1	1	1	hamburger	1	F	3	0	64	0		0	0	128.351453799987	128.451454599999
34673.25	0.0999635000043781	26	hunger	stimuli/foods\broccoli.jpg	1	1	1	broccoli	1	D	2	0	13	0		0	0	128.501466499991	128.601429999995
34710.75	0.0999818000127561	27	hunger	stimuli/non_foods\non-food_animate_duck.jpg	1	1	1	non-food_animate_duck	0	V	15	0	109	0		0	0	128.651449399986	128.751431199998
34748.25	0.0999854000110645	28	hunger	stimuli/foods\cupcake.jpg	1	1	1	cupcake	1	T	14	0	42	0		0	0	128.801448499988	128.901433899999
34785.75	0.0999889000086114	29	hunger	stimuli/foods\omelette.jpg	1	1	1	omelette	1	N	10	0	228	0		0	0	128.951445499988	129.051434399997
34823.25	0.0999561000062386	30	hunger	stimuli/non_foods\non-food_inanimate_orchid.jpg	1	1	1	non-food_inanimate_orchid	0	R	12	0	198	0		0	0	129.101471599992	129.201427699998
34860.75	0.100000600010389	31	hunger	stimuli/foods\swordfish.jpg	1	1	1	swordfish	1	K	7	0	273	0		0	0	129.251428099989	129.3514287
34898.25	0.0999853999965126	32	hunger	stimuli/foods\chestnut.jpg	1	1	1	chestnut	1	T	14	0	24	0		0	0	129.401431099992	129.501416499988
34935.75	0.0999952999991365	33	hunger	stimuli/foods\pasta_carbonara.jpg	1	1	1	pasta_carbonara	1	X	17	0	236	0		0	0	129.551431	129.651426299999
34973.25	0.0999821000004886	34	hunger	stimuli/non_foods\non-food_animate_woman.jpg	1	1	1	non-food_animate_woman	0	V	15	0	154	0		0	0	129.701437899988	129.801419999989
35010.75	0.0999664000119083	35	hunger	stimuli/non_foods\non-food_animate_kangaroo.jpg	1	1	1	non-food_animate_kangaroo	0	O	22	1	122	0		0	0	129.851438399986	129.951404799998
35048.25	0.0999758999969345	36	hunger	stimuli/non_foods\non-food_inanimate_fern.jpg	1	1	1	non-food_inanimate_fern	0	S	13	0	180	0		0	0	130.001435999991	130.101411899988
35085.75	0.0999636000051396	37	hunger	stimuli/foods\orange.jpg	1	1	1	orange	1	J	6	0	230	0		0	0	130.151436899992	130.251400499998
35123.25	0.0998705999954836	38	hunger	stimuli/foods\coconut.jpg	1	1	1	coconut	1	M	9	0	33	0		0	0	130.301547099996	130.401417699992
35160.75	0.0999918000015896	39	hunger	stimuli/non_foods\non-food_inanimate_hammer.jpg	1	1	1	non-food_inanimate_hammer	0	G	4	0	186	0		0	0	130.451420599988	130.551412399989
35198.25	0.0999850000080187	40	hunger	stimuli/non_foods\non-food_animate_monkey.jpg	1	1	1	non-food_animate_monkey	0	P	11	0	130	0		0	0	130.601417399987	130.701402399995
35235.75	0.100003899991862	41	hunger	stimuli/non_foods\non-food_animate_yellow_bug.jpg	1	1	1	non-food_animate_yellow_bug	0	S	13	0	155	1	a	0.893283800003701	1	130.751419799999	130.851423699991
35273.25	0.0999569000123302	42	hunger	stimuli/foods\tomato.jpg	1	1	1	tomato	1	W	16	0	276	0		0	0	130.901447599987	131.001404499999
35310.75	0.0999861000018427	43	hunger	stimuli/foods\rockmelon.jpg	1	1	1	rockmelon	1	F	3	0	262	0		0	0	131.051420699994	131.151406799996
35348.25	0.0999871999956667	44	hunger	stimuli/non_foods\non-food_animate_pigeon.jpg	1	1	1	non-food_animate_pigeon	0	K	7	0	136	0		0	0	131.20142089999	131.301408099986
35385.75	0.0999886999925366	45	hunger	stimuli/non_foods\non-food_inanimate_toilet.jpg	1	1	1	non-food_inanimate_toilet	0	C	1	0	220	0		0	0	131.351414599994	131.451403299987
35423.25	0.0999844999896595	46	hunger	stimuli/non_foods\non-food_animate_caterpillar.jpg	1	1	1	non-food_animate_caterpillar	0	H	5	0	99	0		0	0	131.5014161	131.60140059999
35460.75	0.0999834000103874	47	hunger	stimuli/foods\lamb_chops.jpg	1	1	1	lamb_chops	1	W	16	0	70	0		0	0	131.651413299987	131.751396699998
35498.25	0.100004799998715	48	hunger	stimuli/non_foods\non-food_animate_skunk.jpg	1	1	1	non-food_animate_skunk	0	J	6	0	147	0		0	0	131.801383999991	131.90138879999
35535.75	0.0999812000081874	49	hunger	stimuli/foods\savory_pie.jpg	1	1	1	savory_pie	1	G	4	0	265	0		0	0	131.95140369999	132.051384899998
35573.25	0.0999942000053125	50	hunger	stimuli/non_foods\non-food_animate_donkey.jpg	1	1	1	non-food_animate_donkey	0	S	13	0	107	0		0	0	132.101395499994	132.2013897
35610.75	0.09998660000565	51	hunger	stimuli/non_foods\non-food_inanimate_highlighter.jpg	1	1	1	non-food_inanimate_highlighter	0	B	0	0	189	0		0	0	132.251407699994	132.3513943
35648.25	0.0999819999997271	52	hunger	stimuli/foods\meatballs.jpg	1	1	1	meatballs	1	N	10	0	81	0		0	0	132.401404799995	132.501386799995
35685.75	0.0999771999922814	53	hunger	stimuli/foods\asparagus.jpg	1	1	1	asparagus	1	L	8	0	4	0		0	0	132.5514023	132.651379499992
35723.25	0.0999624999967637	54	hunger	stimuli/foods\beetroots.jpg	1	1	1	beetroots	1	P	11	0	10	0		0	0	132.70142279999	132.801385299987
35760.75	0.0999829000065802	55	hunger	stimuli/non_foods\non-food_inanimate_button.jpg	1	1	1	non-food_inanimate_button	0	B	0	0	168	0		0	0	132.851398599989	132.951381499995
35798.25	0.0999821000004886	56	hunger	stimuli/foods\red_beans.jpg	1	1	1	red_beans	1	S	13	0	255	0		0	0	133.001399799992	133.101381899993
35835.75	0.099988799993298	57	hunger	stimuli/non_foods\non-food_inanimate_moss.jpg	1	1	1	non-food_inanimate_moss	0	G	4	0	194	0		0	0	133.151393599997	133.251382399991
35873.25	0.0999813999951584	58	hunger	stimuli/foods\capsicum.jpg	1	1	1	capsicum	1	N	10	0	18	0		0	0	133.301398099997	133.401379499992
35910.75	0.0999859000003198	59	hunger	stimuli/foods\grapes.jpg	1	1	1	grapes	1	R	12	0	60	0		0	0	133.451390799994	133.551376699994
35948.25	0.0999834999965969	60	hunger	stimuli/non_foods\non-food_animate_fox.jpg	1	1	1	non-food_animate_fox	0	P	11	0	112	0		0	0	133.601389899995	133.701373399992
35985.75	0.100007100001676	61	hunger	stimuli/non_foods\non-food_animate_frog.jpg	1	1	1	non-food_animate_frog	0	D	2	0	113	0		0	0	133.751388199991	133.851395299993
36023.25	0.0999697999941418	62	hunger	stimuli/non_foods\non-food_inanimate_nailpolish.jpg	1	1	1	non-food_inanimate_nailpolish	0	N	10	0	195	0		0	0	133.901403199998	134.001372999992
36060.75	0.0999545000086073	63	hunger	stimuli/non_foods\non-food_animate_runner.jpg	1	1	1	non-food_animate_runner	0	J	6	0	142	0		0	0	134.051387199986	134.151341699995
36098.25	0.099997400000575	64	hunger	stimuli/foods\celery.jpg	1	1	1	celery	1	W	16	0	21	0		0	0	134.201373399992	134.301370799993
36135.75	0.0999873000109801	65	hunger	stimuli/non_foods\non-food_animate_swan.jpg	1	1	1	non-food_animate_swan	0	D	2	0	152	0		0	0	134.351382999987	134.451370299998
36173.25	0.0999840000004042	66	hunger	stimuli/foods\mussels.jpg	1	1	1	mussels	1	H	5	0	86	0		0	0	134.501372999992	134.601356999992
36210.75	0.0999791000067489	67	hunger	stimuli/foods\oyster.jpg	1	1	1	oyster	1	K	7	0	233	0		0	0	134.651384399986	134.751363499992
36248.25	0.0999857999995584	68	hunger	stimuli/non_foods\non-food_animate_tortoise.jpg	1	1	1	non-food_animate_tortoise	0	T	14	0	153	0		0	0	134.8013775	134.9013633
36285.75	0.0999831999943126	69	hunger	stimuli/foods\cherry.jpg	1	1	1	cherry	1	J	6	0	23	0		0	0	134.951367999995	135.051351199989
36323.25	0.0999824000027729	70	hunger	stimuli/foods\red_cabbage.jpg	1	1	1	red_cabbage	1	K	7	0	256	0		0	0	135.101374699996	135.201357099999
36360.75	0.0999722999986261	71	hunger	stimuli/non_foods\non-food_inanimate_alarm_clock.jpg	1	1	1	non-food_inanimate_alarm_clock	0	C	1	0	158	0		0	0	135.25137269999	135.351344999988
36398.25	0.0999734000070021	72	hunger	stimuli/non_foods\non-food_inanimate_padlock.jpg	1	1	1	non-food_inanimate_padlock	0	B	0	0	199	0		0	0	135.401371799991	135.501345199998
36435.75	0.0999580000061542	73	hunger	stimuli/non_foods\non-food_inanimate_nest.jpg	1	1	1	non-food_inanimate_nest	0	C	1	0	196	0		0	0	135.551381499987	135.651339499993
36473.25	0.100013499992201	74	hunger	stimuli/foods\wafer.jpg	1	1	1	wafer	1	V	15	0	277	0		0	0	135.701339399995	135.801352899987
36510.75	0.0999868000071729	75	hunger	stimuli/non_foods\non-food_animate_seal.jpg	1	1	1	non-food_animate_seal	0	Z	18	0	146	0		0	0	135.851363899987	135.951350699994
36548.25	0.0999862000026042	76	hunger	stimuli/foods\croissant.jpg	1	1	1	croissant	1	J	6	0	40	0		0	0	136.001356199995	136.101342399998
36585.75	0.0999757000099635	77	hunger	stimuli/foods\egg.jpg	1	1	1	egg	1	N	10	0	45	0		0	0	136.151361799988	136.251337499998
36623.25	0.0999701999971876	78	hunger	stimuli/foods\lollies.jpg	1	1	1	lollies	1	V	15	0	78	0		0	0	136.301370999994	136.401341199991
36660.75	0.099989900001674	79	hunger	stimuli/non_foods\non-food_inanimate_skateboard.jpg	1	1	1	non-food_inanimate_skateboard	0	L	8	0	208	0		0	0	136.451347799986	136.551337699988
36698.25	0.0999865000048885	80	hunger	stimuli/non_foods\non-food_animate_cat.jpg	1	1	1	non-food_animate_cat	0	B	0	0	98	0		0	0	136.601354699989	136.701341199994
36735.75	0.099985499997274	81	hunger	stimuli/foods\smoked_ham.jpg	1	1	1	smoked_ham	1	R	12	0	266	0		0	0	136.751350799997	136.851336299995
36773.25	0.0999880000017583	82	hunger	stimuli/non_foods\non-food_animate_peacock.jpg	1	1	1	non-food_animate_peacock	0	D	2	0	134	0		0	0	136.901350699991	137.001338699993
36810.75	0.0999802000005729	83	hunger	stimuli/non_foods\non-food_inanimate_table.jpg	1	1	1	non-food_inanimate_table	0	E	20	1	217	0		0	0	137.051352399998	137.151332599999
36848.25	0.0999818999989657	84	hunger	stimuli/foods\mandarin.jpg	1	1	1	mandarin	1	D	2	0	79	0		0	0	137.201348699993	137.301330599992
36885.75	0.0999397999985376	85	hunger	stimuli/foods\rice.jpg	1	1	1	rice	1	Z	18	0	257	0		0	0	137.351391999997	137.451331799995
36923.25	0.0999835000111489	86	hunger	stimuli/foods\cinnamon_sroll.jpg	1	1	1	cinnamon_sroll	1	T	14	0	31	1	a	0.443296199999168	1	137.501333999986	137.601317499997
36960.75	0.0999916000000667	87	hunger	stimuli/non_foods\non-food_animate_Asian_man.jpg	1	1	1	non-food_animate_Asian_man	0	V	15	0	88	0		0	0	137.651335099989	137.751326699989
36998.25	0.0999834999965969	88	hunger	stimuli/non_foods\non-food_inanimate_gloves.jpg	1	1	1	non-food_inanimate_gloves	0	C	1	0	183	0		0	0	137.801340299993	137.90132379999
37035.75	0.0999792999937199	89	hunger	stimuli/non_foods\non-food_animate_german_shepherd.jpg	1	1	1	non-food_animate_german_shepherd	0	K	7	0	114	0		0	0	137.951339499996	138.05131879999
37073.25	0.0999847999919439	90	hunger	stimuli/foods\prawn.jpg	1	1	1	prawn	1	H	5	0	249	0		0	0	138.1013389	138.201323699992
37110.75	0.0999676000064937	91	hunger	stimuli/non_foods\non-food_inanimate_ring.jpg	1	1	1	non-food_inanimate_ring	0	S	13	0	203	0		0	0	138.251334699991	138.351302299998
37148.25	0.0999611000006553	92	hunger	stimuli/non_foods\non-food_animate_butterfly.jpg	1	1	1	non-food_animate_butterfly	0	B	0	0	96	0		0	0	138.401335899995	138.501296999995
37185.75	0.0999800999998115	93	hunger	stimuli/foods\hotdog.jpg	1	1	1	hotdog	1	X	17	0	67	0		0	0	138.551333599986	138.651313699986
37223.25	0.0999859000003198	94	hunger	stimuli/foods\minestrone_soup.jpg	1	1	1	minestrone_soup	1	R	12	0	82	0		0	0	138.701325599992	138.801311499992
37260.75	0.0999851000087801	95	hunger	stimuli/non_foods\non-food_inanimate_sun_flower.jpg	1	1	1	non-food_inanimate_sun_flower	0	K	7	0	216	0		0	0	138.851329599987	138.951314699996
37298.25	0.0999780999991344	96	hunger	stimuli/foods\raw_sausage.jpg	1	1	1	raw_sausage	1	J	6	0	254	0		0	0	139.001325499994	139.101303599993
37335.75	0.0999840000004042	97	hunger	stimuli/non_foods\non-food_inanimate_cactus_pot_plant.jpg	1	1	1	non-food_inanimate_cactus_pot_plant	0	D	2	0	169	0		0	0	139.151323399987	139.251307399987
37373.25	0.0999862000026042	98	hunger	stimuli/foods\pepperoni_pizza.jpg	1	1	1	pepperoni_pizza	1	T	14	0	241	0		0	0	139.301322399988	139.40130859999
37410.75	0.0999826999905054	99	hunger	stimuli/foods\cabbage.jpg	1	1	1	cabbage	1	H	5	0	16	0		0	0	139.4513209	139.55130359999
37448.25	0.0999834999965969	100	hunger	stimuli/foods\pear.jpg	1	1	1	pear	1	F	3	0	239	0		0	0	139.601320999995	139.701304499991
37485.75	0.0999449000082677	101	hunger	stimuli/foods\coffee_beans.jpg	1	1	1	coffee_beans	1	N	10	0	34	0		0	0	139.75132879999	139.851273699998
37523.25	0.0999517000018386	102	hunger	stimuli/non_foods\non-food_inanimate_drum_set.jpg	1	1	1	non-food_inanimate_drum_set	0	D	2	0	179	0		0	0	139.90134669999	140.001298399991
37560.75	0.099988799993298	103	hunger	stimuli/foods\almonds.jpg	1	1	1	almonds	1	P	11	0	0	0		0	0	140.051313899996	140.151302699989
37598.25	0.0999841000011656	104	hunger	stimuli/foods\rice_cake.jpg	1	1	1	rice_cake	1	V	15	0	258	0		0	0	140.201313599988	140.301297699989
37635.75	0.0999850999942282	105	hunger	stimuli/foods\corncob.jpg	1	1	1	corncob	1	J	6	0	37	0		0	0	140.351309299993	140.451294399987
37673.25	0.0999845000042114	106	hunger	stimuli/foods\cannoli.jpg	1	1	1	cannoli	1	H	5	0	17	0		0	0	140.501307399987	140.601291899991
37710.75	0.0999817999982042	107	hunger	stimuli/foods\cucumber.jpg	1	1	1	cucumber	1	J	6	0	41	0		0	0	140.651307799999	140.751289599997
37748.25	0.100026899992372	108	hunger	stimuli/non_foods\non-food_animate_slug.jpg	1	1	1	non-food_animate_slug	0	F	3	0	148	0		0	0	140.801287099996	140.901313999988
37785.75	0.0999821000004886	109	hunger	stimuli/non_foods\non-food_inanimate_shell.jpg	1	1	1	non-food_inanimate_shell	0	X	17	0	206	0		0	0	140.951305199997	141.051287299997
37823.25	0.0999902000039583	110	hunger	stimuli/non_foods\non-food_animate_snail.jpg	1	1	1	non-food_animate_snail	0	R	12	0	149	0		0	0	141.10129559999	141.201285799994
37860.75	0.0999845000042114	111	hunger	stimuli/foods\green_olives.jpg	1	1	1	green_olives	1	J	6	0	62	0		0	0	141.251298899995	141.351283399999
37898.25	0.0999662999965949	112	hunger	stimuli/foods\avocado.jpg	1	1	1	avocado	1	F	3	0	5	0		0	0	141.401316099989	141.501282399986
37935.75	0.100013200004469	113	hunger	stimuli/non_foods\non-food_inanimate_clover.jpg	1	1	1	non-food_inanimate_clover	0	J	6	0	174	0		0	0	141.551303499989	141.651316699994
37973.25	0.0999633000028552	114	hunger	stimuli/non_foods\non-food_animate_dolphin.jpg	1	1	1	non-food_animate_dolphin	0	V	15	0	106	0		0	0	141.701313599988	141.801276899991
38010.75	0.09998440000345	115	hunger	stimuli/non_foods\non-food_animate_giraffe.jpg	1	1	1	non-food_animate_giraffe	0	B	0	0	115	0		0	0	141.851289399987	141.95127379999
38048.25	0.0999658000073396	116	hunger	stimuli/non_foods\non-food_animate_lizard.jpg	1	1	1	non-food_animate_lizard	0	G	4	0	126	0		0	0	142.00129059999	142.101256399998
38085.75	0.0999894999986282	117	hunger	stimuli/foods\taco.jpg	1	1	1	taco	1	X	17	0	274	0		0	0	142.151282899998	142.251272399997
38123.25	0.0999803000013344	118	hunger	stimuli/foods\kiwi.jpg	1	1	1	kiwi	1	C	1	0	69	0		0	0	142.301288999995	142.401269299997
38160.75	0.0999837999988813	119	hunger	stimuli/foods\chocolate_chip_cookies.jpg	1	1	1	chocolate_chip_cookies	1	K	7	0	27	0		0	0	142.451284899988	142.551268699986
38198.25	0.100001799990423	120	hunger	stimuli/foods\steak.jpg	1	1	1	steak	1	T	14	0	270	0		0	0	142.601281199997	142.701282999988
38235.75	0.0999835999973584	121	hunger	stimuli/foods\linguine_with_clams.jpg	1	1	1	linguine_with_clams	1	D	2	0	77	0		0	0	142.75128099999	142.851264599987
38273.25	0.0999882000032812	122	hunger	stimuli/non_foods\non-food_animate_bee.jpg	1	1	1	non-food_animate_bee	0	V	15	0	95	0		0	0	142.901271999988	143.001260199992
38310.75	0.0999812000081874	123	hunger	stimuli/foods\clams.jpg	1	1	1	clams	1	N	10	0	32	0		0	0	143.051278199986	143.151259399994
38348.25	0.0999933999992209	124	hunger	stimuli/non_foods\non-food_inanimate_horn.jpg	1	1	1	non-food_inanimate_horn	0	G	4	0	190	0		0	0	143.201270099991	143.30126349999
38385.75	0.0999510999972699	125	hunger	stimuli/non_foods\non-food_inanimate_lighter.jpg	1	1	1	non-food_inanimate_lighter	0	R	12	0	193	0		0	0	143.351293999993	143.45124509999
38423.25	0.0999797000113176	126	hunger	stimuli/non_foods\non-food_animate_eagle.jpg	1	1	1	non-food_animate_eagle	0	P	11	0	110	0		0	0	143.501272999987	143.601252699998
38460.75	0.0999698999949032	127	hunger	stimuli/non_foods\non-food_animate_millipede.jpg	1	1	1	non-food_animate_millipede	0	H	5	0	129	0		0	0	143.651272399991	143.751242299986
38498.25	0.0999817000119947	128	hunger	stimuli/non_foods\non-food_animate_llama.jpg	1	1	1	non-food_animate_llama	0	V	15	0	127	0		0	0	143.801261099987	143.901242799999
38535.75	0.0999852999957511	129	hunger	stimuli/foods\donut.jpg	1	1	1	donut	1	X	17	0	44	0		0	0	143.951258999994	144.05124429999
38573.25	0.0999849000072572	130	hunger	stimuli/non_foods\non-food_inanimate_bush.jpg	1	1	1	non-food_inanimate_bush	0	G	4	0	167	0		0	0	144.101264699988	144.201249599995
38610.75	0.0999762999999803	131	hunger	stimuli/non_foods\non-food_inanimate_watering_can.jpg	1	1	1	non-food_inanimate_watering_can	0	R	12	0	225	0		0	0	144.251257399999	144.351233699999
38648.25	0.0999918000015896	132	hunger	stimuli/non_foods\non-food_animate_camel.jpg	1	1	1	non-food_animate_camel	0	D	2	0	97	0		0	0	144.401255299992	144.501247099994
38685.75	0.0999803000013344	133	hunger	stimuli/foods\hazelnuts.jpg	1	1	1	hazelnuts	1	P	11	0	65	1	a	0	0	144.551264499998	144.651244799999
38723.25	0.0999882999894908	134	hunger	stimuli/foods\cream_donuts.jpg	1	1	1	cream_donuts	1	M	9	0	39	0		0	0	144.701253599997	144.801241899986
38760.75	0.0999846000049729	135	hunger	stimuli/foods\lemon_meringue_pie.jpg	1	1	1	lemon_meringue_pie	1	P	11	0	73	0		0	0	144.851253799992	144.951238399997
38798.25	0.0999838000134332	136	hunger	stimuli/non_foods\non-food_inanimate_skirt.jpg	1	1	1	non-food_inanimate_skirt	0	M	9	0	209	0		0	0	145.001255599986	145.101239399999
38835.75	0.0999666999996407	137	hunger	stimuli/non_foods\non-food_inanimate_chandelier.jpg	1	1	1	non-food_inanimate_chandelier	0	D	2	0	173	0		0	0	145.151272999996	145.251239699995
38873.25	0.100002099992707	138	hunger	stimuli/non_foods\non-food_animate_Causasian_man.jpg	1	1	1	non-food_animate_Causasian_man	0	T	14	0	89	0		0	0	145.301225599993	145.401227699986
38910.75	0.0999846000049729	139	hunger	stimuli/non_foods\non-food_animate_bat.jpg	1	1	1	non-food_animate_bat	0	F	3	0	94	0		0	0	145.451250499988	145.551235099992
43523.25	0.099976900004549	140	hunger	stimuli/non_foods\non-food_animate_killer_whale.jpg	1	2	1	non-food_animate_killer_whale	0	H	5	0	123	0		0	0	163.901032999987	164.001009899992
43560.75	0.0999607999983709	141	hunger	stimuli/non_foods\non-food_inanimate_grass.jpg	1	2	1	non-food_inanimate_grass	0	S	13	0	184	0		0	0	164.051046199995	164.151006999993
43598.25	0.0999828000058187	142	hunger	stimuli/non_foods\non-food_animate_mouse.jpg	1	2	1	non-food_animate_mouse	0	J	6	0	131	0		0	0	164.201026999988	164.301009799994
43635.75	0.0999804000020958	143	hunger	stimuli/foods\mango.jpg	1	2	1	mango	1	B	0	0	80	0		0	0	164.351020199989	164.451000599991
43673.25	0.09998440000345	144	hunger	stimuli/non_foods\non-food_inanimate_scissors.jpg	1	2	1	non-food_inanimate_scissors	0	T	14	0	205	0		0	0	164.50101149999	164.600995899993
43710.75	0.100019500008784	145	hunger	stimuli/foods\oven-roasted_tomatoes.jpg	1	2	1	oven-roasted_tomatoes	1	C	1	0	232	0		0	0	164.650992899988	164.751012399996
43748.25	0.0999596000037855	146	hunger	stimuli/non_foods\non-food_animate_young_girl.jpg	1	2	1	non-food_animate_young_girl	0	F	3	0	157	0		0	0	164.801034499993	164.900994099997
43785.75	0.099981299994397	147	hunger	stimuli/foods\grapefruits.jpg	1	2	1	grapefruits	1	C	1	0	59	0		0	0	164.950991099991	165.050972399986
43823.25	0.0999860000010813	148	hunger	stimuli/non_foods\non-food_animate_clown.jpg	1	2	1	non-food_animate_clown	0	V	15	0	102	0		0	0	165.101011799998	165.200997799999
43860.75	0.0999815999966813	149	hunger	stimuli/foods\fried_calamari.jpg	1	2	1	fried_calamari	1	N	10	0	50	0		0	0	165.251011999993	165.35099359999
43898.25	0.0999870999949053	150	hunger	stimuli/non_foods\non-food_animate_iguana.jpg	1	2	1	non-food_animate_iguana	0	D	2	0	121	0		0	0	165.401006699991	165.500993799986
43935.75	0.0999857999995584	151	hunger	stimuli/non_foods\non-food_inanimate_cap.jpg	1	2	1	non-food_inanimate_cap	0	E	20	1	171	0		0	0	165.551008899987	165.650994699987
43973.25	0.0999857000133488	152	hunger	stimuli/non_foods\non-food_inanimate_soccer_ball.jpg	1	2	1	non-food_inanimate_soccer_ball	0	H	5	0	210	0		0	0	165.701005699986	165.800991399999
44010.75	0.0999694000056479	153	hunger	stimuli/non_foods\non-food_inanimate_broom.jpg	1	2	1	non-food_inanimate_broom	0	C	1	0	164	0		0	0	165.85101839999	165.950987799995
44048.25	0.0999793999944814	154	hunger	stimuli/foods\lime.jpg	1	2	1	lime	1	X	17	0	76	1	a	0.450182900007349	1	166.001006199993	166.100985599987
44085.75	0.0999840000004042	155	hunger	stimuli/foods\potato_chips.jpg	1	2	1	potato_chips	1	F	3	0	247	0		0	0	166.151000299986	166.250984299986
44123.25	0.0999840000004042	156	hunger	stimuli/foods\lemon.jpg	1	2	1	lemon	1	N	10	0	72	0		0	0	166.300999899991	166.400983899992
44160.75	0.0999929000099655	157	hunger	stimuli/non_foods\non-food_inanimate_bucket.jpg	1	2	1	non-food_inanimate_bucket	0	B	0	0	165	0		0	0	166.45099659999	166.5509895
44198.25	0.0999694000056479	158	hunger	stimuli/non_foods\non-food_animate_student_female.jpg	1	2	1	non-food_animate_student_female	0	C	1	0	151	0		0	0	166.601012599989	166.700981999995
44235.75	0.0999843000026885	159	hunger	stimuli/foods\cooked_ham.jpg	1	2	1	cooked_ham	1	X	17	0	35	0		0	0	166.750992899993	166.850977199996
44273.25	0.0999751999916043	160	hunger	stimuli/foods\dates.jpg	1	2	1	dates	1	J	6	0	43	0		0	0	166.9009964	167.000971599991
44310.75	0.0999824000027729	161	hunger	stimuli/non_foods\non-food_inanimate_tent.jpg	1	2	1	non-food_inanimate_tent	0	P	11	0	219	0		0	0	167.050994299992	167.150976699995
44348.25	0.0999808000051416	162	hunger	stimuli/non_foods\non-food_animate_gorilla.jpg	1	2	1	non-food_animate_gorilla	0	H	5	0	116	0		0	0	167.200994399987	167.300975199993
44385.75	0.0999825000035344	163	hunger	stimuli/foods\pumpkin.jpg	1	2	1	pumpkin	1	D	2	0	250	0		0	0	167.350989999992	167.450972499995
44423.25	0.0999916000000667	164	hunger	stimuli/non_foods\non-food_inanimate_short_sleeved_shirt.jpg	1	2	1	non-food_inanimate_short_sleeved_shirt	0	B	0	0	207	0		0	0	167.500970599998	167.600962199998
44460.75	0.0999745000008261	165	hunger	stimuli/foods\spaghetti_with_meat_sauce.jpg	1	2	1	spaghetti_with_meat_sauce	1	J	6	0	267	0		0	0	167.650991399991	167.750965899992
44498.25	0.0999879000009969	166	hunger	stimuli/non_foods\non-food_inanimate_speakers.jpg	1	2	1	non-food_inanimate_speakers	0	W	16	0	212	0		0	0	167.800979799998	167.900967699999
44535.75	0.0999815999966813	167	hunger	stimuli/foods\watermelon.jpg	1	2	1	watermelon	1	N	10	0	279	0		0	0	167.950979899993	168.05096149999
44573.25	0.0999845000042114	168	hunger	stimuli/non_foods\non-food_animate_cheetah.jpg	1	2	1	non-food_animate_cheetah	0	C	1	0	100	0		0	0	168.100974999994	168.200959499998
44610.75	0.0999837999988813	169	hunger	stimuli/non_foods\non-food_animate_alligator.jpg	1	2	1	non-food_animate_alligator	0	M	9	0	90	0		0	0	168.251000299992	168.35098409999
44648.25	0.099965900008101	170	hunger	stimuli/foods\pork_and_rice.jpg	1	2	1	pork_and_rice	1	K	7	0	245	0		0	0	168.400991499992	168.5009574
44685.75	0.0999870999949053	171	hunger	stimuli/non_foods\non-food_animate_polar_bear.jpg	1	2	1	non-food_animate_polar_bear	0	L	8	0	137	0		0	0	168.550969799995	168.65095689999
44723.25	0.0999793999944814	172	hunger	stimuli/non_foods\non-food_animate_squirrel.jpg	1	2	1	non-food_animate_squirrel	0	B	0	0	150	0		0	0	168.7009712	168.800950599994
44760.75	0.099983299995074	173	hunger	stimuli/foods\fruit_salad.jpg	1	2	1	fruit_salad	1	V	15	0	55	0		0	0	168.850967399994	168.950950699989
44798.25	0.0999821999866981	174	hunger	stimuli/foods\stew_with_potatoes_and_carrots.jpg	1	2	1	stew_with_potatoes_and_carrots	1	R	12	0	271	0		0	0	169.0009689	169.100951099987
44835.75	0.0999696999933803	175	hunger	stimuli/foods\pineapple.jpg	1	2	1	pineapple	1	V	15	0	243	0		0	0	169.150965499997	169.250935199991
44873.25	0.0999762999999803	176	hunger	stimuli/foods\chocolate_bar.jpg	1	2	1	chocolate_bar	1	Z	18	0	26	0		0	0	169.3009647	169.400941
44910.75	0.0999621000082698	177	hunger	stimuli/foods\lentils.jpg	1	2	1	lentils	1	K	7	0	74	0		0	0	169.450977099987	169.550939199995
44948.25	0.0999802000005729	178	hunger	stimuli/foods\baked_cod_with_carrots_and_green_beans.jpg	1	2	1	baked_cod_with_carrots_and_green_beans	1	D	2	0	7	0		0	0	169.600955599992	169.700935799992
44985.75	0.0999809000059031	179	hunger	stimuli/non_foods\non-food_inanimate_teddy_bear.jpg	1	2	1	non-food_inanimate_teddy_bear	0	R	12	0	218	0		0	0	169.750950099988	169.850930999994
45023.25	0.099993199997698	180	hunger	stimuli/non_foods\non-food_inanimate_tulip.jpg	1	2	1	non-food_inanimate_tulip	0	B	0	0	224	0		0	0	169.900950299998	170.000943499996
45060.75	0.100026600004639	181	hunger	stimuli/non_foods\non-food_inanimate_fire_extinguisher.jpg	1	2	1	non-food_inanimate_fire_extinguisher	0	G	4	0	181	0		0	0	170.050934999992	170.150961599997
45098.25	0.0999498999881325	182	hunger	stimuli/foods\lettuce.jpg	1	2	1	lettuce	1	M	9	0	75	0		0	0	170.200988299999	170.300938199987
45135.75	0.0999842000019271	183	hunger	stimuli/non_foods\non-food_animate_sea_lion.jpg	1	2	1	non-food_animate_sea_lion	0	V	15	0	143	0		0	0	170.350952399996	170.450936599998
45173.25	0.0999831999943126	184	hunger	stimuli/foods\waffle.jpg	1	2	1	waffle	1	J	6	0	278	0		0	0	170.500950599991	170.600933799986
45210.75	0.0999806000036187	185	hunger	stimuli/non_foods\non-food_inanimate_leaf.jpg	1	2	1	non-food_inanimate_leaf	0	N	10	0	192	0		0	0	170.650947699993	170.750928299996
45248.25	0.0999855999980355	186	hunger	stimuli/non_foods\non-food_inanimate_protractor.jpg	1	2	1	non-food_inanimate_protractor	0	X	17	0	201	0		0	0	170.800944199989	170.900929799987
45285.75	0.0999840000004042	187	hunger	stimuli/non_foods\non-food_inanimate_guitar.jpg	1	2	1	non-food_inanimate_guitar	0	P	11	0	185	0		0	0	170.950943599993	171.050927599994
45323.25	0.099983299995074	188	hunger	stimuli/foods\apricot.jpg	1	2	1	apricot	1	S	13	0	2	0		0	0	171.100942999998	171.200926299993
45360.75	0.0999646000127541	189	hunger	stimuli/foods\fruit_flan.jpg	1	2	1	fruit_flan	1	P	11	0	53	0		0	0	171.250963199986	171.350927799998
45398.25	0.099985499997274	190	hunger	stimuli/foods\raisins.jpg	1	2	1	raisins	1	N	10	0	252	0		0	0	171.400936899998	171.500922399995
45435.75	0.099983299995074	191	hunger	stimuli/foods\fennel.jpg	1	2	1	fennel	1	B	0	0	47	0		0	0	171.550935099993	171.650918399988
45473.25	0.0999900999886449	192	hunger	stimuli/non_foods\non-food_animate_horse.jpg	1	2	1	non-food_animate_horse	0	J	6	0	119	0		0	0	171.700932899999	171.800922999988
45510.75	0.0999997000035364	193	hunger	stimuli/foods\museli_bars.jpg	1	2	1	museli_bars	1	L	8	0	84	0		0	0	171.850942799996	171.9509425
45548.25	0.0999871999956667	194	hunger	stimuli/non_foods\non-food_inanimate_rack.jpg	1	2	1	non-food_inanimate_rack	0	M	9	0	202	0		0	0	172.000930599999	172.100917799995
45585.75	0.0999870999949053	195	hunger	stimuli/non_foods\non-food_animate_sea_turtle.jpg	1	2	1	non-food_animate_sea_turtle	0	K	7	0	144	0		0	0	172.150930599993	172.250917699988
45623.25	0.0999863000033656	196	hunger	stimuli/non_foods\non-food_animate_baby_sitting.jpg	1	2	1	non-food_animate_baby_sitting	0	X	17	0	93	0		0	0	172.300925499992	172.400911799996
45660.75	0.0999841000011656	197	hunger	stimuli/foods\strawberry.jpg	1	2	1	strawberry	1	F	3	0	272	0		0	0	172.450925799989	172.55090989999
45698.25	0.0999834999965969	198	hunger	stimuli/foods\chilli.jpg	1	2	1	chilli	1	T	14	0	25	0		0	0	172.600924899991	172.700908399987
45735.75	0.0999835999973584	199	hunger	stimuli/non_foods\non-food_inanimate_desk.jpg	1	2	1	non-food_inanimate_desk	0	W	16	0	178	0		0	0	172.750920799997	172.850904399995
45773.25	0.099997400000575	200	hunger	stimuli/foods\spring_onions.jpg	1	2	1	spring_onions	1	L	8	0	269	0		0	0	172.90092059999	173.000917999991
45810.75	0.099981299994397	201	hunger	stimuli/foods\frankfurter_and_provolone_salad.jpg	1	2	1	frankfurter_and_provolone_salad	1	O	22	1	49	0		0	0	173.050920099995	173.150901399989
45848.25	0.0999867000064114	202	hunger	stimuli/non_foods\non-food_animate_green_bug.jpg	1	2	1	non-food_animate_green_bug	0	J	6	0	118	0		0	0	173.200918099988	173.300904799995
45885.75	0.0999848000064958	203	hunger	stimuli/non_foods\non-food_animate_cow.jpg	1	2	1	non-food_animate_cow	0	R	12	0	103	0		0	0	173.35091719999	173.450901999997
45923.25	0.0999773999938043	204	hunger	stimuli/non_foods\non-food_inanimate_bicycle.jpg	1	2	1	non-food_inanimate_bicycle	0	D	2	0	161	1	a	0.443310899994685	1	173.500907399997	173.600884799991
45960.75	0.0999588999984553	205	hunger	stimuli/foods\cinnamon.jpg	1	2	1	cinnamon	1	B	0	0	30	0		0	0	173.650937499988	173.750896399986
45998.25	0.0999975000013364	206	hunger	stimuli/foods\cauliflower.jpg	1	2	1	cauliflower	1	M	9	0	20	0		0	0	173.800896099987	173.900893599988
46035.75	0.0999810000066645	207	hunger	stimuli/non_foods\non-food_animate_penguin.jpg	1	2	1	non-food_animate_penguin	0	L	8	0	135	0		0	0	173.950908599989	174.050889599996
46073.25	0.0999870000086958	208	hunger	stimuli/non_foods\non-food_inanimate_socks.jpg	1	2	1	non-food_inanimate_socks	0	K	7	0	211	0		0	0	174.10090569999	174.200892699999
46110.75	0.0999853999965126	209	hunger	stimuli/non_foods\non-food_inanimate_bamboo.jpg	1	2	1	non-food_inanimate_bamboo	0	W	16	0	159	0		0	0	174.250903499997	174.350888899993
46148.25	0.0999870000086958	210	hunger	stimuli/foods\bagel.jpg	1	2	1	bagel	1	M	9	0	6	0		0	0	174.40089959999	174.500886599999
46185.75	0.0999837999988813	211	hunger	stimuli/non_foods\non-food_inanimate_couch.jpg	1	2	1	non-food_inanimate_couch	0	W	16	0	176	0		0	0	174.550902699993	174.650886499992
46223.25	0.0999971999990521	212	hunger	stimuli/foods\potatoes.jpg	1	2	1	potatoes	1	G	4	0	248	0		0	0	174.700897399991	174.80089459999
46260.75	0.099962799999048	213	hunger	stimuli/non_foods\non-food_animate_hummingbird.jpg	1	2	1	non-food_animate_hummingbird	0	D	2	0	120	0		0	0	174.850919899996	174.950882699995
46298.25	0.0999822999874596	214	hunger	stimuli/foods\blackberry.jpg	1	2	1	blackberry	1	Z	18	0	11	0		0	0	175.000896199999	175.100878499987
46335.75	0.100012499999139	215	hunger	stimuli/non_foods\non-food_inanimate_towel.jpg	1	2	1	non-food_inanimate_towel	0	G	4	0	221	0		0	0	175.15088999999	175.250902499989
46373.25	0.100020900004893	216	hunger	stimuli/foods\pickles.jpg	1	2	1	pickles	1	B	0	0	242	0		0	0	175.300878799986	175.400899699991
46410.75	0.0999893999978667	217	hunger	stimuli/non_foods\non-food_inanimate_buds.jpg	1	2	1	non-food_inanimate_buds	0	P	11	0	166	0		0	0	175.450912999993	175.550902399991
46448.25	0.0999296000081813	218	hunger	stimuli/non_foods\non-food_inanimate_nettle.jpg	1	2	1	non-food_inanimate_nettle	0	X	17	0	197	0		0	0	175.600945499988	175.700875099996
46485.75	0.0999555000016699	219	hunger	stimuli/non_foods\non-food_inanimate_tree.jpg	1	2	1	non-food_inanimate_tree	0	H	5	0	223	0		0	0	175.750885999994	175.850841499996
46523.25	0.0999862000026042	220	hunger	stimuli/foods\brownie.jpg	1	2	1	brownie	1	X	17	0	14	0		0	0	175.900884399991	176.000870599994
46560.75	0.0999829000065802	221	hunger	stimuli/non_foods\non-food_animate_ant.jpg	1	2	1	non-food_animate_ant	0	Z	18	0	91	0		0	0	176.050884899989	176.150867799995
46598.25	0.099965000001248	222	hunger	stimuli/non_foods\non-food_animate_young_boy.jpg	1	2	1	non-food_animate_young_boy	0	V	15	0	156	0		0	0	176.200900299998	176.3008653
46635.75	0.0999827000050573	223	hunger	stimuli/non_foods\non-food_animate_porcupine.jpg	1	2	1	non-food_animate_porcupine	0	T	14	0	138	0		0	0	176.350882999992	176.450865699997
46673.25	0.0999825999897439	224	hunger	stimuli/foods\figs.jpg	1	2	1	figs	1	H	5	0	48	0		0	0	176.500878999999	176.600861599989
46710.75	0.0999846000049729	225	hunger	stimuli/non_foods\non-food_inanimate_briefcase.jpg	1	2	1	non-food_inanimate_briefcase	0	G	4	0	163	0		0	0	176.65087469999	176.750859299995
46748.25	0.0999901000031969	226	hunger	stimuli/foods\lasagna.jpg	1	2	1	lasagna	1	T	14	0	71	0		0	0	176.80087359999	176.900863699993
46785.75	0.0999835000111489	227	hunger	stimuli/non_foods\non-food_animate_parrot.jpg	1	2	1	non-food_animate_parrot	0	V	15	0	133	0		0	0	176.950871999987	177.050855499998
46823.25	0.0999853999965126	228	hunger	stimuli/non_foods\non-food_animate_elephant.jpg	1	2	1	non-food_animate_elephant	0	K	7	0	111	0		0	0	177.100868499998	177.200853899994
46860.75	0.0999522999918554	229	hunger	stimuli/non_foods\non-food_inanimate_construction_helment.jpg	1	2	1	non-food_inanimate_construction_helment	0	X	17	0	175	0		0	0	177.250892199998	177.35084449999
46898.25	0.100004699997953	230	hunger	stimuli/non_foods\non-food_animate_rhino.jpg	1	2	1	non-food_animate_rhino	0	Z	18	0	141	0		0	0	177.400844799995	177.500849499993
46935.75	0.0999857999995584	231	hunger	stimuli/non_foods\non-food_inanimate_waterlily.jpg	1	2	1	non-food_inanimate_waterlily	0	A	19	1	226	0		0	0	177.550864899997	177.650850699996
46973.25	0.0999847000057343	232	hunger	stimuli/non_foods\non-food_inanimate_folding_chair.jpg	1	2	1	non-food_inanimate_folding_chair	0	S	13	0	182	0		0	0	177.700861499994	177.8008462
47010.75	0.0999848999927053	233	hunger	stimuli/foods\cracker.jpg	1	2	1	cracker	1	X	17	0	38	0		0	0	177.850860799997	177.95084569999
47048.25	0.0999819999997271	234	hunger	stimuli/foods\pancakes.jpg	1	2	1	pancakes	1	N	10	0	234	0		0	0	178.000861499997	178.100843499997
47085.75	0.0999861000018427	235	hunger	stimuli/foods\roasted_chicken.jpg	1	2	1	roasted_chicken	1	B	0	0	261	1	a	0.593313399993349	1	178.150855099986	178.250841199988
47123.25	0.099959500003024	236	hunger	stimuli/foods\oregano.jpg	1	2	1	oregano	1	X	17	0	231	0		0	0	178.300901899987	178.40086139999
47160.75	0.0999797999975272	237	hunger	stimuli/foods\garlic.jpg	1	2	1	garlic	1	B	0	0	56	0		0	0	178.450858299999	178.550838099996
47198.25	0.0999885000055656	238	hunger	stimuli/foods\potato_and_green_bean_salad.jpg	1	2	1	potato_and_green_bean_salad	1	V	15	0	246	0		0	0	178.60085029999	178.700838799996
47235.75	0.0999829000065802	239	hunger	stimuli/foods\ice_cream.jpg	1	2	1	ice_cream	1	N	10	0	68	0		0	0	178.750850699987	178.850833599994
47273.25	0.10000740000396	240	hunger	stimuli/non_foods\non-food_inanimate_canoe.jpg	1	2	1	non-food_inanimate_canoe	0	X	17	0	170	0		0	0	178.900847799989	179.000855199993
47310.75	0.0999717999948189	241	hunger	stimuli/foods\ginger_root.jpg	1	2	1	ginger_root	1	M	9	0	57	0		0	0	179.050872599997	179.150844399992
47348.25	0.0999816999974428	242	hunger	stimuli/non_foods\non-food_inanimate_stapler.jpg	1	2	1	non-food_inanimate_stapler	0	F	3	0	213	0		0	0	179.200847999993	179.300829699991
47385.75	0.0999807999905897	243	hunger	stimuli/foods\brie.jpg	1	2	1	brie	1	L	8	0	12	0		0	0	179.350843599997	179.450824399988
47423.25	0.0999964000075124	244	hunger	stimuli/foods\fruit_pie.jpg	1	2	1	fruit_pie	1	W	16	0	54	0		0	0	179.50084149999	179.600837899998
47460.75	0.0999880999879679	245	hunger	stimuli/foods\chocolate_pralines.jpg	1	2	1	chocolate_pralines	1	S	13	0	28	0		0	0	179.650824299999	179.750812399987
47498.25	0.0999672000034479	246	hunger	stimuli/foods\cooked_prawn.jpg	1	2	1	cooked_prawn	1	D	2	0	36	0		0	0	179.800835599992	179.900802799995
47535.75	0.0999872000102187	247	hunger	stimuli/foods\papaya.jpg	1	2	1	papaya	1	R	12	0	235	0		0	0	179.950837799988	180.050824999998
47573.25	0.0999709000025177	248	hunger	stimuli/non_foods\non-food_inanimate_rope.jpg	1	2	1	non-food_inanimate_rope	0	M	9	0	204	0		0	0	180.100846799993	180.200817699995
47610.75	0.0999853999965126	249	hunger	stimuli/foods\fried_zucchini.jpg	1	2	1	fried_zucchini	1	P	11	0	51	0		0	0	180.250832699996	180.350818099992
47648.25	0.0999797999975272	250	hunger	stimuli/foods\risotto_with_zucchini.jpg	1	2	1	risotto_with_zucchini	1	G	4	0	260	0		0	0	180.400833799999	180.500813599996
47685.75	0.0999821000004886	251	hunger	stimuli/non_foods\non-food_inanimate_chair.jpg	1	2	1	non-food_inanimate_chair	0	D	2	0	172	0		0	0	180.550830499997	180.650812599997
47723.25	0.0999808999913512	252	hunger	stimuli/non_foods\non-food_inanimate_hay.jpg	1	2	1	non-food_inanimate_hay	0	P	11	0	187	0		0	0	180.700840699996	180.800821599987
47760.75	0.0999617999914335	253	hunger	stimuli/foods\mortadella.jpg	1	2	1	mortadella	1	F	3	0	83	0		0	0	180.850818499996	180.950780299987
47798.25	0.0999838000134332	254	hunger	stimuli/foods\salami.jpg	1	2	1	salami	1	C	1	0	263	0		0	0	181.000817999986	181.100801799999
47835.75	0.0999797999975272	255	hunger	stimuli/non_foods\non-food_inanimate_bed.jpg	1	2	1	non-food_inanimate_bed	0	R	12	0	160	0		0	0	181.150815899993	181.250795699991
47873.25	0.1000037999911	256	hunger	stimuli/foods\fries.jpg	1	2	1	fries	1	C	1	0	52	0		0	0	181.300797799995	181.400801599986
47910.75	0.0999741999985417	257	hunger	stimuli/non_foods\non-food_inanimate_jeans.jpg	1	2	1	non-food_inanimate_jeans	0	R	12	0	191	0		0	0	181.450815799995	181.550789999994
47948.25	0.0999872999964282	258	hunger	stimuli/non_foods\non-food_inanimate_wrench.jpg	1	2	1	non-food_inanimate_wrench	0	S	13	0	227	0		0	0	181.6008114	181.700798699996
47985.75	0.0999820999859367	259	hunger	stimuli/foods\cereal.jpg	1	2	1	cereal	1	J	6	0	22	0		0	0	181.7508179	181.850799999986
48023.25	0.0999703999987105	260	hunger	stimuli/foods\artichoke.jpg	1	2	1	artichoke	1	V	15	0	3	0		0	0	181.900825799996	182.000796199995
48060.75	0.099987699999474	261	hunger	stimuli/foods\pomegranate.jpg	1	2	1	pomegranate	1	B	0	0	244	0		0	0	182.0508099	182.150797599999
48098.25	0.0999699999956647	262	hunger	stimuli/foods\baked_lamb_with_potatoes.jpg	1	2	1	baked_lamb_with_potatoes	1	E	20	1	8	0		0	0	182.200811899995	182.30078189999
48135.75	0.09998220000125	263	hunger	stimuli/foods\carrot.jpg	1	2	1	carrot	1	S	13	0	19	0		0	0	182.350810399992	182.450792599993
48173.25	0.100011500006076	264	hunger	stimuli/non_foods\non-food_animate_mammoth.jpg	1	2	1	non-food_animate_mammoth	0	K	7	0	128	1	a	0.39181980000285	1	182.500808599987	182.600820099993
48210.75	0.0999808000051416	265	hunger	stimuli/non_foods\non-food_inanimate_pine_cone.jpg	1	2	1	non-food_inanimate_pine_cone	0	Z	18	0	200	0		0	0	182.65080789999	182.750788699996
48248.25	0.0999851000087801	266	hunger	stimuli/foods\onion.jpg	1	2	1	onion	1	L	8	0	229	0		0	0	182.800800399986	182.900785499995
48285.75	0.0999838999996427	267	hunger	stimuli/non_foods\non-food_animate_chicken.jpg	1	2	1	non-food_animate_chicken	0	C	1	0	101	0		0	0	182.950801899991	183.050785799991
48323.25	0.0999796999967657	268	hunger	stimuli/non_foods\non-food_inanimate_bowling_ball.jpg	1	2	1	non-food_inanimate_bowling_ball	0	G	4	0	162	0		0	0	183.100802399989	183.200782099986
48360.75	0.0999889999948209	269	hunger	stimuli/non_foods\non-food_animate_ladybug.jpg	1	2	1	non-food_animate_ladybug	0	S	13	0	124	0		0	0	183.250798399997	183.350787399992
48398.25	0.0999837999988813	270	hunger	stimuli/foods\apple.jpg	1	2	1	apple	1	H	5	0	1	0		0	0	183.400799199997	183.500782999996
48435.75	0.0999847000057343	271	hunger	stimuli/non_foods\non-food_animate_owl.jpg	1	2	1	non-food_animate_owl	0	R	12	0	132	0		0	0	183.550793599992	183.650778299998
48473.25	0.0999733000062406	272	hunger	stimuli/non_foods\non-food_animate_seahorse.jpg	1	2	1	non-food_animate_seahorse	0	G	4	0	145	0		0	0	183.700801899991	183.800775199998
48510.75	0.0999857000133488	273	hunger	stimuli/foods\toasted_bread_with_tomatoes.jpg	1	2	1	toasted_bread_with_tomatoes	1	K	7	0	275	0		0	0	183.850788599986	183.950774299999
48548.25	0.0999818999989657	274	hunger	stimuli/non_foods\non-food_inanimate_suitcase.jpg	1	2	1	non-food_inanimate_suitcase	0	P	11	0	215	0		0	0	184.000788799996	184.100770699995
48585.75	0.0999843000026885	275	hunger	stimuli/foods\spinach.jpg	1	2	1	spinach	1	B	0	0	268	0		0	0	184.150787599996	184.250771899999
48623.25	0.0999849999934668	276	hunger	stimuli/non_foods\non-food_inanimate_toy_airplane.jpg	1	2	1	non-food_inanimate_toy_airplane	0	L	8	0	222	0		0	0	184.300801799996	184.40078679999
48660.75	0.0999523999926168	277	hunger	stimuli/foods\risotto_with_peas_and_asparagus_tips.jpg	1	2	1	risotto_with_peas_and_asparagus_tips	1	F	3	0	259	0		0	0	184.450808399997	184.55076079999
48698.25	0.0999827000050573	278	hunger	stimuli/non_foods\non-food_animate_lion.jpg	1	2	1	non-food_animate_lion	0	P	11	0	125	0		0	0	184.600784899987	184.700767599992
48735.75	0.0999821000004886	279	hunger	stimuli/foods\brussel_sprouts.jpg	1	2	1	brussel_sprouts	1	S	13	0	15	0		0	0	184.75078029999	184.85076239999
53798.25	0.0999774999945657	280	hunger	stimuli/foods\cannoli.jpg	1	3	1	cannoli	1	X	17	0	17	0		0	0	205.000551499994	205.100528999988
53835.75	0.0999815999966813	281	hunger	stimuli/foods\cherry.jpg	1	3	1	cherry	1	F	3	0	23	0		0	0	205.150543099997	205.250524699994
53873.25	0.0999806000036187	282	hunger	stimuli/non_foods\non-food_animate_hummingbird.jpg	1	3	1	non-food_animate_hummingbird	0	C	1	0	120	0		0	0	205.300539899996	205.400520499999
53910.75	0.0999960999906762	283	hunger	stimuli/foods\baked_lamb_with_potatoes.jpg	1	3	1	baked_lamb_with_potatoes	1	T	14	0	8	0		0	0	205.4505469	205.55054299999
53948.25	0.0999870999949053	284	hunger	stimuli/foods\strawberry.jpg	1	3	1	strawberry	1	S	13	0	272	0		0	0	205.600526099995	205.70051319999
53985.75	0.0999825000035344	285	hunger	stimuli/foods\pork_and_rice.jpg	1	3	1	pork_and_rice	1	T	14	0	245	0		0	0	205.750525699987	205.85050819999
54023.25	0.0999880000017583	286	hunger	stimuli/foods\brie.jpg	1	3	1	brie	1	D	2	0	12	0		0	0	205.900527899998	206.000515899999
54060.75	0.0999793000082718	287	hunger	stimuli/non_foods\non-food_inanimate_hammer.jpg	1	3	1	non-food_inanimate_hammer	0	S	13	0	186	0		0	0	206.050506299987	206.150485599996
54098.25	0.0999847000057343	288	hunger	stimuli/non_foods\non-food_animate_ant.jpg	1	3	1	non-food_animate_ant	0	H	5	0	91	0		0	0	206.200529899987	206.300514599992
54135.75	0.0999848000064958	289	hunger	stimuli/non_foods\non-food_animate_deer.jpg	1	3	1	non-food_animate_deer	0	K	7	0	105	0		0	0	206.350523899993	206.4505087
54173.25	0.099985499997274	290	hunger	stimuli/non_foods\non-food_inanimate_lighter.jpg	1	3	1	non-food_inanimate_lighter	0	S	13	0	193	0		0	0	206.500524899995	206.600510399992
54210.75	0.0999721999978647	291	hunger	stimuli/non_foods\non-food_animate_bee.jpg	1	3	1	non-food_animate_bee	0	D	2	0	95	0		0	0	206.650534699991	206.750506899989
54248.25	0.0999879000009969	292	hunger	stimuli/foods\cooked_prawn.jpg	1	3	1	cooked_prawn	1	P	11	0	36	0		0	0	206.800518799995	206.900506699996
54285.75	0.0999869000079343	293	hunger	stimuli/foods\egg.jpg	1	3	1	egg	1	J	6	0	45	0		0	0	206.950520999992	207.0505079
54323.25	0.0999835999973584	294	hunger	stimuli/foods\red_cabbage.jpg	1	3	1	red_cabbage	1	P	11	0	256	0		0	0	207.100519899992	207.200503499989
54360.75	0.0999621999944793	295	hunger	stimuli/non_foods\non-food_animate_skunk.jpg	1	3	1	non-food_animate_skunk	0	C	1	0	147	0		0	0	207.250551499994	207.350513699988
54398.25	0.0999793999944814	296	hunger	stimuli/foods\pear.jpg	1	3	1	pear	1	M	9	0	239	0		0	0	207.400520499999	207.500499899994
54435.75	0.0999886999925366	297	hunger	stimuli/non_foods\non-food_inanimate_padlock.jpg	1	3	1	non-food_inanimate_padlock	0	X	17	0	199	0		0	0	207.550507599997	207.65049629999
54473.25	0.100004299994907	298	hunger	stimuli/foods\coconut.jpg	1	3	1	coconut	1	P	11	0	33	0		0	0	207.700504799999	207.800509099994
54510.75	0.0999616999906721	299	hunger	stimuli/foods\pea_pod.jpg	1	3	1	pea_pod	1	T	14	0	237	0		0	0	207.850532199998	207.950493899989
54548.25	0.0999796999967657	300	hunger	stimuli/foods\waffle.jpg	1	3	1	waffle	1	G	4	0	278	0		0	0	208.00051089999	208.100490599987
54585.75	0.0999873999971896	301	hunger	stimuli/foods\eggplant.jpg	1	3	1	eggplant	1	V	15	0	46	0		0	0	208.150504399993	208.25049179999
54623.25	0.100001200000406	302	hunger	stimuli/non_foods\non-food_animate_horse.jpg	1	3	1	non-food_animate_horse	0	S	13	0	119	0		0	0	208.300509499997	208.400510699998
54660.75	0.0999696000071708	303	hunger	stimuli/foods\cream_donuts.jpg	1	3	1	cream_donuts	1	M	9	0	39	0		0	0	208.450518299986	208.550487899993
54698.25	0.0999816000112332	304	hunger	stimuli/non_foods\non-food_inanimate_bush.jpg	1	3	1	non-food_inanimate_bush	0	J	6	0	167	0		0	0	208.600504199989	208.7004858
54735.75	0.0999812000081874	305	hunger	stimuli/non_foods\non-food_animate_killer_whale.jpg	1	3	1	non-food_animate_killer_whale	0	V	15	0	123	0		0	0	208.750499099988	208.850480299996
54773.25	0.0999960000044666	306	hunger	stimuli/non_foods\non-food_animate_owl.jpg	1	3	1	non-food_animate_owl	0	T	14	0	132	0		0	0	208.900495799986	209.00049179999
54810.75	0.0999828999920283	307	hunger	stimuli/foods\mortadella.jpg	1	3	1	mortadella	1	D	2	0	83	0		0	0	209.050497899996	209.150480799988
54848.25	0.0999712999910116	308	hunger	stimuli/foods\pineapple.jpg	1	3	1	pineapple	1	P	11	0	243	0		0	0	209.200508299997	209.300479599988
54885.75	0.0999843000026885	309	hunger	stimuli/foods\fruit_flan.jpg	1	3	1	fruit_flan	1	L	8	0	53	0		0	0	209.350494399987	209.45047869999
54923.25	0.0999855999980355	310	hunger	stimuli/foods\lemon.jpg	1	3	1	lemon	1	H	5	0	72	0		0	0	209.500487799989	209.600473399987
54960.75	0.100011200003792	311	hunger	stimuli/non_foods\non-food_animate_kangaroo.jpg	1	3	1	non-food_animate_kangaroo	0	Z	18	0	122	0		0	0	209.650462699996	209.7504739
54998.25	0.0999788000044646	312	hunger	stimuli/foods\grilled_chicken_breast.jpg	1	3	1	grilled_chicken_breast	1	J	6	0	63	0		0	0	209.800489699992	209.900468499996
55035.75	0.0999849000072572	313	hunger	stimuli/non_foods\non-food_inanimate_drum_set.jpg	1	3	1	non-food_inanimate_drum_set	0	W	16	0	179	0		0	0	209.950482499989	210.050467399997
55073.25	0.0999994000012521	314	hunger	stimuli/non_foods\non-food_animate_seal.jpg	1	3	1	non-food_animate_seal	0	Z	18	0	146	0		0	0	210.100481699992	210.200481099993
55110.75	0.0999855999980355	315	hunger	stimuli/non_foods\non-food_inanimate_fire_extinguisher.jpg	1	3	1	non-food_inanimate_fire_extinguisher	0	M	9	0	181	0		0	0	210.250482299991	210.350467899989
55148.25	0.0999871000094572	316	hunger	stimuli/foods\salami.jpg	1	3	1	salami	1	X	17	0	263	0		0	0	210.400478999989	210.500466099998
55185.75	0.100000899998122	317	hunger	stimuli/non_foods\non-food_inanimate_grass.jpg	1	3	1	non-food_inanimate_grass	0	N	10	0	184	0		0	0	210.550462999992	210.65046389999
55223.25	0.0999888999940595	318	hunger	stimuli/non_foods\non-food_inanimate_bucket.jpg	1	3	1	non-food_inanimate_bucket	0	T	14	0	165	0		0	0	210.700475399994	210.800464299988
55260.75	0.0999665000126697	319	hunger	stimuli/foods\chilli.jpg	1	3	1	chilli	1	D	2	0	25	0		0	0	210.850492399986	210.950458899999
55298.25	0.0999567999970168	320	hunger	stimuli/non_foods\non-food_animate_sea_lion.jpg	1	3	1	non-food_animate_sea_lion	0	T	14	0	143	0		0	0	211.000475099994	211.100431899991
55335.75	0.0999774999945657	321	hunger	stimuli/foods\salmon.jpg	1	3	1	salmon	1	V	15	0	264	0		0	0	211.150464299993	211.250441799988
55373.25	0.0999758999969345	322	hunger	stimuli/foods\brussel_sprouts.jpg	1	3	1	brussel_sprouts	1	W	16	0	15	0		0	0	211.300472799994	211.400448699991
55410.75	0.0999791000067489	323	hunger	stimuli/non_foods\non-food_inanimate_leaf.jpg	1	3	1	non-food_inanimate_leaf	0	V	15	0	192	0		0	0	211.450459999993	211.550439099999
55448.25	0.0999881000025198	324	hunger	stimuli/foods\peas.jpg	1	3	1	peas	1	G	4	0	240	0		0	0	211.600456699991	211.700444799993
55485.75	0.100001799990423	325	hunger	stimuli/foods\tomato.jpg	1	3	1	tomato	1	W	16	0	276	0		0	0	211.750444799996	211.850446599987
55523.25	0.0999872000102187	326	hunger	stimuli/non_foods\non-food_inanimate_folding_chair.jpg	1	3	1	non-food_inanimate_folding_chair	0	L	8	0	182	0		0	0	211.900457699987	212.000444899997
55560.75	0.0999878000002354	327	hunger	stimuli/foods\lettuce.jpg	1	3	1	lettuce	1	C	1	0	75	0		0	0	212.050455999997	212.150443799997
55598.25	0.0999828000058187	328	hunger	stimuli/non_foods\non-food_inanimate_tulip.jpg	1	3	1	non-food_inanimate_tulip	0	G	4	0	224	0		0	0	212.20045959999	212.300442399996
55635.75	0.0999837999988813	329	hunger	stimuli/non_foods\non-food_animate_iguana.jpg	1	3	1	non-food_animate_iguana	0	N	10	0	121	0		0	0	212.350455699998	212.450439499997
55673.25	0.0999808000051416	330	hunger	stimuli/non_foods\non-food_inanimate_tent.jpg	1	3	1	non-food_inanimate_tent	0	L	8	0	219	0		0	0	212.500457899994	212.600438699999
55710.75	0.0999867000064114	331	hunger	stimuli/non_foods\non-food_animate_clown.jpg	1	3	1	non-food_animate_clown	0	V	15	0	102	0		0	0	212.65047149999	212.750458199997
55748.25	0.0999734999932116	332	hunger	stimuli/foods\mandarin.jpg	1	3	1	mandarin	1	B	0	0	79	0		0	0	212.800461199993	212.900434699986
55785.75	0.0999785000021802	333	hunger	stimuli/non_foods\non-food_inanimate_sun_flower.jpg	1	3	1	non-food_inanimate_sun_flower	0	N	10	0	216	0		0	0	212.950453799989	213.050432299991
55823.25	0.0999829000065802	334	hunger	stimuli/foods\linguine_with_clams.jpg	1	3	1	linguine_with_clams	1	F	3	0	77	0		0	0	213.100448399986	213.200431299992
55860.75	0.0999864999903366	335	hunger	stimuli/foods\mushroom.jpg	1	3	1	mushroom	1	N	10	0	85	0		0	0	213.250445199999	213.35043169999
55898.25	0.0999880000017583	336	hunger	stimuli/foods\fennel.jpg	1	3	1	fennel	1	M	9	0	47	0		0	0	213.400441299993	213.500429299995
55935.75	0.100002200008021	337	hunger	stimuli/non_foods\non-food_animate_bat.jpg	1	3	1	non-food_animate_bat	0	C	1	0	94	0		0	0	213.55042449999	213.650426699998
55973.25	0.0999834999965969	338	hunger	stimuli/non_foods\non-food_animate_ram.jpg	1	3	1	non-food_animate_ram	0	R	12	0	140	0		0	0	213.7004399	213.800423399996
56010.75	0.0999852000095416	339	hunger	stimuli/non_foods\non-food_animate_Causasian_man.jpg	1	3	1	non-food_animate_Causasian_man	0	F	3	0	89	0		0	0	213.85043749999	213.9504227
56048.25	0.0999841000011656	340	hunger	stimuli/non_foods\non-food_inanimate_stapler.jpg	1	3	1	non-food_inanimate_stapler	0	Z	18	0	213	0		0	0	214.000438599993	214.100422699994
56085.75	0.0999841999873752	341	hunger	stimuli/non_foods\non-food_animate_frog.jpg	1	3	1	non-food_animate_frog	0	F	3	0	113	0		0	0	214.150436299999	214.250420499986
56123.25	0.099995199998375	342	hunger	stimuli/foods\cucumber.jpg	1	3	1	cucumber	1	D	2	0	41	0		0	0	214.30043789999	214.400433099989
56160.75	0.0999897000001511	343	hunger	stimuli/foods\fries.jpg	1	3	1	fries	1	N	10	0	52	0		0	0	214.450431099991	214.550420799991
56198.25	0.0999860000010813	344	hunger	stimuli/foods\swordfish.jpg	1	3	1	swordfish	1	K	7	0	273	0		0	0	214.600429399987	214.700415399988
56235.75	0.0999893999978667	345	hunger	stimuli/foods\stew_with_potatoes_and_carrots.jpg	1	3	1	stew_with_potatoes_and_carrots	1	S	13	0	271	0		0	0	214.750427299994	214.850416699992
56273.25	0.09998220000125	346	hunger	stimuli/non_foods\non-food_animate_chicken.jpg	1	3	1	non-food_animate_chicken	0	V	15	0	101	0		0	0	214.900429199988	215.000411399989
56310.75	0.0999882000032812	347	hunger	stimuli/non_foods\non-food_inanimate_orchid.jpg	1	3	1	non-food_inanimate_orchid	0	W	16	0	198	0		0	0	215.050422299988	215.150410499991
56348.25	0.09998440000345	348	hunger	stimuli/non_foods\non-food_animate_lion.jpg	1	3	1	non-food_animate_lion	0	D	2	0	125	0		0	0	215.200423699993	215.300408099996
56385.75	0.0999872999964282	349	hunger	stimuli/non_foods\non-food_inanimate_scissors.jpg	1	3	1	non-food_inanimate_scissors	0	R	12	0	205	0		0	0	215.350419099996	215.450406399992
56423.25	0.0999687000003178	350	hunger	stimuli/foods\mussels.jpg	1	3	1	mussels	1	I	21	1	86	0		0	0	215.500435199996	215.600403899996
56460.75	0.0999816000112332	351	hunger	stimuli/foods\celery.jpg	1	3	1	celery	1	Z	18	0	21	0		0	0	215.650419699989	215.7504013
56498.25	0.0999870999949053	352	hunger	stimuli/non_foods\non-food_inanimate_towel.jpg	1	3	1	non-food_inanimate_towel	0	K	7	0	221	0		0	0	215.800415299993	215.900402399988
56535.75	0.0999839000141947	353	hunger	stimuli/foods\pasta_carbonara.jpg	1	3	1	pasta_carbonara	1	R	12	0	236	0		0	0	215.950415099986	216.050399
56573.25	0.100035399998887	354	hunger	stimuli/non_foods\non-food_inanimate_nailpolish.jpg	1	3	1	non-food_inanimate_nailpolish	0	H	5	0	195	0		0	0	216.100405999998	216.200441399997
56610.75	0.0999662000103854	355	hunger	stimuli/foods\gnocchi.jpg	1	3	1	gnocchi	1	P	11	0	58	0		0	0	216.250430099986	216.350396299997
56648.25	0.0999853999965126	356	hunger	stimuli/foods\smoked_ham.jpg	1	3	1	smoked_ham	1	B	0	0	266	0		0	0	216.400408799993	216.500394199989
56685.75	0.0999848999927053	357	hunger	stimuli/foods\orange.jpg	1	3	1	orange	1	S	13	0	230	0		0	0	216.550406399998	216.650391299991
56723.25	0.0999842000019271	358	hunger	stimuli/foods\donut.jpg	1	3	1	donut	1	P	11	0	44	0		0	0	216.700405599986	216.800389799988
56760.75	0.0999810000066645	359	hunger	stimuli/foods\figs.jpg	1	3	1	figs	1	N	10	0	48	0		0	0	216.850404399986	216.950385399992
56798.25	0.0999819999997271	360	hunger	stimuli/non_foods\non-food_inanimate_buds.jpg	1	3	1	non-food_inanimate_buds	0	P	11	0	166	0		0	0	217.000402399994	217.100384399993
56835.75	0.0999827000050573	361	hunger	stimuli/foods\risotto_with_peas_and_asparagus_tips.jpg	1	3	1	risotto_with_peas_and_asparagus_tips	1	R	12	0	259	0		0	0	217.150402999992	217.250385699997
56873.25	0.0999690000026021	362	hunger	stimuli/non_foods\non-food_animate_tortoise.jpg	1	3	1	non-food_animate_tortoise	0	V	15	0	153	0		0	0	217.300413699995	217.400382699998
56910.75	0.0999842000019271	363	hunger	stimuli/foods\avocado.jpg	1	3	1	avocado	1	S	13	0	5	0		0	0	217.450396399989	217.550380599991
56948.25	0.099983300009626	364	hunger	stimuli/foods\potato_chips.jpg	1	3	1	potato_chips	1	G	4	0	247	0		0	0	217.600395199988	217.700378499998
56985.75	0.0999852999957511	365	hunger	stimuli/foods\raisins.jpg	1	3	1	raisins	1	U	23	1	252	0		0	0	217.750392499991	217.850377799987
57023.25	0.0999979000043822	366	hunger	stimuli/non_foods\non-food_animate_mouse.jpg	1	3	1	non-food_animate_mouse	0	M	9	0	131	0		0	0	217.900396699988	218.000394599992
57060.75	0.0999788000044646	367	hunger	stimuli/foods\rice_cake.jpg	1	3	1	rice_cake	1	H	5	0	258	0		0	0	218.050392699995	218.1503715
57098.25	0.0999891999963438	368	hunger	stimuli/non_foods\non-food_animate_butterfly.jpg	1	3	1	non-food_animate_butterfly	0	J	6	0	96	1	a	0.443205000003218	1	218.200386199998	218.300375399995
57135.75	0.0999802000005729	369	hunger	stimuli/foods\cabbage.jpg	1	3	1	cabbage	1	X	17	0	16	0		0	0	218.350389199986	218.450369399987
57173.25	0.0999860000010813	370	hunger	stimuli/non_foods\non-food_animate_young_boy.jpg	1	3	1	non-food_animate_young_boy	0	F	3	0	156	0		0	0	218.500385399995	218.600371399996
57210.75	0.0999861000018427	371	hunger	stimuli/foods\watermelon.jpg	1	3	1	watermelon	1	K	7	0	279	0		0	0	218.650381499989	218.750367599991
57248.25	0.0999819999997271	372	hunger	stimuli/foods\green_olives.jpg	1	3	1	green_olives	1	X	17	0	62	0		0	0	218.800380299988	218.900362299988
57285.75	0.0999830000073416	373	hunger	stimuli/non_foods\non-food_inanimate_canoe.jpg	1	3	1	non-food_inanimate_canoe	0	D	2	0	170	0		0	0	218.950379699992	219.0503627
57323.25	0.0999703999987105	374	hunger	stimuli/foods\fried_calamari.jpg	1	3	1	fried_calamari	1	L	8	0	50	0		0	0	219.100392399996	219.200362799995
57360.75	0.0999853999965126	375	hunger	stimuli/foods\spinach.jpg	1	3	1	spinach	1	T	14	0	268	0		0	0	219.250376299999	219.350361699995
57398.25	0.0999850000080187	376	hunger	stimuli/foods\brownie.jpg	1	3	1	brownie	1	M	9	0	14	0		0	0	219.400373699988	219.500358699996
57435.75	0.0999856999987969	377	hunger	stimuli/non_foods\non-food_inanimate_shell.jpg	1	3	1	non-food_inanimate_shell	0	G	4	0	206	0		0	0	219.550371899997	219.650357599996
57473.25	0.0999878000002354	378	hunger	stimuli/foods\taco.jpg	1	3	1	taco	1	P	11	0	274	0		0	0	219.700377599991	219.800365399991
57510.75	0.0999541000055615	379	hunger	stimuli/non_foods\non-food_inanimate_short_sleeved_shirt.jpg	1	3	1	non-food_inanimate_short_sleeved_shirt	0	V	15	0	207	0		0	0	219.850399499992	219.950353599997
57548.25	0.0999818999989657	380	hunger	stimuli/non_foods\non-food_animate_grasshopper.jpg	1	3	1	non-food_animate_grasshopper	0	C	1	0	117	0		0	0	220.000369699992	220.100351599991
57585.75	0.0999838999996427	381	hunger	stimuli/foods\red_beans.jpg	1	3	1	red_beans	1	M	9	0	255	0		0	0	220.150365699999	220.250349599999
57623.25	0.0999809000059031	382	hunger	stimuli/non_foods\non-food_inanimate_cactus_pot_plant.jpg	1	3	1	non-food_inanimate_cactus_pot_plant	0	J	6	0	169	0		0	0	220.300367599993	220.400348499999
57660.75	0.0999815999966813	383	hunger	stimuli/foods\coffee_beans.jpg	1	3	1	coffee_beans	1	Z	18	0	34	0		0	0	220.450362799995	220.550344399991
57698.25	0.0999868999933824	384	hunger	stimuli/foods\lemon_meringue_pie.jpg	1	3	1	lemon_meringue_pie	1	H	5	0	73	0		0	0	220.600357699994	220.700344599987
57735.75	0.100006300010136	385	hunger	stimuli/foods\hotdog.jpg	1	3	1	hotdog	1	P	11	0	67	0		0	0	220.750359799989	220.8503661
57773.25	0.0999764000007417	386	hunger	stimuli/foods\cupcake.jpg	1	3	1	cupcake	1	D	2	0	42	0		0	0	220.900376399994	221.000352799994
57810.75	0.0999818999989657	387	hunger	stimuli/foods\toasted_bread_with_tomatoes.jpg	1	3	1	toasted_bread_with_tomatoes	1	Z	18	0	275	0		0	0	221.050355599989	221.150337499988
57848.25	0.0999834000103874	388	hunger	stimuli/non_foods\non-food_animate_camel.jpg	1	3	1	non-food_animate_camel	0	W	16	0	97	0		0	0	221.200352299988	221.300335699998
57885.75	0.0999890999955824	389	hunger	stimuli/foods\spaghetti_with_meat_sauce.jpg	1	3	1	spaghetti_with_meat_sauce	1	B	0	0	267	0		0	0	221.350350599998	221.450339699993
57923.25	0.0999891999963438	390	hunger	stimuli/foods\cracker.jpg	1	3	1	cracker	1	J	6	0	38	0		0	0	221.50035029999	221.600339499986
57960.75	0.0999647999997251	391	hunger	stimuli/foods\pancakes.jpg	1	3	1	pancakes	1	K	7	0	234	0		0	0	221.65036639999	221.75033119999
57998.25	0.09998440000345	392	hunger	stimuli/foods\raw_ham.jpg	1	3	1	raw_ham	1	W	16	0	253	0		0	0	221.800348299992	221.900332699995
58035.75	0.0999832000088645	393	hunger	stimuli/foods\cooked_ham.jpg	1	3	1	cooked_ham	1	J	6	0	35	0		0	0	221.95034499999	222.050328199999
58073.25	0.0999849999934668	394	hunger	stimuli/non_foods\non-food_inanimate_bicycle.jpg	1	3	1	non-food_inanimate_bicycle	0	D	2	0	161	0		0	0	222.100342699996	222.200327699989
58110.75	0.0999866999918595	395	hunger	stimuli/non_foods\non-food_inanimate_briefcase.jpg	1	3	1	non-food_inanimate_briefcase	0	N	10	0	163	0		0	0	222.250343499996	222.350330199988
58148	0.0999857999995584	396	hunger	stimuli/non_foods\non-food_inanimate_socks.jpg	1	3	1	non-food_inanimate_socks	0	E	20	1	211	0		0	0	222.400335399987	222.500321199987
58185.75	0.0999986000097124	397	hunger	stimuli/non_foods\non-food_animate_sea_turtle.jpg	1	3	1	non-food_animate_sea_turtle	0	K	7	0	144	0		0	0	222.550338299989	222.650336899998
58223.25	0.0999746000015875	398	hunger	stimuli/foods\banana.jpg	1	3	1	banana	1	J	6	0	9	0		0	0	222.700344799989	222.80031939999
58260.5	0.0999852999957511	399	hunger	stimuli/non_foods\non-food_animate_lizard.jpg	1	3	1	non-food_animate_lizard	0	W	16	0	126	1	a	0.541824500003713	1	222.850334799994	222.95032009999
58298.25	0.0999720000108937	400	hunger	stimuli/foods\rockmelon.jpg	1	3	1	rockmelon	1	R	12	0	262	0		0	0	223.000336499987	223.100308499997
58335.5	0.0999900000024354	401	hunger	stimuli/non_foods\non-food_animate_alligator.jpg	1	3	1	non-food_animate_alligator	0	L	8	0	90	0		0	0	223.150328399992	223.250318399994
58373.25	0.0999769999907585	402	hunger	stimuli/non_foods\non-food_inanimate_toilet.jpg	1	3	1	non-food_inanimate_toilet	0	G	4	0	220	0		0	0	223.300337799999	223.40031479999
58410.75	0.100045700004557	403	hunger	stimuli/non_foods\non-food_inanimate_chair.jpg	1	3	1	non-food_inanimate_chair	0	M	9	0	172	0		0	0	223.450331299988	223.550376999992
58448	0.0999832000088645	404	hunger	stimuli/non_foods\non-food_animate_woman.jpg	1	3	1	non-food_animate_woman	0	H	5	0	154	0		0	0	223.600326099986	223.700309299995
58485.5	0.099983300009626	405	hunger	stimuli/non_foods\non-food_animate_polar_bear.jpg	1	3	1	non-food_animate_polar_bear	0	S	13	0	137	0		0	0	223.75032359999	223.8503069
58523	0.0999809000059031	406	hunger	stimuli/foods\cereal.jpg	1	3	1	cereal	1	W	16	0	22	0		0	0	223.900322599991	224.000303499997
58560.75	0.0999679999949876	407	hunger	stimuli/foods\cinnamon_sroll.jpg	1	3	1	cinnamon_sroll	1	R	12	0	31	0		0	0	224.050335599997	224.150303599992
58598	0.0999817999982042	408	hunger	stimuli/foods\honey.jpg	1	3	1	honey	1	F	3	0	66	0		0	0	224.200320599994	224.300302399992
58635.75	0.0999690000026021	409	hunger	stimuli/non_foods\non-food_inanimate_chandelier.jpg	1	3	1	non-food_inanimate_chandelier	0	Z	18	0	173	0		0	0	224.350320599988	224.45028959999
58673	0.0999933999992209	410	hunger	stimuli/non_foods\non-food_animate_snail.jpg	1	3	1	non-food_animate_snail	0	K	7	0	149	0		0	0	224.500308099989	224.600301499988
58710.5	0.0999819999997271	411	hunger	stimuli/foods\green_beans.jpg	1	3	1	green_beans	1	H	5	0	61	0		0	0	224.650314099999	224.750296099999
58748	0.0999789999914356	412	hunger	stimuli/non_foods\non-food_animate_millipede.jpg	1	3	1	non-food_animate_millipede	0	G	4	0	129	0		0	0	224.800312299994	224.900291299986
58785.5	0.100005500004045	413	hunger	stimuli/non_foods\non-food_inanimate_highlighter.jpg	1	3	1	non-food_inanimate_highlighter	0	C	1	0	189	0		0	0	224.950301699995	225.050307199999
58823	0.099988600006327	414	hunger	stimuli/non_foods\non-food_inanimate_nettle.jpg	1	3	1	non-food_inanimate_nettle	0	N	10	0	197	0		0	0	225.100303999992	225.200292599999
58860.5	0.0999889999948209	415	hunger	stimuli/foods\prawn.jpg	1	3	1	prawn	1	P	11	0	249	0		0	0	225.250305099995	225.35029409999
58898	0.0999813000089489	416	hunger	stimuli/foods\rice.jpg	1	3	1	rice	1	B	0	0	257	0		0	0	225.40030709999	225.500288399999
58935.5	0.0999869000079343	417	hunger	stimuli/foods\cinnamon.jpg	1	3	1	cinnamon	1	F	3	0	30	0		0	0	225.550300499992	225.6502874
58973	0.0999851999949897	418	hunger	stimuli/foods\hamburger.jpg	1	3	1	hamburger	1	V	15	0	64	0		0	0	225.700299499993	225.800284699988
59010.5	0.0999787999899127	419	hunger	stimuli/non_foods\non-food_animate_squirrel.jpg	1	3	1	non-food_animate_squirrel	0	P	11	0	150	0		0	0	225.850302599996	225.950281399986
63006.5	0.0999799999990501	420	hunger	stimuli/non_foods\non-food_inanimate_soccer_ball.jpg	1	4	1	non-food_inanimate_soccer_ball	0	D	2	0	210	0		0	0	241.833450899998	241.933430899997
63044	0.0999830000073416	421	hunger	stimuli/non_foods\non-food_inanimate_nest.jpg	1	4	1	non-food_inanimate_nest	0	J	6	0	196	0		0	0	241.983446899991	242.083429899998
63081.5	0.0999875999987125	422	hunger	stimuli/foods\pomegranate.jpg	1	4	1	pomegranate	1	H	5	0	244	0		0	0	242.133442499995	242.233430099994
63119	0.0999998999905074	423	hunger	stimuli/foods\omelette.jpg	1	4	1	omelette	1	L	8	0	228	0		0	0	242.2834439	242.38344379999
63156.5	0.0999834999965969	424	hunger	stimuli/non_foods\non-food_inanimate_couch.jpg	1	4	1	non-food_inanimate_couch	0	M	9	0	176	0		0	0	242.433438399996	242.533421899992
63194	0.0999853999965126	425	hunger	stimuli/non_foods\non-food_inanimate_table.jpg	1	4	1	non-food_inanimate_table	0	H	5	0	217	0		0	0	242.583437399997	242.683422799993
63231.5	0.0999827999912668	426	hunger	stimuli/non_foods\non-food_animate_slug.jpg	1	4	1	non-food_animate_slug	0	C	1	0	148	0		0	0	242.733439899996	242.833422699987
63269	0.0999729000031948	427	hunger	stimuli/foods\oregano.jpg	1	4	1	oregano	1	H	5	0	231	0		0	0	242.883436799995	242.983409699998
63306.5	0.0999210000009043	428	hunger	stimuli/foods\papaya.jpg	1	4	1	papaya	1	R	12	0	235	0		0	0	243.03349799999	243.133418999991
63344	0.0999837999988813	429	hunger	stimuli/non_foods\non-food_animate_green_bug.jpg	1	4	1	non-food_animate_green_bug	0	L	8	0	118	0		0	0	243.183432199992	243.283415999991
63381.5	0.0999861999880522	430	hunger	stimuli/non_foods\non-food_animate_dragonfly.jpg	1	4	1	non-food_animate_dragonfly	0	T	14	0	108	0		0	0	243.333429899998	243.433416099986
63419	0.099968100010301	431	hunger	stimuli/non_foods\non-food_animate_student_female.jpg	1	4	1	non-food_animate_student_female	0	M	9	0	151	0		0	0	243.483425599989	243.583393699999
63456.5	0.0999857999995584	432	hunger	stimuli/foods\chocolate_pralines.jpg	1	4	1	chocolate_pralines	1	G	4	0	28	0		0	0	243.6334183	243.733404099999
63494	0.0999837999988813	433	hunger	stimuli/non_foods\non-food_animate_dolphin.jpg	1	4	1	non-food_animate_dolphin	0	C	1	0	106	0		0	0	243.783417999992	243.883401799991
63531.5	0.0999726000009105	434	hunger	stimuli/non_foods\non-food_inanimate_headphones.jpg	1	4	1	non-food_inanimate_headphones	0	I	21	1	188	0		0	0	243.933422699993	244.033395299994
63569	0.100013299990678	435	hunger	stimuli/non_foods\non-food_animate_donkey.jpg	1	4	1	non-food_animate_donkey	0	L	8	0	107	0		0	0	244.083395199996	244.183408499986
63606.5	0.099985300010303	436	hunger	stimuli/non_foods\non-food_animate_pigeon.jpg	1	4	1	non-food_animate_pigeon	0	V	15	0	136	0		0	0	244.233419499986	244.333404799996
63644	0.0999897000001511	437	hunger	stimuli/non_foods\non-food_inanimate_suitcase.jpg	1	4	1	non-food_inanimate_suitcase	0	C	1	0	215	1	a	0.541854600000079	1	244.383417499994	244.483407199994
63681.5	0.0999869000079343	438	hunger	stimuli/non_foods\non-food_animate_llama.jpg	1	4	1	non-food_animate_llama	0	W	16	0	127	0		0	0	244.533415599988	244.633402499996
63719	0.100008599998546	439	hunger	stimuli/foods\almonds.jpg	1	4	1	almonds	1	F	3	0	0	0		0	0	244.6834141	244.783422699998
63756.5	0.0999397999985376	440	hunger	stimuli/non_foods\non-food_animate_porcupine.jpg	1	4	1	non-food_animate_porcupine	0	L	8	0	138	0		0	0	244.833458099994	244.933397899993
63794	0.0999850000080187	441	hunger	stimuli/non_foods\non-food_inanimate_ring.jpg	1	4	1	non-food_inanimate_ring	0	B	0	0	203	0		0	0	244.983412499991	245.083397499999
63831.5	0.0999853999965126	442	hunger	stimuli/non_foods\non-food_inanimate_pine_cone.jpg	1	4	1	non-food_inanimate_pine_cone	0	L	8	0	200	0		0	0	245.133408499998	245.233393899995
63869	0.0999845000042114	443	hunger	stimuli/non_foods\non-food_animate_cow.jpg	1	4	1	non-food_animate_cow	0	G	4	0	103	0		0	0	245.283408399991	245.383392899996
63906.5	0.0999840000004042	444	hunger	stimuli/non_foods\non-food_animate_fox.jpg	1	4	1	non-food_animate_fox	0	K	7	0	112	0		0	0	245.4334045	245.5333885
63944	0.0999885000055656	445	hunger	stimuli/non_foods\non-food_inanimate_jeans.jpg	1	4	1	non-food_inanimate_jeans	0	G	4	0	191	0		0	0	245.583402299992	245.683390799997
63981.5	0.0999584999954095	446	hunger	stimuli/foods\risotto_with_zucchini.jpg	1	4	1	risotto_with_zucchini	1	C	1	0	260	0		0	0	245.733401399993	245.833359899989
64019	0.0999864000041271	447	hunger	stimuli/non_foods\non-food_inanimate_hay.jpg	1	4	1	non-food_inanimate_hay	0	M	9	0	187	0		0	0	245.88339409999	245.983380499994
64056.5	0.0999719999963418	448	hunger	stimuli/foods\lime.jpg	1	4	1	lime	1	Z	18	0	76	0		0	0	246.033404799993	246.133376799989
64094	0.0999848999927053	449	hunger	stimuli/foods\peach.jpg	1	4	1	peach	1	H	5	0	238	0		0	0	246.183390899998	246.283375799991
64131.5	0.0999716999940574	450	hunger	stimuli/non_foods\non-food_inanimate_toy_airplane.jpg	1	4	1	non-food_inanimate_toy_airplane	0	J	6	0	222	0		0	0	246.333385499995	246.433357199989
64169	0.0999623999960022	451	hunger	stimuli/non_foods\non-food_inanimate_protractor.jpg	1	4	1	non-food_inanimate_protractor	0	C	1	0	201	0		0	0	246.4833965	246.583358899996
64206.5	0.0999393999954918	452	hunger	stimuli/foods\broccoli.jpg	1	4	1	broccoli	1	W	16	0	13	0		0	0	246.633436199991	246.733375599986
64244	0.0999851999949897	453	hunger	stimuli/foods\lasagna.jpg	1	4	1	lasagna	1	G	4	0	71	0		0	0	246.783391899997	246.883377099992
64281.5	0.100039900004049	454	hunger	stimuli/foods\radish.jpg	1	4	1	radish	1	L	8	0	251	0		0	0	246.93337079999	247.033410699994
64319	0.0999881999887293	455	hunger	stimuli/non_foods\non-food_animate_dachshund.jpg	1	4	1	non-food_animate_dachshund	0	V	15	0	104	0		0	0	247.083386099999	247.183374299988
64356.5	0.099981299994397	456	hunger	stimuli/foods\corncob.jpg	1	4	1	corncob	1	W	16	0	37	0		0	0	247.233388599998	247.333369899992
64394	0.0999845000042114	457	hunger	stimuli/non_foods\non-food_inanimate_desk.jpg	1	4	1	non-food_inanimate_desk	0	X	17	0	178	0		0	0	247.383381199994	247.483365699998
64431.5	0.0999833999958355	458	hunger	stimuli/non_foods\non-food_inanimate_alarm_clock.jpg	1	4	1	non-food_inanimate_alarm_clock	0	G	4	0	158	0		0	0	247.53338339999	247.633366799986
64469	0.0999715000070864	459	hunger	stimuli/non_foods\non-food_animate_gorilla.jpg	1	4	1	non-food_animate_gorilla	0	M	9	0	116	0		0	0	247.683393199986	247.783364699993
64506.5	0.0999856999987969	460	hunger	stimuli/non_foods\non-food_animate_Asian_man.jpg	1	4	1	non-food_animate_Asian_man	0	X	17	0	88	0		0	0	247.83337919999	247.933364899989
64544	0.0999864999903366	461	hunger	stimuli/foods\oven-roasted_tomatoes.jpg	1	4	1	oven-roasted_tomatoes	1	P	11	0	232	0		0	0	247.983375399999	248.08336189999
64581.5	0.0999882000032812	462	hunger	stimuli/foods\bagel.jpg	1	4	1	bagel	1	K	7	0	6	0		0	0	248.13337299999	248.233361199993
64619	0.100028599990765	463	hunger	stimuli/foods\capsicum.jpg	1	4	1	capsicum	1	T	14	0	18	0		0	0	248.283374999999	248.38340359999
64656.5	0.0999683999980334	464	hunger	stimuli/foods\pepperoni_pizza.jpg	1	4	1	pepperoni_pizza	1	G	4	0	241	0		0	0	248.433386299992	248.53335469999
64694	0.100000199992792	465	hunger	stimuli/non_foods\non-food_animate_german_shepherd.jpg	1	4	1	non-food_animate_german_shepherd	0	S	13	0	114	0		0	0	248.583353599999	248.683353799992
64731.5	0.0999873999971896	466	hunger	stimuli/foods\minestrone_soup.jpg	1	4	1	minestrone_soup	1	F	3	0	82	0		0	0	248.733367699999	248.833355099996
64769	0.0999826999905054	467	hunger	stimuli/non_foods\non-food_animate_peacock.jpg	1	4	1	non-food_animate_peacock	0	P	11	0	134	0		0	0	248.883366299997	248.983348999987
64806.5	0.0999836999981198	468	hunger	stimuli/non_foods\non-food_animate_raccoon.jpg	1	4	1	non-food_animate_raccoon	0	F	3	0	139	0		0	0	249.03336609999	249.133349799988
64844	0.0999799999990501	469	hunger	stimuli/foods\apricot.jpg	1	4	1	apricot	1	K	7	0	2	0		0	0	249.183365699995	249.283345699994
64881.5	0.0999888000078499	470	hunger	stimuli/non_foods\non-food_inanimate_fern.jpg	1	4	1	non-food_inanimate_fern	0	D	2	0	180	0		0	0	249.33335619999	249.433344999998
64919	0.0999672000034479	471	hunger	stimuli/non_foods\non-food_animate_ladybug.jpg	1	4	1	non-food_animate_ladybug	0	L	8	0	124	0		0	0	249.483374699994	249.583341899997
64956.5	0.0999857999995584	472	hunger	stimuli/foods\fruit_salad.jpg	1	4	1	fruit_salad	1	N	10	0	55	0		0	0	249.63335579999	249.733341599989
64994	0.0999886999925366	473	hunger	stimuli/non_foods\non-food_inanimate_stoplight.jpg	1	4	1	non-food_inanimate_stoplight	0	W	16	0	214	0		0	0	249.7833541	249.883342799993
65031.5	0.0999810000066645	474	hunger	stimuli/foods\chocolate_bar.jpg	1	4	1	chocolate_bar	1	G	4	0	26	0		0	0	249.933357599992	250.033338599998
65069	0.0999986999959219	475	hunger	stimuli/non_foods\non-food_animate_runner.jpg	1	4	1	non-food_animate_runner	0	P	11	0	142	0		0	0	250.083355499999	250.183354199995
65106.5	0.0999482999905013	476	hunger	stimuli/foods\garlic.jpg	1	4	1	garlic	1	F	3	0	56	0		0	0	250.233388299996	250.333336599986
65144	0.0999764000007417	477	hunger	stimuli/foods\fruit_pie.jpg	1	4	1	fruit_pie	1	H	5	0	54	0		0	0	250.383349999989	250.48332639999
65181.5	0.0999974999867845	478	hunger	stimuli/foods\dates.jpg	1	4	1	dates	1	P	11	0	43	0		0	0	250.533338699999	250.633336199986
65219	0.099994100004551	479	hunger	stimuli/non_foods\non-food_inanimate_gloves.jpg	1	4	1	non-food_inanimate_gloves	0	N	10	0	183	0		0	0	250.683338799994	250.783332899999
65256.5	0.0999857999995584	480	hunger	stimuli/non_foods\non-food_inanimate_broom.jpg	1	4	1	non-food_inanimate_broom	0	L	8	0	164	0		0	0	250.833339999997	250.933325799997
65294	0.0999847999919439	481	hunger	stimuli/non_foods\non-food_animate_young_girl.jpg	1	4	1	non-food_animate_young_girl	0	G	4	0	157	0		0	0	250.9833411	251.083325899992
65331.5	0.0999774000083562	482	hunger	stimuli/foods\frankfurter_and_provolone_salad.jpg	1	4	1	frankfurter_and_provolone_salad	1	J	6	0	49	0		0	0	251.133340699991	251.233318099999
65369	0.0999791000067489	483	hunger	stimuli/foods\clams.jpg	1	4	1	clams	1	T	14	0	32	0		0	0	251.283344699987	251.383323799993
65406.5	0.0999873999971896	484	hunger	stimuli/foods\blackberry.jpg	1	4	1	blackberry	1	V	15	0	11	0		0	0	251.433337499999	251.533324899996
65444	0.0999871999956667	485	hunger	stimuli/foods\potatoes.jpg	1	4	1	potatoes	1	H	5	0	248	0		0	0	251.583332499999	251.683319699994
65481.5	0.0999920000031125	486	hunger	stimuli/foods\asparagus.jpg	1	4	1	asparagus	1	N	10	0	4	0		0	0	251.73333019999	251.833322199993
65519	0.099981100007426	487	hunger	stimuli/foods\nectarine.jpg	1	4	1	nectarine	1	C	1	0	87	0		0	0	251.883340299988	251.983321399995
65556.5	0.099962799999048	488	hunger	stimuli/foods\spring_onions.jpg	1	4	1	spring_onions	1	W	16	0	269	0		0	0	252.03334899999	252.133311799989
65594	0.0999850000080187	489	hunger	stimuli/non_foods\non-food_inanimate_wrench.jpg	1	4	1	non-food_inanimate_wrench	0	Z	18	0	227	0		0	0	252.18332869999	252.283313699998
65631.5	0.0999838999996427	490	hunger	stimuli/foods\croissant.jpg	1	4	1	croissant	1	F	3	0	40	0		0	0	252.333327799992	252.433311699991
65669	0.0999847000057343	491	hunger	stimuli/non_foods\non-food_inanimate_construction_helment.jpg	1	4	1	non-food_inanimate_construction_helment	0	G	4	0	175	0		0	0	252.483324299988	252.583308999994
65706.5	0.0999852999957511	492	hunger	stimuli/non_foods\non-food_animate_parrot.jpg	1	4	1	non-food_animate_parrot	0	W	16	0	133	0		0	0	252.633322599999	252.733307899995
65744	0.0999873999971896	493	hunger	stimuli/foods\carrot.jpg	1	4	1	carrot	1	F	3	0	19	0		0	0	252.783321199997	252.883308599994
65781.5	0.100018400000408	494	hunger	stimuli/foods\beetroots.jpg	1	4	1	beetroots	1	P	11	0	10	0		0	0	252.93331719999	253.03333559999
65819	0.0999736999947345	495	hunger	stimuli/non_foods\non-food_animate_monkey.jpg	1	4	1	non-food_animate_monkey	0	K	7	0	130	0		0	0	253.083329799992	253.183303499987
65856.5	0.0999846999911824	496	hunger	stimuli/non_foods\non-food_inanimate_bamboo.jpg	1	4	1	non-food_inanimate_bamboo	0	B	0	0	159	0		0	0	253.233314099998	253.333298799989
65894	0.0999819999997271	497	hunger	stimuli/non_foods\non-food_inanimate_speakers.jpg	1	4	1	non-food_inanimate_speakers	0	C	1	0	212	0		0	0	253.38331569999	253.48329769999
65931.5	0.0999872999964282	498	hunger	stimuli/foods\steak.jpg	1	4	1	steak	1	K	7	0	270	0		0	0	253.533313399996	253.633300699992
65969	0.0999834000103874	499	hunger	stimuli/non_foods\non-food_inanimate_cupboard.jpg	1	4	1	non-food_inanimate_cupboard	0	M	9	0	177	0		0	0	253.683330199987	253.783313599997
66006.5	0.0999825999897439	500	hunger	stimuli/non_foods\non-food_inanimate_skateboard.jpg	1	4	1	non-food_inanimate_skateboard	0	L	8	0	208	0		0	0	253.833313399999	253.933295999988
66044	0.0999864000041271	501	hunger	stimuli/foods\cauliflower.jpg	1	4	1	cauliflower	1	G	4	0	20	0		0	0	253.983303299989	254.083289699993
66081.5	0.099989900001674	502	hunger	stimuli/foods\ice_cream.jpg	1	4	1	ice_cream	1	F	3	0	68	0		0	0	254.133303999988	254.23329389999
66119	0.0999853999965126	503	hunger	stimuli/non_foods\non-food_animate_yellow_bug.jpg	1	4	1	non-food_animate_yellow_bug	0	T	14	0	155	0		0	0	254.283305399993	254.383290799989
66156.5	0.0999875999987125	504	hunger	stimuli/non_foods\non-food_inanimate_cap.jpg	1	4	1	non-food_inanimate_cap	0	J	6	0	171	0		0	0	254.433299199998	254.533286799997
66194	0.099985300010303	505	hunger	stimuli/foods\potato_and_green_bean_salad.jpg	1	4	1	potato_and_green_bean_salad	1	R	12	0	246	0		0	0	254.583300399987	254.683285699997
66231.5	0.0999943999922834	506	hunger	stimuli/non_foods\non-food_animate_cat.jpg	1	4	1	non-food_animate_cat	0	W	16	0	98	0		0	0	254.733296399994	254.833290799987
66269	0.0999891999963438	507	hunger	stimuli/foods\chocolate_pudding.jpg	1	4	1	chocolate_pudding	1	X	17	0	29	0		0	0	254.883293699997	254.983282899993
66306.5	0.0999933999992209	508	hunger	stimuli/foods\fried_zucchini.jpg	1	4	1	fried_zucchini	1	U	23	1	51	0		0	0	255.033278699993	255.133272099993
66344	0.0999856999987969	509	hunger	stimuli/foods\onion.jpg	1	4	1	onion	1	G	4	0	229	0		0	0	255.183286299987	255.283271999986
66381.5	0.100013800009037	510	hunger	stimuli/foods\raw_sausage.jpg	1	4	1	raw_sausage	1	K	7	0	254	0		0	0	255.33328359999	255.433297399999
66419	0.0999427999922773	511	hunger	stimuli/foods\mango.jpg	1	4	1	mango	1	V	15	0	80	0		0	0	255.483321199994	255.583263999986
66456.5	0.0999871999956667	512	hunger	stimuli/non_foods\non-food_animate_elephant.jpg	1	4	1	non-food_animate_elephant	0	R	12	0	111	0		0	0	255.633287799996	255.733274999991
66494	0.100008399997023	513	hunger	stimuli/non_foods\non-food_inanimate_rope.jpg	1	4	1	non-food_inanimate_rope	0	C	1	0	204	0		0	0	255.783265399994	255.883273799991
66531.5	0.0999855999980355	514	hunger	stimuli/non_foods\non-food_inanimate_tree.jpg	1	4	1	non-food_inanimate_tree	0	F	3	0	223	0		0	0	255.933281099991	256.033266699989
66569	0.0999888999940595	515	hunger	stimuli/foods\lamb_chops.jpg	1	4	1	lamb_chops	1	B	0	0	70	0		0	0	256.083280799998	256.183269699992
66606.5	0.0999819999997271	516	hunger	stimuli/foods\lollies.jpg	1	4	1	lollies	1	L	8	0	78	0		0	0	256.233281599998	256.333263599998
66644	0.0999863999895751	517	hunger	stimuli/non_foods\non-food_inanimate_button.jpg	1	4	1	non-food_inanimate_button	0	J	6	0	168	0		0	0	256.383278299996	256.483264699986
66681.5	0.0999953999998979	518	hunger	stimuli/foods\oyster.jpg	1	4	1	oyster	1	M	9	0	233	0		0	0	256.533265399994	256.633260799994
66719	0.0999865000048885	519	hunger	stimuli/non_foods\non-food_animate_cheetah.jpg	1	4	1	non-food_animate_cheetah	0	T	14	0	100	0		0	0	256.683275299991	256.783261799996
66756.5	0.09998440000345	520	hunger	stimuli/non_foods\non-food_inanimate_teddy_bear.jpg	1	4	1	non-food_inanimate_teddy_bear	0	D	2	0	218	0		0	0	256.833275399986	256.933259799989
66794	0.0999919999885606	521	hunger	stimuli/foods\museli_bars.jpg	1	4	1	museli_bars	1	P	11	0	84	0		0	0	256.983273999998	257.083265999987
66831.5	0.100021300007938	522	hunger	stimuli/non_foods\non-food_animate_seahorse.jpg	1	4	1	non-food_animate_seahorse	0	C	1	0	145	0		0	0	257.133267799989	257.233289099997
66869	0.0999375999963377	523	hunger	stimuli/non_foods\non-food_animate_eagle.jpg	1	4	1	non-food_animate_eagle	0	P	11	0	110	0		0	0	257.283315299996	257.383252899992
66906.5	0.0999849999934668	524	hunger	stimuli/foods\ginger_root.jpg	1	4	1	ginger_root	1	C	1	0	57	0		0	0	257.433268099994	257.533253099988
66944	0.09998440000345	525	hunger	stimuli/foods\hazelnuts.jpg	1	4	1	hazelnuts	1	P	11	0	65	0		0	0	257.583264199988	257.683248599991
66981.5	0.0999872999964282	526	hunger	stimuli/non_foods\non-food_animate_baby_sitting.jpg	1	4	1	non-food_animate_baby_sitting	0	F	3	0	93	0		0	0	257.733263499991	257.833250799988
67019	0.099984599990421	527	hunger	stimuli/foods\chocolate_chip_cookies.jpg	1	4	1	chocolate_chip_cookies	1	M	9	0	27	0		0	0	257.883259299997	257.983243899987
67056.5	0.099985499997274	528	hunger	stimuli/non_foods\non-food_animate_penguin.jpg	1	4	1	non-food_animate_penguin	0	G	4	0	135	0		0	0	258.033262199999	258.133247699996
67094	0.0999827000050573	529	hunger	stimuli/foods\wafer.jpg	1	4	1	wafer	1	R	12	0	277	0		0	0	258.183260099991	258.283242799997
67131.5	0.0999602999945637	530	hunger	stimuli/non_foods\non-food_inanimate_bowling_ball.jpg	1	4	1	non-food_inanimate_bowling_ball	0	M	9	0	162	0		0	0	258.333278599996	258.43323889999
67169	0.0999855000118259	531	hunger	stimuli/foods\kiwi.jpg	1	4	1	kiwi	1	K	7	0	69	0		0	0	258.483253299986	258.583238799998
67206.5	0.0999823000020115	532	hunger	stimuli/non_foods\non-food_animate_duck.jpg	1	4	1	non-food_animate_duck	0	T	14	0	109	0		0	0	258.633253399996	258.733235699998
67244	0.0999833999958355	533	hunger	stimuli/non_foods\non-food_inanimate_rack.jpg	1	4	1	non-food_inanimate_rack	0	M	9	0	202	0		0	0	258.783252299996	258.883235699992
67281.5	0.0999989000119967	534	hunger	stimuli/non_foods\non-food_inanimate_waterlily.jpg	1	4	1	non-food_inanimate_waterlily	0	C	1	0	226	0		0	0	258.933249999987	259.033248899999
67319	0.0999658000073396	535	hunger	stimuli/non_foods\non-food_animate_caterpillar.jpg	1	4	1	non-food_animate_caterpillar	0	B	0	0	99	0		0	0	259.083268199989	259.183233999996
67356.5	0.0999889000086114	536	hunger	stimuli/non_foods\non-food_inanimate_skirt.jpg	1	4	1	non-food_inanimate_skirt	0	N	10	0	209	0		0	0	259.233245899988	259.333234799997
67394	0.099991900002351	537	hunger	stimuli/foods\chestnut.jpg	1	4	1	chestnut	1	X	17	0	24	0		0	0	259.383238999988	259.48323089999
67431.5	0.0999760999984574	538	hunger	stimuli/non_foods\non-food_inanimate_guitar.jpg	1	4	1	non-food_inanimate_guitar	0	P	11	0	185	0		0	0	259.533244899998	259.633220999996
67469	0.0999871999956667	539	hunger	stimuli/non_foods\non-food_animate_swan.jpg	1	4	1	non-food_animate_swan	0	T	14	0	152	0		0	0	259.683233699994	259.78322089999
67506.5	0.0999917000008281	540	hunger	stimuli/foods\grapefruits.jpg	1	4	1	grapefruits	1	V	15	0	59	0		0	0	259.833232999998	259.933224699998
67544	0.0999830999935511	541	hunger	stimuli/foods\pumpkin.jpg	1	4	1	pumpkin	1	R	12	0	250	0		0	0	259.983237499997	260.08322059999
67581.5	0.0999758999969345	542	hunger	stimuli/non_foods\non-food_animate_giraffe.jpg	1	4	1	non-food_animate_giraffe	0	S	13	0	115	0		0	0	260.1332482	260.233224099997
67619	0.09998440000345	543	hunger	stimuli/foods\roasted_chicken.jpg	1	4	1	roasted_chicken	1	T	14	0	261	0		0	0	260.283233199996	260.3832176
67656.5	0.0999849999934668	544	hunger	stimuli/non_foods\non-food_inanimate_bed.jpg	1	4	1	non-food_inanimate_bed	0	X	17	0	160	0		0	0	260.433231899995	260.533216899988
67694	0.0999638000066625	545	hunger	stimuli/non_foods\non-food_animate_rhino.jpg	1	4	1	non-food_animate_rhino	0	Z	18	0	141	0		0	0	260.583233599988	260.683197399994
67731.5	0.0999687000003178	546	hunger	stimuli/non_foods\non-food_inanimate_watering_can.jpg	1	4	1	non-food_inanimate_watering_can	0	P	11	0	225	0		0	0	260.733238699991	260.833207399992
67769	0.099949800001923	547	hunger	stimuli/foods\lentils.jpg	1	4	1	lentils	1	F	3	0	74	0		0	0	260.883256299989	260.983206099991
67806.5	0.0999848000064958	548	hunger	stimuli/foods\savory_pie.jpg	1	4	1	savory_pie	1	W	16	0	265	0		0	0	261.033228899993	261.133213699999
67844	0.0999929999961751	549	hunger	stimuli/non_foods\non-food_animate_mammoth.jpg	1	4	1	non-food_animate_mammoth	0	C	1	0	128	0		0	0	261.183218099992	261.283211099988
67881.5	0.0999809000059031	550	hunger	stimuli/non_foods\non-food_inanimate_horn.jpg	1	4	1	non-food_inanimate_horn	0	G	4	0	190	0		0	0	261.333223799986	261.433204699992
67919	0.099988799993298	551	hunger	stimuli/foods\baked_cod_with_carrots_and_green_beans.jpg	1	4	1	baked_cod_with_carrots_and_green_beans	1	J	6	0	7	0		0	0	261.483217999994	261.583206799987
67956.5	0.100008599998546	552	hunger	stimuli/foods\apple.jpg	1	4	1	apple	1	L	8	0	1	0		0	0	261.633195399991	261.733203999989
67994	0.0999857999995584	553	hunger	stimuli/foods\meatballs.jpg	1	4	1	meatballs	1	F	3	0	81	0		0	0	261.783215999996	261.883201799996
68031.5	0.0999703999987105	554	hunger	stimuli/non_foods\non-food_inanimate_moss.jpg	1	4	1	non-food_inanimate_moss	0	C	1	0	194	0		0	0	261.933229399991	262.033199799989
68069	0.0999862000026042	555	hunger	stimuli/foods\pickles.jpg	1	4	1	pickles	1	L	8	0	242	0		0	0	262.083212999991	262.183199199993
68106.5	0.0999826000042958	556	hunger	stimuli/foods\grapes.jpg	1	4	1	grapes	1	N	10	0	60	0		0	0	262.233211999992	262.333194599996
68144	0.0999788000044646	557	hunger	stimuli/non_foods\non-food_inanimate_clover.jpg	1	4	1	non-food_inanimate_clover	0	P	11	0	174	0		0	0	262.383212199988	262.483190999992
68181.5	0.0999999999912689	558	hunger	stimuli/non_foods\non-food_animate_baby_crawling.jpg	1	4	1	non-food_animate_baby_crawling	0	J	6	0	92	0		0	0	262.533216399999	262.63321639999
68219	0.0999549999978626	559	hunger	stimuli/foods\artichoke.jpg	1	4	1	artichoke	1	F	3	0	3	0		0	0	262.683237899997	262.783192899995
73448	0.0999788000044646	560	hunger	stimuli/non_foods\non-food_inanimate_short_sleeved_shirt.jpg	1	5	1	non-food_inanimate_short_sleeved_shirt	0	B	0	0	207	0		0	0	283.599645099996	283.6996239
73485.5	0.0999900000024354	561	hunger	stimuli/foods\lime.jpg	1	5	1	lime	1	H	5	0	76	0		0	0	283.749626199991	283.849616199994
73523	0.099956200007	562	hunger	stimuli/non_foods\non-food_inanimate_bicycle.jpg	1	5	1	non-food_inanimate_bicycle	0	N	10	0	161	0		0	0	283.899655699992	283.999611899999
73560.5	0.0999830000073416	563	hunger	stimuli/foods\coconut.jpg	1	5	1	coconut	1	P	11	0	33	0		0	0	284.049631099988	284.149614099995
73598	0.0999716000078479	564	hunger	stimuli/foods\coffee_beans.jpg	1	5	1	coffee_beans	1	K	7	0	34	0		0	0	284.199629699986	284.299601299994
73635.5	0.0999871000094572	565	hunger	stimuli/foods\strawberry.jpg	1	5	1	strawberry	1	Z	18	0	272	0		0	0	284.349623099988	284.449610199998
73673	0.0999863000033656	566	hunger	stimuli/foods\savory_pie.jpg	1	5	1	savory_pie	1	K	7	0	265	0		0	0	284.499624499993	284.599610799996
73710.5	0.0999838999996427	567	hunger	stimuli/non_foods\non-food_animate_snail.jpg	1	5	1	non-food_animate_snail	0	B	0	0	149	0		0	0	284.649620599987	284.749604499986
73748	0.0999764000007417	568	hunger	stimuli/non_foods\non-food_inanimate_nettle.jpg	1	5	1	non-food_inanimate_nettle	0	X	17	0	197	0		0	0	284.799629199988	284.899605599989
73785.5	0.100007900007768	569	hunger	stimuli/foods\toasted_bread_with_tomatoes.jpg	1	5	1	toasted_bread_with_tomatoes	1	S	13	0	275	0		0	0	284.94962069999	285.049628599998
73823	0.0999951000121655	570	hunger	stimuli/foods\salami.jpg	1	5	1	salami	1	A	19	1	263	0		0	0	285.099605599986	285.199600699998
73860.5	0.099978900005226	571	hunger	stimuli/non_foods\non-food_animate_monkey.jpg	1	5	1	non-food_animate_monkey	0	B	0	0	130	0		0	0	285.249614299988	285.349593199993
73898	0.0999836000119103	572	hunger	stimuli/foods\lollies.jpg	1	5	1	lollies	1	H	5	0	78	0		0	0	285.399614899987	285.499598499999
73935.5	0.0999854000110645	573	hunger	stimuli/non_foods\non-food_animate_ladybug.jpg	1	5	1	non-food_animate_ladybug	0	F	3	0	124	0		0	0	285.549613799987	285.649599199998
73973	0.0999742999993032	574	hunger	stimuli/non_foods\non-food_inanimate_headphones.jpg	1	5	1	non-food_inanimate_headphones	0	C	1	0	188	1	a	0.600224000008893	1	285.699624299988	285.799598599988
74010.5	0.0999640000081854	575	hunger	stimuli/foods\pear.jpg	1	5	1	pear	1	D	2	0	239	0		0	0	285.849623099988	285.949587099996
74048	0.0999828000058187	576	hunger	stimuli/non_foods\non-food_animate_gorilla.jpg	1	5	1	non-food_animate_gorilla	0	M	9	0	116	0		0	0	285.999609099992	286.099591899998
74085.5	0.0999790000059875	577	hunger	stimuli/non_foods\non-food_inanimate_protractor.jpg	1	5	1	non-food_inanimate_protractor	0	T	14	0	201	0		0	0	286.149607399988	286.249586399994
74123	0.0999860000010813	578	hunger	stimuli/foods\potato_and_green_bean_salad.jpg	1	5	1	potato_and_green_bean_salad	1	H	5	0	246	0		0	0	286.299602199986	286.399588199987
74160.5	0.0999850000080187	579	hunger	stimuli/non_foods\non-food_animate_baby_crawling.jpg	1	5	1	non-food_animate_baby_crawling	0	C	1	0	92	0		0	0	286.449604799986	286.549589799994
74198	0.0999754000076791	580	hunger	stimuli/foods\tomato.jpg	1	5	1	tomato	1	W	16	0	276	0		0	0	286.599600199988	286.699575599996
74235.5	0.0999881999887293	581	hunger	stimuli/foods\nectarine.jpg	1	5	1	nectarine	1	J	6	0	87	0		0	0	286.749598299997	286.849586499986
74273	0.0999847999919439	582	hunger	stimuli/non_foods\non-food_inanimate_highlighter.jpg	1	5	1	non-food_inanimate_highlighter	0	V	15	0	189	0		0	0	286.899596699994	286.999581499986
74310.5	0.0999908999947365	583	hunger	stimuli/non_foods\non-food_animate_young_girl.jpg	1	5	1	non-food_animate_young_girl	0	C	1	0	157	0		0	0	287.049586499998	287.149577399992
74348	0.0999940000037896	584	hunger	stimuli/non_foods\non-food_animate_polar_bear.jpg	1	5	1	non-food_animate_polar_bear	0	G	4	0	137	0		0	0	287.199585999988	287.299579999992
74385.5	0.0999907999939751	585	hunger	stimuli/foods\kiwi.jpg	1	5	1	kiwi	1	F	3	0	69	0		0	0	287.349589799996	287.44958059999
74423	0.0999693000048865	586	hunger	stimuli/non_foods\non-food_inanimate_chandelier.jpg	1	5	1	non-food_inanimate_chandelier	0	S	13	0	173	0		0	0	287.499605299992	287.599574599997
74460.5	0.0999691000033636	587	hunger	stimuli/non_foods\non-food_animate_skunk.jpg	1	5	1	non-food_animate_skunk	0	P	11	0	147	0		0	0	287.649596499992	287.749565599996
74498	0.0999759999976959	588	hunger	stimuli/foods\capsicum.jpg	1	5	1	capsicum	1	L	8	0	18	0		0	0	287.799587199988	287.899563199986
74535.5	0.0999863000033656	589	hunger	stimuli/foods\asparagus.jpg	1	5	1	asparagus	1	N	10	0	4	0		0	0	287.949586699993	288.049572999997
74573	0.0999766000022646	590	hunger	stimuli/non_foods\non-food_animate_dragonfly.jpg	1	5	1	non-food_animate_dragonfly	0	F	3	0	108	0		0	0	288.099588599987	288.19956519999
74610.5	0.0999843000026885	591	hunger	stimuli/non_foods\non-food_animate_duck.jpg	1	5	1	non-food_animate_duck	0	P	11	0	109	0		0	0	288.249580399992	288.349564699995
74648	0.0999830999935511	592	hunger	stimuli/foods\apricot.jpg	1	5	1	apricot	1	R	12	0	2	0		0	0	288.3995803	288.499563399993
74685.5	0.0998969999927795	593	hunger	stimuli/non_foods\non-food_inanimate_drum_set.jpg	1	5	1	non-food_inanimate_drum_set	0	K	7	0	179	0		0	0	288.549668099993	288.649565099986
74723	0.0999893999978667	594	hunger	stimuli/non_foods\non-food_inanimate_horn.jpg	1	5	1	non-food_inanimate_horn	0	R	12	0	190	0		0	0	288.699573599995	288.799562999993
74760.5	0.0999855999980355	595	hunger	stimuli/foods\chocolate_bar.jpg	1	5	1	chocolate_bar	1	I	21	1	26	0		0	0	288.84957369999	288.949559299988
74798	0.0999874999979511	596	hunger	stimuli/non_foods\non-food_animate_seahorse.jpg	1	5	1	non-food_animate_seahorse	0	N	10	0	145	0		0	0	288.999572399989	289.099559899987
74835.5	0.0999666999996407	597	hunger	stimuli/non_foods\non-food_inanimate_button.jpg	1	5	1	non-food_inanimate_button	0	F	3	0	168	0		0	0	289.149571899994	289.249538599994
74873	0.0999677000072552	598	hunger	stimuli/foods\mortadella.jpg	1	5	1	mortadella	1	B	0	0	83	1	a	0.450281700002961	1	289.299609799986	289.399577499993
74910.5	0.0999847000057343	599	hunger	stimuli/foods\brownie.jpg	1	5	1	brownie	1	P	11	0	14	0		0	0	289.44956909999	289.549553799996
74948	0.10001110000303	600	hunger	stimuli/non_foods\non-food_inanimate_nest.jpg	1	5	1	non-food_inanimate_nest	0	G	4	0	196	0		0	0	289.599540899988	289.699551999991
74985.5	0.0999857000133488	601	hunger	stimuli/foods\pepperoni_pizza.jpg	1	5	1	pepperoni_pizza	1	H	5	0	241	0		0	0	289.749564299986	289.849549999999
75023	0.0999911999970209	602	hunger	stimuli/non_foods\non-food_inanimate_bamboo.jpg	1	5	1	non-food_inanimate_bamboo	0	L	8	0	159	0		0	0	289.899558599995	289.999549799992
75060.5	0.0999852999957511	603	hunger	stimuli/foods\mango.jpg	1	5	1	mango	1	T	14	0	80	0		0	0	290.049558999992	290.149544299988
75098	0.100005900007091	604	hunger	stimuli/non_foods\non-food_animate_owl.jpg	1	5	1	non-food_animate_owl	0	L	8	0	132	0		0	0	290.199540499991	290.299546399998
75135.5	0.099952000004123	605	hunger	stimuli/non_foods\non-food_animate_horse.jpg	1	5	1	non-food_animate_horse	0	C	1	0	119	0		0	0	290.349568099991	290.449520099995
75173	0.0999816999974428	606	hunger	stimuli/foods\red_cabbage.jpg	1	5	1	red_cabbage	1	M	9	0	256	0		0	0	290.499551599991	290.599533299988
75210.5	0.0999783000006573	607	hunger	stimuli/foods\figs.jpg	1	5	1	figs	1	P	11	0	48	0		0	0	290.649560599995	290.749538899996
75248	0.100008499997784	608	hunger	stimuli/non_foods\non-food_inanimate_buds.jpg	1	5	1	non-food_inanimate_buds	0	L	8	0	166	0		0	0	290.799528699994	290.899537199992
75285.5	0.100007200002437	609	hunger	stimuli/non_foods\non-food_animate_cheetah.jpg	1	5	1	non-food_animate_cheetah	0	V	15	0	100	0		0	0	290.949554599996	291.049561799999
75323	0.0999799999990501	610	hunger	stimuli/foods\cabbage.jpg	1	5	1	cabbage	1	M	9	0	16	0		0	0	291.099554699991	291.19953469999
75360.5	0.0999837999988813	611	hunger	stimuli/foods\peas.jpg	1	5	1	peas	1	Z	18	0	240	0		0	0	291.249546899999	291.349530699998
75398	0.0999861999880522	612	hunger	stimuli/foods\onion.jpg	1	5	1	onion	1	S	13	0	229	0		0	0	291.399547599998	291.499533799986
75435.5	0.0999824000027729	613	hunger	stimuli/non_foods\non-food_animate_baby_sitting.jpg	1	5	1	non-food_animate_baby_sitting	0	N	10	0	93	0		0	0	291.54954349999	291.649525899993
75473	0.0999913999985438	614	hunger	stimuli/foods\pork_and_rice.jpg	1	5	1	pork_and_rice	1	T	14	0	245	0		0	0	291.699538199988	291.799529599986
75510.5	0.0999709000025177	615	hunger	stimuli/non_foods\non-food_animate_ant.jpg	1	5	1	non-food_animate_ant	0	R	12	0	91	0		0	0	291.849543799995	291.949514699998
75548	0.0999842000019271	616	hunger	stimuli/non_foods\non-food_animate_cat.jpg	1	5	1	non-food_animate_cat	0	D	2	0	98	0		0	0	291.999533999988	292.09951819999
75585.5	0.0999712000048021	617	hunger	stimuli/non_foods\non-food_inanimate_sun_flower.jpg	1	5	1	non-food_inanimate_sun_flower	0	S	13	0	216	0		0	0	292.149552099989	292.249523299994
75623	0.0999833999958355	618	hunger	stimuli/non_foods\non-food_animate_sea_turtle.jpg	1	5	1	non-food_animate_sea_turtle	0	U	23	1	144	0		0	0	292.299538599997	292.399521999992
75660.5	0.0999862000026042	619	hunger	stimuli/non_foods\non-food_animate_chicken.jpg	1	5	1	non-food_animate_chicken	0	F	3	0	101	0		0	0	292.449535599997	292.5495218
75698	0.0999744000000646	620	hunger	stimuli/non_foods\non-food_animate_yellow_bug.jpg	1	5	1	non-food_animate_yellow_bug	0	K	7	0	155	0		0	0	292.599537699993	292.699512099993
75735.5	0.0999789999914356	621	hunger	stimuli/foods\raisins.jpg	1	5	1	raisins	1	D	2	0	252	0		0	0	292.749527799999	292.84950679999
75773	0.0999658999935491	622	hunger	stimuli/non_foods\non-food_inanimate_canoe.jpg	1	5	1	non-food_inanimate_canoe	0	N	10	0	170	0		0	0	292.899539699996	292.99950559999
75810.5	0.0999766000022646	623	hunger	stimuli/foods\pea_pod.jpg	1	5	1	pea_pod	1	V	15	0	237	0		0	0	293.049521199995	293.149497799997
75848	0.0999818999989657	624	hunger	stimuli/foods\cherry.jpg	1	5	1	cherry	1	L	8	0	23	0		0	0	293.199525399992	293.299507299991
75885.5	0.0999855999980355	625	hunger	stimuli/non_foods\non-food_inanimate_fern.jpg	1	5	1	non-food_inanimate_fern	0	M	9	0	180	0		0	0	293.349525599988	293.449511199986
75923	0.0999871999956667	626	hunger	stimuli/non_foods\non-food_inanimate_bucket.jpg	1	5	1	non-food_inanimate_bucket	0	D	2	0	165	0		0	0	293.499519299992	293.599506499988
75960.5	0.0999897999863606	627	hunger	stimuli/non_foods\non-food_animate_kangaroo.jpg	1	5	1	non-food_animate_kangaroo	0	C	1	0	122	0		0	0	293.649520999999	293.749510799986
75998	0.100003400002606	628	hunger	stimuli/non_foods\non-food_inanimate_socks.jpg	1	5	1	non-food_inanimate_socks	0	H	5	0	211	0		0	0	293.799519099994	293.899522499996
76035.5	0.0999812000081874	629	hunger	stimuli/non_foods\non-food_inanimate_jeans.jpg	1	5	1	non-food_inanimate_jeans	0	K	7	0	191	0		0	0	293.949519299989	294.049500499998
76073	0.0999870999949053	630	hunger	stimuli/foods\croissant.jpg	1	5	1	croissant	1	F	3	0	40	0		0	0	294.099514699992	294.199501799987
76110.5	0.0999751999916043	631	hunger	stimuli/non_foods\non-food_inanimate_broom.jpg	1	5	1	non-food_inanimate_broom	0	L	8	0	164	0		0	0	294.249515699994	294.349490899986
76148	0.09998440000345	632	hunger	stimuli/non_foods\non-food_animate_caterpillar.jpg	1	5	1	non-food_animate_caterpillar	0	K	7	0	99	0		0	0	294.399514399993	294.499498799996
76185.5	0.100023200007854	633	hunger	stimuli/non_foods\non-food_inanimate_gloves.jpg	1	5	1	non-food_inanimate_gloves	0	L	8	0	183	0		0	0	294.549529699987	294.649552899995
76223	0.0999828000058187	634	hunger	stimuli/foods\pickles.jpg	1	5	1	pickles	1	P	11	0	242	0		0	0	294.699507799989	294.799490599995
76260.5	0.0999848999927053	635	hunger	stimuli/non_foods\non-food_inanimate_couch.jpg	1	5	1	non-food_inanimate_couch	0	M	9	0	176	0		0	0	294.849505699996	294.949490599989
76298	0.0999882000032812	636	hunger	stimuli/non_foods\non-food_animate_mammoth.jpg	1	5	1	non-food_animate_mammoth	0	B	0	0	128	0		0	0	294.999500299993	295.099488499996
76335.5	0.0999855999980355	637	hunger	stimuli/non_foods\non-food_inanimate_skateboard.jpg	1	5	1	non-food_inanimate_skateboard	0	T	14	0	208	0		0	0	295.149501799999	295.249487399997
76373	0.0999821000004886	638	hunger	stimuli/non_foods\non-food_animate_parrot.jpg	1	5	1	non-food_animate_parrot	0	K	7	0	133	0		0	0	295.299503699993	295.399485799993
76410.5	0.099983299995074	639	hunger	stimuli/foods\apple.jpg	1	5	1	apple	1	Z	18	0	1	0		0	0	295.449499399998	295.549482699993
76448	0.0999874999979511	640	hunger	stimuli/non_foods\non-food_inanimate_chair.jpg	1	5	1	non-food_inanimate_chair	0	G	4	0	172	0		0	0	295.59949719999	295.699484699988
76485.5	0.0999814999959199	641	hunger	stimuli/non_foods\non-food_animate_mouse.jpg	1	5	1	non-food_animate_mouse	0	R	12	0	131	0		0	0	295.749498099991	295.849479599987
76523	0.0999797999975272	642	hunger	stimuli/foods\pasta_carbonara.jpg	1	5	1	pasta_carbonara	1	W	16	0	236	0		0	0	295.899497499995	295.999477299993
76560.5	0.0999827999912668	643	hunger	stimuli/non_foods\non-food_inanimate_cupboard.jpg	1	5	1	non-food_inanimate_cupboard	0	T	14	0	177	0		0	0	296.049494899999	296.14947769999
76598	0.09998220000125	644	hunger	stimuli/foods\roasted_chicken.jpg	1	5	1	roasted_chicken	1	Z	18	0	261	0		0	0	296.199489199993	296.299471399994
76635.5	0.100015799995163	645	hunger	stimuli/foods\beetroots.jpg	1	5	1	beetroots	1	B	0	0	10	0		0	0	296.349486999999	296.449502799995
76673	0.0999803000013344	646	hunger	stimuli/non_foods\non-food_animate_bat.jpg	1	5	1	non-food_animate_bat	0	D	2	0	94	0		0	0	296.49949039999	296.599470699992
