onset	duration	eventnumber	hunger_condition	stimfilename	blockno	trialno	is_faststream	stim	food_idx	letter	letter_idx	istarget	image_number	response	keypressed	rt	correct	time_stimon	time_stimoff
15283	0.0999776001553982	0	hunger	stimuli/foods\hamburger.jpg	1	1	1	hamburger	1	L	8	0	64	0		0	0	76.1345964998472	76.2345741000026
15320.5	0.100043699843809	1	hunger	stimuli/non_foods\non-food_inanimate_drum_set.jpg	1	1	1	non-food_inanimate_drum_set	0	W	16	0	179	0		0	0	76.2845930999611	76.3846367998049
15358	0.0999971001874655	2	hunger	stimuli/foods\brussel_sprouts.jpg	1	1	1	brussel_sprouts	1	Z	18	0	15	0		0	0	76.4345826997887	76.5345797999762
15395.5	0.0999855999834836	3	hunger	stimuli/non_foods\non-food_inanimate_bed.jpg	1	1	1	non-food_inanimate_bed	0	S	13	0	160	0		0	0	76.5845900999848	76.6845756999683
15433	0.0999843999743462	4	hunger	stimuli/non_foods\non-food_animate_german_shepherd.jpg	1	1	1	non-food_animate_german_shepherd	0	W	16	0	114	0		0	0	76.734588699881	76.8345730998553
15470.5	0.0999841999728233	5	hunger	stimuli/non_foods\non-food_inanimate_toilet.jpg	1	1	1	non-food_inanimate_toilet	0	P	11	0	220	0		0	0	76.8845893999096	76.9845735998824
15508	0.100002799881622	6	hunger	stimuli/foods\steak.jpg	1	1	1	steak	1	F	3	0	270	0		0	0	77.0345862999093	77.1345890997909
15545.5	0.0999775999225676	7	hunger	stimuli/non_foods\non-food_inanimate_horn.jpg	1	1	1	non-food_inanimate_horn	0	M	9	0	190	0		0	0	77.1845968000125	77.2845743999351
15583	0.0999835999682546	8	hunger	stimuli/foods\pork_and_rice.jpg	1	1	1	pork_and_rice	1	H	5	0	245	0		0	0	77.3345859998371	77.4345695998054
15620.5	0.0999881001189351	9	hunger	stimuli/non_foods\non-food_animate_green_bug.jpg	1	1	1	non-food_animate_green_bug	0	K	7	0	118	0		0	0	77.4845814998262	77.5845695999451
15658	0.0999898998998106	10	hunger	stimuli/foods\risotto_with_zucchini.jpg	1	1	1	risotto_with_zucchini	1	W	16	0	260	0		0	0	77.6345798999537	77.7345697998535
15695.5	0.0999654999468476	11	hunger	stimuli/foods\toasted_bread_with_tomatoes.jpg	1	1	1	toasted_bread_with_tomatoes	1	V	15	0	275	0		0	0	77.7845983000007	77.8845637999475
15733	0.099968499969691	12	hunger	stimuli/foods\lamb_chops.jpg	1	1	1	lamb_chops	1	X	17	0	70	0		0	0	77.9345954000019	78.0345638999715
15770.75	0.0997553998604417	13	hunger	stimuli/foods\pepperoni_pizza.jpg	1	1	1	pepperoni_pizza	1	B	0	0	241	0		0	0	78.0848063000012	78.1845616998617
15808	0.0999902000185102	14	hunger	stimuli/non_foods\non-food_animate_grasshopper.jpg	1	1	1	non-food_animate_grasshopper	0	J	6	0	117	0		0	0	78.2345727998763	78.3345629998948
15845.5	0.0999871999956667	15	hunger	stimuli/foods\coconut.jpg	1	1	1	coconut	1	G	4	0	33	0		0	0	78.3845743997954	78.484561599791
15883	0.0999839000869542	16	hunger	stimuli/foods\hazelnuts.jpg	1	1	1	hazelnuts	1	I	21	1	65	0		0	0	78.534570499789	78.6345543998759
15920.5	0.099990899907425	17	hunger	stimuli/non_foods\non-food_inanimate_waterlily.jpg	1	1	1	non-food_inanimate_waterlily	0	D	2	0	226	0		0	0	78.6845668999013	78.7845577998087
15958	0.0999590998981148	18	hunger	stimuli/foods\raw_ham.jpg	1	1	1	raw_ham	1	K	7	0	253	0		0	0	78.8345937998965	78.9345528997947
15995.5	0.0999860998708755	19	hunger	stimuli/foods\oven-roasted_tomatoes.jpg	1	1	1	oven-roasted_tomatoes	1	G	4	0	232	1	a	0.541814200114459	1	78.9845650999341	79.084551199805
16033	0.0999783000443131	20	hunger	stimuli/foods\chestnut.jpg	1	1	1	chestnut	1	S	13	0	24	0		0	0	79.1345670998562	79.2345453999005
16070.5	0.0999859001021832	21	hunger	stimuli/non_foods\non-food_inanimate_fern.jpg	1	1	1	non-food_inanimate_fern	0	G	4	0	180	0		0	0	79.2845625998452	79.3845484999474
16108	0.100004500010982	22	hunger	stimuli/foods\spaghetti_with_meat_sauce.jpg	1	1	1	spaghetti_with_meat_sauce	1	P	11	0	267	0		0	0	79.4345656000078	79.5345701000188
16145.5	0.0999407998751849	23	hunger	stimuli/non_foods\non-food_animate_lion.jpg	1	1	1	non-food_animate_lion	0	X	17	0	125	0		0	0	79.5846039999742	79.6845447998494
16183	0.0999873999971896	24	hunger	stimuli/foods\savory_pie.jpg	1	1	1	savory_pie	1	V	15	0	265	0		0	0	79.7345570998732	79.8345444998704
16220.5	0.0999838002026081	25	hunger	stimuli/non_foods\non-food_animate_cheetah.jpg	1	1	1	non-food_animate_cheetah	0	M	9	0	100	0		0	0	79.8845588997938	79.9845426999964
16258	0.0999662999529392	26	hunger	stimuli/non_foods\non-food_inanimate_nest.jpg	1	1	1	non-food_inanimate_nest	0	V	15	0	196	0		0	0	80.0345653998666	80.1345316998195
16295.5	0.0999922000337392	27	hunger	stimuli/foods\cooked_prawn.jpg	1	1	1	cooked_prawn	1	Z	18	0	36	0		0	0	80.1845489998814	80.2845411999151
16333	0.0999849999789149	28	hunger	stimuli/non_foods\non-food_animate_parrot.jpg	1	1	1	non-food_animate_parrot	0	S	13	0	133	0		0	0	80.3345558999572	80.4345408999361
16370.5	0.0999851999804378	29	hunger	stimuli/non_foods\non-food_animate_pigeon.jpg	1	1	1	non-food_animate_pigeon	0	K	7	0	136	0		0	0	80.4845504998229	80.5845356998034
16408	0.099970200099051	30	hunger	stimuli/non_foods\non-food_inanimate_alarm_clock.jpg	1	1	1	non-food_inanimate_alarm_clock	0	N	10	0	158	0		0	0	80.6345660998486	80.7345362999476
16445.5	0.0999878000002354	31	hunger	stimuli/foods\baked_lamb_with_potatoes.jpg	1	1	1	baked_lamb_with_potatoes	1	Z	18	0	8	0		0	0	80.7845471999608	80.884534999961
16483	0.0999839000869542	32	hunger	stimuli/non_foods\non-food_animate_squirrel.jpg	1	1	1	non-food_animate_squirrel	0	V	15	0	150	0		0	0	80.9345507998951	81.034534699982
16520.5	0.0999831000808626	33	hunger	stimuli/non_foods\non-food_animate_eagle.jpg	1	1	1	non-food_animate_eagle	0	C	1	0	110	0		0	0	81.0845488999039	81.1845319999848
16558	0.0999954000581056	34	hunger	stimuli/non_foods\non-food_animate_woman.jpg	1	1	1	non-food_animate_woman	0	I	21	1	154	0		0	0	81.2345464997925	81.3345418998506
16595.5	0.0999708001036197	35	hunger	stimuli/foods\hotdog.jpg	1	1	1	hotdog	1	M	9	0	67	0		0	0	81.3845662998501	81.4845370999537
16633	0.0999833999667317	36	hunger	stimuli/foods\lemon_meringue_pie.jpg	1	1	1	lemon_meringue_pie	1	S	13	0	73	1	a	0.293284300016239	1	81.5345423999242	81.634525799891
16670.5	0.0999786998145282	37	hunger	stimuli/foods\broccoli.jpg	1	1	1	broccoli	1	J	6	0	13	0		0	0	81.6845468999818	81.7845255997963
16708	0.0999861999880522	38	hunger	stimuli/foods\raisins.jpg	1	1	1	raisins	1	L	8	0	252	0		0	0	81.8345391999464	81.9345253999345
16745.5	0.0999811000656337	39	hunger	stimuli/foods\radish.jpg	1	1	1	radish	1	G	4	0	251	0		0	0	81.9845373998396	82.0845184999052
16783	0.0999880000017583	40	hunger	stimuli/foods\apple.jpg	1	1	1	apple	1	P	11	0	1	0		0	0	82.1345325999428	82.2345205999445
16820.5	0.0999912999104708	41	hunger	stimuli/non_foods\non-food_inanimate_teddy_bear.jpg	1	1	1	non-food_inanimate_teddy_bear	0	N	10	0	218	0		0	0	82.284534699982	82.3845259998925
16858	0.0999755999073386	42	hunger	stimuli/foods\cannoli.jpg	1	1	1	cannoli	1	T	14	0	17	0		0	0	82.4345336998813	82.5345092997886
16895.5	0.0999835000839084	43	hunger	stimuli/non_foods\non-food_inanimate_tree.jpg	1	1	1	non-food_inanimate_tree	0	B	0	0	223	0		0	0	82.5845279998612	82.6845114999451
16933	0.0999916000291705	44	hunger	stimuli/foods\linguine_with_clams.jpg	1	1	1	linguine_with_clams	1	V	15	0	77	0		0	0	82.7345212998334	82.8345128998626
16970.5	0.0999851000960916	45	hunger	stimuli/non_foods\non-food_animate_cow.jpg	1	1	1	non-food_animate_cow	0	T	14	0	103	0		0	0	82.8845265998971	82.9845116999932
17008	0.0999884998891503	46	hunger	stimuli/non_foods\non-food_inanimate_skirt.jpg	1	1	1	non-food_inanimate_skirt	0	N	10	0	209	0		0	0	83.03452440002	83.1345128999092
17045.5	0.0999841999728233	47	hunger	stimuli/foods\fruit_pie.jpg	1	1	1	fruit_pie	1	T	14	0	54	0		0	0	83.1845261999406	83.2845103999134
17083	0.0999837999697775	48	hunger	stimuli/non_foods\non-food_inanimate_cap.jpg	1	1	1	non-food_inanimate_cap	0	S	13	0	171	0		0	0	83.3345239998307	83.4345077998005
17120.5	0.0999853000976145	49	hunger	stimuli/foods\risotto_with_peas_and_asparagus_tips.jpg	1	1	1	risotto_with_peas_and_asparagus_tips	1	X	17	0	259	0		0	0	83.4845232998487	83.5845085999463
17158	0.0999831999652088	50	hunger	stimuli/non_foods\non-food_inanimate_guitar.jpg	1	1	1	non-food_inanimate_guitar	0	W	16	0	185	0		0	0	83.6345217998605	83.7345049998257
17195.5	0.0999743000138551	51	hunger	stimuli/non_foods\non-food_animate_swan.jpg	1	1	1	non-food_animate_swan	0	B	0	0	152	0		0	0	83.7845191999804	83.8844934999943
17233	0.0999658999498934	52	hunger	stimuli/non_foods\non-food_animate_bee.jpg	1	1	1	non-food_animate_bee	0	W	16	0	95	0		0	0	83.9345139998477	84.0344798997976
17270.5	0.0999863999895751	53	hunger	stimuli/non_foods\non-food_animate_raccoon.jpg	1	1	1	non-food_animate_raccoon	0	P	11	0	139	0		0	0	84.084514999995	84.1845013999846
17308	0.0999854002147913	54	hunger	stimuli/non_foods\non-food_animate_snail.jpg	1	1	1	non-food_animate_snail	0	S	13	0	149	0		0	0	84.2345156997908	84.3345011000056
17345.5	0.0999737000092864	55	hunger	stimuli/non_foods\non-food_animate_porcupine.jpg	1	1	1	non-food_animate_porcupine	0	T	14	0	138	0		0	0	84.3845217998605	84.4844954998698
17383	0.0999803999438882	56	hunger	stimuli/foods\swordfish.jpg	1	1	1	swordfish	1	V	15	0	273	0		0	0	84.5345087999012	84.6344891998451
17420.5	0.100006900029257	57	hunger	stimuli/non_foods\non-food_inanimate_rope.jpg	1	1	1	non-food_inanimate_rope	0	X	17	0	204	0		0	0	84.6844916997943	84.7844985998236
17458	0.0999563001096249	58	hunger	stimuli/non_foods\non-food_inanimate_orchid.jpg	1	1	1	non-food_inanimate_orchid	0	S	13	0	198	0		0	0	84.8345082998276	84.9344645999372
17495.5	0.0999882000032812	59	hunger	stimuli/non_foods\non-food_animate_mammoth.jpg	1	1	1	non-food_animate_mammoth	0	V	15	0	128	0		0	0	84.9845001997892	85.0844883997925
17533	0.0999841999728233	60	hunger	stimuli/non_foods\non-food_inanimate_folding_chair.jpg	1	1	1	non-food_inanimate_folding_chair	0	P	11	0	182	0		0	0	85.1345056998543	85.2344898998272
17570.5	0.0999868998769671	61	hunger	stimuli/foods\stew_with_potatoes_and_carrots.jpg	1	1	1	stew_with_potatoes_and_carrots	1	W	16	0	271	0		0	0	85.2845044999849	85.3844913998619
17608	0.0999876998830587	62	hunger	stimuli/foods\spring_onions.jpg	1	1	1	spring_onions	1	T	14	0	269	0		0	0	85.4345029999968	85.5344906998798
17645.5	0.099984000204131	63	hunger	stimuli/non_foods\non-food_animate_gorilla.jpg	1	1	1	non-food_animate_gorilla	0	X	17	0	116	0		0	0	85.5844907998107	85.6844748000149
17683	0.0999987001996487	64	hunger	stimuli/non_foods\non-food_inanimate_leaf.jpg	1	1	1	non-food_inanimate_leaf	0	T	14	0	192	0		0	0	85.7344862997998	85.8344849999994
17720.5	0.0999841000884771	65	hunger	stimuli/non_foods\non-food_animate_killer_whale.jpg	1	1	1	non-food_animate_killer_whale	0	R	12	0	123	0		0	0	85.8844976997934	85.9844817998819
17758	0.0999878000002354	66	hunger	stimuli/non_foods\non-food_inanimate_scissors.jpg	1	1	1	non-food_inanimate_scissors	0	V	15	0	205	0		0	0	86.0344938000198	86.1344816000201
17795.5	0.0999588000122458	67	hunger	stimuli/non_foods\non-food_animate_penguin.jpg	1	1	1	non-food_animate_penguin	0	N	10	0	135	0		0	0	86.1845029999968	86.284461800009
17833	0.0999540002085268	68	hunger	stimuli/non_foods\non-food_inanimate_wrench.jpg	1	1	1	non-food_inanimate_wrench	0	M	9	0	227	0		0	0	86.3345187997911	86.4344727999996
17870.5	0.0999739000108093	69	hunger	stimuli/foods\cooked_ham.jpg	1	1	1	cooked_ham	1	D	2	0	35	0		0	0	86.4844849999063	86.5844588999171
17908	0.100010599941015	70	hunger	stimuli/non_foods\non-food_animate_caterpillar.jpg	1	1	1	non-food_animate_caterpillar	0	W	16	0	99	0		0	0	86.6344637998845	86.7344743998256
17945.5	0.0999744001310319	71	hunger	stimuli/foods\pear.jpg	1	1	1	pear	1	D	2	0	239	0		0	0	86.7844870998524	86.8844614999834
17983	0.0999753000214696	72	hunger	stimuli/foods\potatoes.jpg	1	1	1	potatoes	1	V	15	0	248	0		0	0	86.9344752999023	87.0344505999237
18020.5	0.100005400134251	73	hunger	stimuli/non_foods\non-food_animate_cat.jpg	1	1	1	non-food_animate_cat	0	G	4	0	98	0		0	0	87.0844625998288	87.1844679999631
18058	0.0999894998967648	74	hunger	stimuli/non_foods\non-food_animate_deer.jpg	1	1	1	non-food_animate_deer	0	D	2	0	105	0		0	0	87.2344774999656	87.3344669998623
18095.5	0.0999676999635994	75	hunger	stimuli/foods\lettuce.jpg	1	1	1	lettuce	1	H	5	0	75	0		0	0	87.3844983999152	87.4844660998788
18133	0.0999838998541236	76	hunger	stimuli/non_foods\non-food_animate_Asian_man.jpg	1	1	1	non-food_animate_Asian_man	0	R	12	0	88	0		0	0	87.5344712999649	87.6344551998191
18170.5	0.0999845999758691	77	hunger	stimuli/foods\mortadella.jpg	1	1	1	mortadella	1	G	4	0	83	0		0	0	87.6844705999829	87.7844551999588
18208	0.0999902000185102	78	hunger	stimuli/non_foods\non-food_animate_dolphin.jpg	1	1	1	non-food_animate_dolphin	0	S	13	0	106	0		0	0	87.8344661998563	87.9344563998748
18245.5	0.0999575001187623	79	hunger	stimuli/foods\cinnamon.jpg	1	1	1	cinnamon	1	D	2	0	30	0		0	0	87.9844900998287	88.0844475999475
18283	0.0999769000336528	80	hunger	stimuli/foods\beetroots.jpg	1	1	1	beetroots	1	W	16	0	10	0		0	0	88.1344720998313	88.234448999865
18320.5	0.0999825999606401	81	hunger	stimuli/foods\coffee_beans.jpg	1	1	1	coffee_beans	1	G	4	0	34	0		0	0	88.2844744999893	88.3844570999499
18358	0.0999892000108957	82	hunger	stimuli/non_foods\non-food_animate_slug.jpg	1	1	1	non-food_animate_slug	0	D	2	0	148	0		0	0	88.4344692998566	88.5344584998675
18395.5	0.0999949998222291	83	hunger	stimuli/non_foods\non-food_inanimate_padlock.jpg	1	1	1	non-food_inanimate_padlock	0	B	0	0	199	0		0	0	88.5844680999871	88.6844630998094
18433	0.0999871001113206	84	hunger	stimuli/non_foods\non-food_animate_lizard.jpg	1	1	1	non-food_animate_lizard	0	P	11	0	126	0		0	0	88.7344558998011	88.8344429999124
18470.5	0.0999755000229925	85	hunger	stimuli/non_foods\non-food_animate_millipede.jpg	1	1	1	non-food_animate_millipede	0	L	8	0	129	0		0	0	88.8844561998267	88.9844316998497
18508	0.100008700042963	86	hunger	stimuli/foods\honey.jpg	1	1	1	honey	1	X	17	0	66	0		0	0	89.03443959984	89.1344482998829
18545.5	0.0999749999027699	87	hunger	stimuli/non_foods\non-food_animate_monkey.jpg	1	1	1	non-food_animate_monkey	0	G	4	0	130	0		0	0	89.184471399989	89.2844463998917
18583	0.0999851000960916	88	hunger	stimuli/foods\pancakes.jpg	1	1	1	pancakes	1	H	5	0	234	1	a	0	0	89.3344609998167	89.4344460999127
18620.5	0.0999889001250267	89	hunger	stimuli/non_foods\non-food_inanimate_hay.jpg	1	1	1	non-food_inanimate_hay	0	X	17	0	187	0		0	0	89.484459299827	89.584448199952
18658	0.0999841000884771	90	hunger	stimuli/foods\apricot.jpg	1	1	1	apricot	1	N	10	0	2	0		0	0	89.6344480998814	89.7344321999699
18695.5	0.0999838998541236	91	hunger	stimuli/non_foods\non-food_inanimate_bicycle.jpg	1	1	1	non-food_inanimate_bicycle	0	W	16	0	161	0		0	0	89.7844569999725	89.8844408998266
18733	0.0999849000945687	92	hunger	stimuli/foods\potato_and_green_bean_salad.jpg	1	1	1	potato_and_green_bean_salad	1	B	0	0	246	0		0	0	89.9344527998473	90.0344376999419
18770.5	0.0999803000595421	93	hunger	stimuli/non_foods\non-food_animate_ladybug.jpg	1	1	1	non-food_animate_ladybug	0	F	3	0	124	0		0	0	90.0844508998562	90.1844311999157
18808	0.0999829999636859	94	hunger	stimuli/foods\fries.jpg	1	1	1	fries	1	T	14	0	52	0		0	0	90.2344500999898	90.3344330999535
18845.5	0.0999855999834836	95	hunger	stimuli/non_foods\non-food_animate_llama.jpg	1	1	1	non-food_animate_llama	0	F	3	0	127	0		0	0	90.3844404998235	90.484426099807
18883	0.100002399878576	96	hunger	stimuli/non_foods\non-food_animate_ram.jpg	1	1	1	non-food_animate_ram	0	B	0	0	140	0		0	0	90.5344318000134	90.634434199892
18920.5	0.0999845999758691	97	hunger	stimuli/foods\brownie.jpg	1	1	1	brownie	1	C	1	0	14	0		0	0	90.6844468999188	90.7844314998947
18958	0.100004300009459	98	hunger	stimuli/foods\smoked_ham.jpg	1	1	1	smoked_ham	1	S	13	0	266	0		0	0	90.8344448998105	90.9344491998199
18995.5	0.0999844002071768	99	hunger	stimuli/non_foods\non-food_animate_frog.jpg	1	1	1	non-food_animate_frog	0	K	7	0	113	0		0	0	90.9844413998071	91.0844258000143
19033	0.0999831000808626	100	hunger	stimuli/non_foods\non-food_inanimate_nailpolish.jpg	1	1	1	non-food_inanimate_nailpolish	0	N	10	0	195	0		0	0	91.1344418998342	91.2344249999151
19070.5	0.0999673001933843	101	hunger	stimuli/non_foods\non-food_inanimate_moss.jpg	1	1	1	non-food_inanimate_moss	0	Z	18	0	194	0		0	0	91.2844490997959	91.3844163999893
19108	0.0999871001113206	102	hunger	stimuli/foods\fruit_flan.jpg	1	1	1	fruit_flan	1	L	8	0	53	0		0	0	91.4344320998061	91.5344191999175
19145.5	0.100024900166318	103	hunger	stimuli/foods\minestrone_soup.jpg	1	1	1	minestrone_soup	1	V	15	0	82	0		0	0	91.5844297998119	91.6844546999782
19183	0.0999743998982012	104	hunger	stimuli/non_foods\non-food_inanimate_bush.jpg	1	1	1	non-food_inanimate_bush	0	D	2	0	167	0		0	0	91.7344372998923	91.8344116997905
19220.5	0.100018799770623	105	hunger	stimuli/non_foods\non-food_animate_iguana.jpg	1	1	1	non-food_animate_iguana	0	T	14	0	121	0		0	0	91.8844049000181	91.9844236997887
19258	0.0999964000657201	106	hunger	stimuli/foods\omelette.jpg	1	1	1	omelette	1	X	17	0	228	0		0	0	92.0344207999296	92.1344171999954
19295.5	0.0999838002026081	107	hunger	stimuli/non_foods\non-food_inanimate_toy_airplane.jpg	1	1	1	non-food_inanimate_toy_airplane	0	V	15	0	222	0		0	0	92.1844314998016	92.2844153000042
19333	0.0999743000138551	108	hunger	stimuli/non_foods\non-food_animate_hummingbird.jpg	1	1	1	non-food_animate_hummingbird	0	X	17	0	120	0		0	0	92.3344287998043	92.4344030998182
19370.5	0.0999663998372853	109	hunger	stimuli/foods\raw_sausage.jpg	1	1	1	raw_sausage	1	J	6	0	254	0		0	0	92.4844384000171	92.5844047998544
19408	0.0999811999499798	110	hunger	stimuli/non_foods\non-food_inanimate_broom.jpg	1	1	1	non-food_inanimate_broom	0	K	7	0	164	0		0	0	92.6344220999163	92.7344032998662
19445.5	0.0999852998647839	111	hunger	stimuli/non_foods\non-food_animate_duck.jpg	1	1	1	non-food_animate_duck	0	J	6	0	109	0		0	0	92.7844165000133	92.8844017998781
19483	0.0999877001158893	112	hunger	stimuli/non_foods\non-food_inanimate_canoe.jpg	1	1	1	non-food_inanimate_canoe	0	R	12	0	170	0		0	0	92.9344118998852	93.0343996000011
19520.5	0.0999720001127571	113	hunger	stimuli/foods\peach.jpg	1	1	1	peach	1	S	13	0	238	1	a	0	0	93.0844101998955	93.1843822000083
19558	0.09999810019508	114	hunger	stimuli/foods\donut.jpg	1	1	1	donut	1	W	16	0	44	0		0	0	93.2344105998054	93.3344087000005
19595.5	0.0999680999666452	115	hunger	stimuli/non_foods\non-food_animate_giraffe.jpg	1	1	1	non-food_animate_giraffe	0	Z	18	0	115	0		0	0	93.3844353999011	93.4844034998678
19633	0.0999849999789149	116	hunger	stimuli/foods\pineapple.jpg	1	1	1	pineapple	1	B	0	0	243	0		0	0	93.5344149000011	93.6343998999801
19670.5	0.0999828001949936	117	hunger	stimuli/foods\pasta_carbonara.jpg	1	1	1	pasta_carbonara	1	H	5	0	236	0		0	0	93.6844185998198	93.7844014000148
19708	0.0999861001037061	118	hunger	stimuli/foods\lemon.jpg	1	1	1	lemon	1	F	3	0	72	0		0	0	93.8344117999077	93.9343979000114
19745.5	0.0999839999713004	119	hunger	stimuli/foods\mushroom.jpg	1	1	1	mushroom	1	D	2	0	85	0		0	0	93.9844136999454	94.0843976999167
19783	0.0999735000077635	120	hunger	stimuli/foods\red_cabbage.jpg	1	1	1	red_cabbage	1	C	1	0	256	0		0	0	94.134409799939	94.2343832999468
19820.5	0.0999743998982012	121	hunger	stimuli/foods\cream_donuts.jpg	1	1	1	cream_donuts	1	Z	18	0	39	0		0	0	94.2844080999494	94.3843824998476
19858	0.099992899922654	122	hunger	stimuli/non_foods\non-food_animate_dragonfly.jpg	1	1	1	non-food_animate_dragonfly	0	L	8	0	108	0		0	0	94.4344115999993	94.5344044999219
19895.5	0.0999894998967648	123	hunger	stimuli/foods\dates.jpg	1	1	1	dates	1	C	1	0	43	0		0	0	94.5843994999304	94.6843889998272
19933	0.0999884000048041	124	hunger	stimuli/non_foods\non-food_animate_elephant.jpg	1	1	1	non-food_animate_elephant	0	P	11	0	111	0		0	0	94.7344021999743	94.8343905999791
19970.5	0.0999926999211311	125	hunger	stimuli/foods\green_beans.jpg	1	1	1	green_beans	1	H	5	0	61	0		0	0	94.8844011998735	94.9843938997947
20008	0.100011199945584	126	hunger	stimuli/non_foods\non-food_inanimate_stoplight.jpg	1	1	1	non-food_inanimate_stoplight	0	M	9	0	214	0		0	0	95.03437629994	95.1343874998856
20045.5	0.099988300120458	127	hunger	stimuli/non_foods\non-food_animate_camel.jpg	1	1	1	non-food_animate_camel	0	V	15	0	97	0		0	0	95.1843981998973	95.2843865000177
20083	0.0999819999560714	128	hunger	stimuli/foods\avocado.jpg	1	1	1	avocado	1	L	8	0	5	0		0	0	95.3344033998437	95.4343853997998
20120.5	0.0999871999956667	129	hunger	stimuli/foods\fennel.jpg	1	1	1	fennel	1	K	7	0	47	0		0	0	95.4843949999195	95.5843821999151
20158	0.0999892998952419	130	hunger	stimuli/non_foods\non-food_inanimate_socks.jpg	1	1	1	non-food_inanimate_socks	0	F	3	0	211	0		0	0	95.6343956999481	95.7343849998433
20195.5	0.099986599991098	131	hunger	stimuli/foods\almonds.jpg	1	1	1	almonds	1	T	14	0	0	0		0	0	95.784391899826	95.8843784998171
20233	0.0999888000078499	132	hunger	stimuli/foods\cereal.jpg	1	1	1	cereal	1	P	11	0	22	0		0	0	95.9343917998485	96.0343805998564
20270.5	0.0999853999819607	133	hunger	stimuli/non_foods\non-food_animate_seahorse.jpg	1	1	1	non-food_animate_seahorse	0	X	17	0	145	0		0	0	96.0843913999852	96.1843767999671
20308	0.099982799962163	134	hunger	stimuli/non_foods\non-food_inanimate_soccer_ball.jpg	1	1	1	non-food_inanimate_soccer_ball	0	Z	18	0	210	0		0	0	96.2343907000031	96.3343734999653
20345.5	0.0999878998845816	135	hunger	stimuli/foods\roasted_chicken.jpg	1	1	1	roasted_chicken	1	M	9	0	261	0		0	0	96.3843894000165	96.4843772999011
20383	0.099984799977392	136	hunger	stimuli/foods\artichoke.jpg	1	1	1	artichoke	1	B	0	0	3	0		0	0	96.5343869000208	96.6343716999982
20420.5	0.0999692000914365	137	hunger	stimuli/non_foods\non-food_animate_Causasian_man.jpg	1	1	1	non-food_animate_Causasian_man	0	W	16	0	89	0		0	0	96.6843828998972	96.7843520999886
20458	0.0999871999956667	138	hunger	stimuli/non_foods\non-food_animate_ant.jpg	1	1	1	non-food_animate_ant	0	R	12	0	91	0		0	0	96.8343846998177	96.9343718998134
20495.5	0.0999817999545485	139	hunger	stimuli/non_foods\non-food_animate_dachshund.jpg	1	1	1	non-food_animate_dachshund	0	T	14	0	104	0		0	0	96.9843837998342	97.0843655997887
22737.25	0.0999767000321299	140	hunger	stimuli/non_foods\non-food_inanimate_short_sleeved_shirt.jpg	1	2	1	non-food_inanimate_short_sleeved_shirt	0	C	1	0	207	0		0	0	105.950962599833	106.050939299865
22774.75	0.0999811999499798	141	hunger	stimuli/non_foods\non-food_inanimate_jeans.jpg	1	2	1	non-food_inanimate_jeans	0	M	9	0	191	0		0	0	106.100967400009	106.200948599959
22812.25	0.0999576998874545	142	hunger	stimuli/foods\pickles.jpg	1	2	1	pickles	1	B	0	0	242	0		0	0	106.250978199998	106.350935899885
22849.75	0.0999825000762939	143	hunger	stimuli/foods\egg.jpg	1	2	1	egg	1	T	14	0	45	0		0	0	106.400948799914	106.50093129999
22887.25	0.0999839999713004	144	hunger	stimuli/non_foods\non-food_animate_runner.jpg	1	2	1	non-food_animate_runner	0	W	16	0	142	0		0	0	106.550944000017	106.650927999988
22924.75	0.0999863999895751	145	hunger	stimuli/foods\spinach.jpg	1	2	1	spinach	1	M	9	0	268	0		0	0	106.700945899822	106.800932299811
22962.25	0.0999841999728233	146	hunger	stimuli/foods\ice_cream.jpg	1	2	1	ice_cream	1	K	7	0	68	0		0	0	106.850937899901	106.950922099873
22999.75	0.0999839000869542	147	hunger	stimuli/non_foods\non-food_inanimate_gloves.jpg	1	2	1	non-food_inanimate_gloves	0	N	10	0	183	0		0	0	107.000938099809	107.100921999896
23037.25	0.0999859999865294	148	hunger	stimuli/non_foods\non-food_inanimate_hammer.jpg	1	2	1	non-food_inanimate_hammer	0	B	0	0	186	0		0	0	107.150943299988	107.250929299975
23074.75	0.0999636000487953	149	hunger	stimuli/foods\pumpkin.jpg	1	2	1	pumpkin	1	C	1	0	250	0		0	0	107.300955399871	107.40091899992
23112.25	0.0999902000185102	150	hunger	stimuli/non_foods\non-food_inanimate_tulip.jpg	1	2	1	non-food_inanimate_tulip	0	J	6	0	224	0		0	0	107.450935799861	107.55092599988
23149.75	0.0999813000671566	151	hunger	stimuli/foods\grapes.jpg	1	2	1	grapes	1	Z	18	0	60	0		0	0	107.600929499837	107.700910799904
23187.25	0.0999783999286592	152	hunger	stimuli/foods\salmon.jpg	1	2	1	salmon	1	R	12	0	264	0		0	0	107.750926499953	107.850904899882
23224.75	0.099982300074771	153	hunger	stimuli/non_foods\non-food_inanimate_ring.jpg	1	2	1	non-food_inanimate_ring	0	D	2	0	203	0		0	0	107.900935899932	108.000918200007
23262.25	0.0999682999681681	154	hunger	stimuli/foods\chocolate_chip_cookies.jpg	1	2	1	chocolate_chip_cookies	1	Z	18	0	27	0		0	0	108.050949299941	108.150917599909
23299.75	0.0999833000823855	155	hunger	stimuli/foods\kiwi.jpg	1	2	1	kiwi	1	F	3	0	69	0		0	0	108.200929999817	108.3009132999
23337.25	0.0999845000915229	156	hunger	stimuli/foods\lollies.jpg	1	2	1	lollies	1	X	17	0	78	0		0	0	108.350929099834	108.450913599925
23374.75	0.0999900999013335	157	hunger	stimuli/non_foods\non-food_inanimate_tent.jpg	1	2	1	non-food_inanimate_tent	0	L	8	0	219	0		0	0	108.500924899941	108.600914999843
23412.25	0.099986599991098	158	hunger	stimuli/foods\rice_cake.jpg	1	2	1	rice_cake	1	N	10	0	258	0		0	0	108.650924299844	108.750910899835
23449.75	0.0999911001417786	159	hunger	stimuli/non_foods\non-food_animate_yellow_bug.jpg	1	2	1	non-food_animate_yellow_bug	0	H	5	0	155	0		0	0	108.800930699799	108.900921799941
23487.25	0.100038400152698	160	hunger	stimuli/non_foods\non-food_animate_baby_crawling.jpg	1	2	1	non-food_animate_baby_crawling	0	Z	18	0	92	0		0	0	108.950897999806	109.050936399959
23524.75	0.0999815000686795	161	hunger	stimuli/foods\clams.jpg	1	2	1	clams	1	C	1	0	32	0		0	0	109.100926599931	109.2009081
23562.25	0.0999884000048041	162	hunger	stimuli/non_foods\non-food_inanimate_bowling_ball.jpg	1	2	1	non-food_inanimate_bowling_ball	0	B	0	0	162	0		0	0	109.250917499885	109.35090589989
23599.75	0.0999867001082748	163	hunger	stimuli/foods\oyster.jpg	1	2	1	oyster	1	N	10	0	233	0		0	0	109.4009163999	109.500903100008
23637.25	0.0999890000093728	164	hunger	stimuli/foods\grilled_chicken_breast.jpg	1	2	1	grilled_chicken_breast	1	K	7	0	63	0		0	0	109.550914799795	109.650903799804
23674.75	0.0999898000154644	165	hunger	stimuli/foods\chocolate_pudding.jpg	1	2	1	chocolate_pudding	1	O	22	1	29	0		0	0	109.700941799907	109.800931599922
23712.25	0.0999855000991374	166	hunger	stimuli/non_foods\non-food_animate_clown.jpg	1	2	1	non-food_animate_clown	0	M	9	0	102	0		0	0	109.850910599809	109.950896099908
23749.75	0.0999842998571694	167	hunger	stimuli/non_foods\non-food_inanimate_nettle.jpg	1	2	1	non-food_inanimate_nettle	0	B	0	0	197	0		0	0	110.000912199961	110.100896499818
23787.25	0.0999884000048041	168	hunger	stimuli/non_foods\non-food_inanimate_grass.jpg	1	2	1	non-food_inanimate_grass	0	H	5	0	184	1	a	0.541788399918005	1	110.150908099953	110.250896499958
23824.75	0.0999819999560714	169	hunger	stimuli/foods\nectarine.jpg	1	2	1	nectarine	1	P	11	0	87	0		0	0	110.300908899866	110.400890899822
23862.25	0.0999795000534505	170	hunger	stimuli/foods\chocolate_pralines.jpg	1	2	1	chocolate_pralines	1	H	5	0	28	0		0	0	110.450907599879	110.550887099933
23899.75	0.0999841000884771	171	hunger	stimuli/foods\taco.jpg	1	2	1	taco	1	R	12	0	274	0		0	0	110.600906099891	110.70089019998
23937.25	0.0999912000261247	172	hunger	stimuli/foods\pea_pod.jpg	1	2	1	pea_pod	1	K	7	0	237	0		0	0	110.750898899976	110.850890100002
23974.75	0.0999887001235038	173	hunger	stimuli/foods\fried_calamari.jpg	1	2	1	fried_calamari	1	W	16	0	50	0		0	0	110.900900299894	111.000889000017
24012.25	0.0999849999789149	174	hunger	stimuli/non_foods\non-food_inanimate_chair.jpg	1	2	1	non-food_inanimate_chair	0	L	8	0	172	0		0	0	111.050901399925	111.150886399904
24049.75	0.0999911001417786	175	hunger	stimuli/non_foods\non-food_inanimate_button.jpg	1	2	1	non-food_inanimate_button	0	S	13	0	168	0		0	0	111.200896599796	111.300887699937
24087.25	0.0999783999286592	176	hunger	stimuli/foods\capsicum.jpg	1	2	1	capsicum	1	N	10	0	18	0		0	0	111.350898199948	111.450876599876
24124.75	0.0999760001432151	177	hunger	stimuli/non_foods\non-food_inanimate_construction_helment.jpg	1	2	1	non-food_inanimate_construction_helment	0	P	11	0	175	0		0	0	111.500905299792	111.600881299935
24162.25	0.0999878998845816	178	hunger	stimuli/foods\cauliflower.jpg	1	2	1	cauliflower	1	S	13	0	20	0		0	0	111.650891199941	111.750879099825
24199.75	0.0999851999804378	179	hunger	stimuli/non_foods\non-food_inanimate_pine_cone.jpg	1	2	1	non-food_inanimate_pine_cone	0	X	17	0	200	0		0	0	111.800893599866	111.900878799846
24237.25	0.0999888998921961	180	hunger	stimuli/foods\brie.jpg	1	2	1	brie	1	B	0	0	12	0		0	0	111.950890399981	112.050879299873
24274.75	0.1000102001708	181	hunger	stimuli/foods\banana.jpg	1	2	1	banana	1	T	14	0	9	0		0	0	112.100867099827	112.200877299998
24312.25	0.0999844998586923	182	hunger	stimuli/non_foods\non-food_inanimate_chandelier.jpg	1	2	1	non-food_inanimate_chandelier	0	G	4	0	173	0		0	0	112.250889200019	112.350873699877
24349.75	0.0999866998754442	183	hunger	stimuli/foods\cupcake.jpg	1	2	1	cupcake	1	K	7	0	42	0		0	0	112.400883099996	112.500869799871
24387.25	0.0999854002147913	184	hunger	stimuli/foods\cherry.jpg	1	2	1	cherry	1	R	12	0	23	0		0	0	112.550884599797	112.650870000012
24424.75	0.0999817000702024	185	hunger	stimuli/foods\fried_zucchini.jpg	1	2	1	fried_zucchini	1	P	11	0	51	0		0	0	112.700884899823	112.800866599893
24462.25	0.0999871999956667	186	hunger	stimuli/foods\green_olives.jpg	1	2	1	green_olives	1	T	14	0	62	0		0	0	112.850878699915	112.950865899911
24499.75	0.099992300150916	187	hunger	stimuli/non_foods\non-food_animate_donkey.jpg	1	2	1	non-food_animate_donkey	0	M	9	0	107	0		0	0	113.000877299812	113.100869599963
24537.25	0.100010199937969	188	hunger	stimuli/foods\lentils.jpg	1	2	1	lentils	1	V	15	0	74	0		0	0	113.150878499961	113.250888699898
24574.75	0.0999420001171529	189	hunger	stimuli/non_foods\non-food_inanimate_rack.jpg	1	2	1	non-food_inanimate_rack	0	K	7	0	202	0		0	0	113.300924799871	113.400866799988
24612.25	0.0999857999850065	190	hunger	stimuli/non_foods\non-food_animate_horse.jpg	1	2	1	non-food_animate_horse	0	H	5	0	119	0		0	0	113.450872799847	113.550858599832
24649.75	0.0999817999545485	191	hunger	stimuli/non_foods\non-food_animate_baby_sitting.jpg	1	2	1	non-food_animate_baby_sitting	0	K	7	0	93	0		0	0	113.600876000011	113.700857799966
24687.25	0.0999863999895751	192	hunger	stimuli/non_foods\non-food_inanimate_speakers.jpg	1	2	1	non-food_inanimate_speakers	0	X	17	0	212	0		0	0	113.750874599908	113.850860999897
24724.75	0.0999907001387328	193	hunger	stimuli/foods\asparagus.jpg	1	2	1	asparagus	1	N	10	0	4	0		0	0	113.900866499869	114.000857200008
24762.25	0.0999887997750193	194	hunger	stimuli/non_foods\non-food_inanimate_headphones.jpg	1	2	1	non-food_inanimate_headphones	0	F	3	0	188	0		0	0	114.050867300015	114.15085609979
24799.75	0.0999838002026081	195	hunger	stimuli/non_foods\non-food_inanimate_skateboard.jpg	1	2	1	non-food_inanimate_skateboard	0	H	5	0	208	0		0	0	114.200865999795	114.300849799998
24837.25	0.0999638999346644	196	hunger	stimuli/foods\lime.jpg	1	2	1	lime	1	V	15	0	76	0		0	0	114.350886399858	114.450850299792
24874.75	0.0999813999515027	197	hunger	stimuli/non_foods\non-food_inanimate_shell.jpg	1	2	1	non-food_inanimate_shell	0	L	8	0	206	0		0	0	114.500868699979	114.600850099931
24912.25	0.0999848998617381	198	hunger	stimuli/foods\cucumber.jpg	1	2	1	cucumber	1	V	15	0	41	0		0	0	114.650861399947	114.750846299808
24949.75	0.0999852998647839	199	hunger	stimuli/foods\meatballs.jpg	1	2	1	meatballs	1	O	22	1	81	0		0	0	114.800858899951	114.900844199816
24987.25	0.0999763999134302	200	hunger	stimuli/foods\gnocchi.jpg	1	2	1	gnocchi	1	F	3	0	58	0		0	0	114.950862499885	115.050838899799
25024.75	0.0999635998159647	201	hunger	stimuli/non_foods\non-food_animate_rhino.jpg	1	2	1	non-food_animate_rhino	0	B	0	0	141	1	a	0.391837599920109	1	115.100873999996	115.200837599812
25062.25	0.0999855999834836	202	hunger	stimuli/foods\celery.jpg	1	2	1	celery	1	X	17	0	21	0		0	0	115.250848799944	115.350834399927
25099.75	0.0999803999438882	203	hunger	stimuli/foods\mussels.jpg	1	2	1	mussels	1	K	7	0	86	0		0	0	115.400849199854	115.500829599798
25137.25	0.0999831000808626	204	hunger	stimuli/foods\potato_chips.jpg	1	2	1	potato_chips	1	X	17	0	247	0		0	0	115.550854599802	115.650837699883
25174.75	0.0999871999956667	205	hunger	stimuli/non_foods\non-food_inanimate_clover.jpg	1	2	1	non-food_inanimate_clover	0	W	16	0	174	0		0	0	115.700843599858	115.800830799853
25212.25	0.0999922999180853	206	hunger	stimuli/non_foods\non-food_animate_student_female.jpg	1	2	1	non-food_animate_student_female	0	M	9	0	151	0		0	0	115.85083599994	115.950828299858
25249.75	0.0999766001477838	207	hunger	stimuli/non_foods\non-food_animate_fox.jpg	1	2	1	non-food_animate_fox	0	V	15	0	112	0		0	0	116.000839199871	116.100815800019
25287.25	0.0999713998753577	208	hunger	stimuli/foods\onion.jpg	1	2	1	onion	1	R	12	0	229	0		0	0	116.150848899968	116.250820299843
25324.75	0.0999853000976145	209	hunger	stimuli/non_foods\non-food_inanimate_protractor.jpg	1	2	1	non-food_inanimate_protractor	0	F	3	0	201	0		0	0	116.300845099846	116.400830399944
25362.25	0.0999829000793397	210	hunger	stimuli/foods\chilli.jpg	1	2	1	chilli	1	L	8	0	25	0		0	0	116.450845999876	116.550828899955
25399.75	0.099985099863261	211	hunger	stimuli/foods\carrot.jpg	1	2	1	carrot	1	H	5	0	19	0		0	0	116.60083999997	116.700825099833
25437.25	0.100002399878576	212	hunger	stimuli/non_foods\non-food_inanimate_briefcase.jpg	1	2	1	non-food_inanimate_briefcase	0	R	12	0	163	0		0	0	116.750841100002	116.85084349988
25474.75	0.099965900182724	213	hunger	stimuli/foods\waffle.jpg	1	2	1	waffle	1	M	9	0	278	0		0	0	116.900858299807	117.000824199989
25512.25	0.0999859001021832	214	hunger	stimuli/non_foods\non-food_inanimate_buds.jpg	1	2	1	non-food_inanimate_buds	0	R	12	0	166	0		0	0	117.050837799907	117.150823700009
25549.75	0.0999877001158893	215	hunger	stimuli/non_foods\non-food_inanimate_suitcase.jpg	1	2	1	non-food_inanimate_suitcase	0	G	4	0	215	0		0	0	117.200835199794	117.30082289991
25587.25	0.0999777999240905	216	hunger	stimuli/non_foods\non-food_animate_young_boy.jpg	1	2	1	non-food_animate_young_boy	0	E	20	1	156	0		0	0	117.350834599929	117.450812399853
25624.75	0.0999871001113206	217	hunger	stimuli/foods\watermelon.jpg	1	2	1	watermelon	1	S	13	0	279	0		0	0	117.500832599821	117.600819699932
25662.25	0.0999896000139415	218	hunger	stimuli/non_foods\non-food_animate_sea_lion.jpg	1	2	1	non-food_animate_sea_lion	0	H	5	0	143	1	a	0.400192899862304	1	117.650833099848	117.750822699862
25699.75	0.0999809000641108	219	hunger	stimuli/non_foods\non-food_inanimate_bamboo.jpg	1	2	1	non-food_inanimate_bamboo	0	D	2	0	159	0		0	0	117.800831399858	117.900812299922
25737.25	0.0999809999484569	220	hunger	stimuli/non_foods\non-food_animate_tortoise.jpg	1	2	1	non-food_animate_tortoise	0	C	1	0	153	0		0	0	117.950833800016	118.050814799964
25774.75	0.100002899998799	221	hunger	stimuli/foods\ginger_root.jpg	1	2	1	ginger_root	1	M	9	0	57	0		0	0	118.100808799965	118.200811699964
25812.25	0.0999839999713004	222	hunger	stimuli/non_foods\non-food_inanimate_table.jpg	1	2	1	non-food_inanimate_table	0	G	4	0	217	0		0	0	118.250826800009	118.350810799981
25849.75	0.099983099848032	223	hunger	stimuli/foods\salami.jpg	1	2	1	salami	1	F	3	0	263	0		0	0	118.400824900018	118.500807999866
25887.25	0.100005500018597	224	hunger	stimuli/non_foods\non-food_animate_owl.jpg	1	2	1	non-food_animate_owl	0	S	13	0	132	0		0	0	118.550826999824	118.650832499843
25924.75	0.099948100047186	225	hunger	stimuli/non_foods\non-food_animate_chicken.jpg	1	2	1	non-food_animate_chicken	0	D	2	0	101	0		0	0	118.700856799958	118.800804900005
25962.25	0.0999853999819607	226	hunger	stimuli/non_foods\non-food_animate_alligator.jpg	1	2	1	non-food_animate_alligator	0	K	7	0	90	0		0	0	118.850819399813	118.950804799795
25999.75	0.099984799977392	227	hunger	stimuli/non_foods\non-food_inanimate_cactus_pot_plant.jpg	1	2	1	non-food_inanimate_cactus_pot_plant	0	B	0	0	169	0		0	0	119.000816099811	119.100800899789
26037.25	0.0999833999667317	228	hunger	stimuli/non_foods\non-food_animate_butterfly.jpg	1	2	1	non-food_animate_butterfly	0	T	14	0	96	0		0	0	119.150819599861	119.250802999828
26074.75	0.0999761000275612	229	hunger	stimuli/foods\baked_cod_with_carrots_and_green_beans.jpg	1	2	1	baked_cod_with_carrots_and_green_beans	1	G	4	0	7	0		0	0	119.300813799957	119.400789899984
26112.25	0.0999831000808626	230	hunger	stimuli/foods\rice.jpg	1	2	1	rice	1	C	1	0	257	0		0	0	119.450806399807	119.550789499888
26149.75	0.0999968000687659	231	hunger	stimuli/foods\corncob.jpg	1	2	1	corncob	1	T	14	0	37	0		0	0	119.600803499809	119.700800299877
26187.25	0.100004999898374	232	hunger	stimuli/foods\oregano.jpg	1	2	1	oregano	1	D	2	0	231	0		0	0	119.750787799945	119.850792799843
26224.75	0.0999912000261247	233	hunger	stimuli/non_foods\non-food_inanimate_fire_extinguisher.jpg	1	2	1	non-food_inanimate_fire_extinguisher	0	G	4	0	181	0		0	0	119.900805299869	120.000796499895
26262.25	0.0999819000717252	234	hunger	stimuli/foods\fruit_salad.jpg	1	2	1	fruit_salad	1	A	19	1	55	0		0	0	120.050809799926	120.150791699998
26299.75	0.0999924000352621	235	hunger	stimuli/non_foods\non-food_animate_bat.jpg	1	2	1	non-food_animate_bat	0	P	11	0	94	0		0	0	120.200806199806	120.300798599841
26337.25	0.0999586000107229	236	hunger	stimuli/foods\grapefruits.jpg	1	2	1	grapefruits	1	K	7	0	59	1	a	0.391845399979502	1	120.350820999825	120.450779599836
26374.75	0.100005699787289	237	hunger	stimuli/foods\prawn.jpg	1	2	1	prawn	1	X	17	0	249	0		0	0	120.500780100003	120.60078579979
26412.25	0.0999862998723984	238	hunger	stimuli/foods\wafer.jpg	1	2	1	wafer	1	F	3	0	277	0		0	0	120.650800399948	120.75078669982
26449.75	0.0999764001462609	239	hunger	stimuli/non_foods\non-food_inanimate_couch.jpg	1	2	1	non-food_inanimate_couch	0	V	15	0	176	0		0	0	120.800801799865	120.900778200012
26487.25	0.0999867999926209	240	hunger	stimuli/foods\frankfurter_and_provolone_salad.jpg	1	2	1	frankfurter_and_provolone_salad	1	S	13	0	49	0		0	0	120.950797099853	121.050783899846
26524.75	0.09998709987849	241	hunger	stimuli/foods\blackberry.jpg	1	2	1	blackberry	1	C	1	0	11	0		0	0	121.100794899976	121.200781999854
26562.25	0.0999837999697775	242	hunger	stimuli/foods\bagel.jpg	1	2	1	bagel	1	K	7	0	6	0		0	0	121.250792899868	121.350776699837
26599.75	0.100006100023165	243	hunger	stimuli/foods\peas.jpg	1	2	1	peas	1	H	5	0	240	0		0	0	121.400789999869	121.500796099892
26637.25	0.0999864998739213	244	hunger	stimuli/non_foods\non-food_animate_peacock.jpg	1	2	1	non-food_animate_peacock	0	T	14	0	134	0		0	0	121.550790800015	121.650777299888
26674.75	0.0999849000945687	245	hunger	stimuli/non_foods\non-food_animate_skunk.jpg	1	2	1	non-food_animate_skunk	0	X	17	0	147	0		0	0	121.700788999908	121.800773900002
26712.25	0.0999941001646221	246	hunger	stimuli/foods\croissant.jpg	1	2	1	croissant	1	N	10	0	40	0		0	0	121.850778699853	121.950772800017
26749.75	0.0999922000337392	247	hunger	stimuli/foods\rockmelon.jpg	1	2	1	rockmelon	1	D	2	0	262	0		0	0	122.000787899829	122.100780099863
26787.25	0.0999841000884771	248	hunger	stimuli/non_foods\non-food_inanimate_highlighter.jpg	1	2	1	non-food_inanimate_highlighter	0	M	9	0	189	0		0	0	122.150788599858	122.250772699947
26824.75	0.0999892998952419	249	hunger	stimuli/non_foods\non-food_inanimate_towel.jpg	1	2	1	non-food_inanimate_towel	0	J	6	0	221	0		0	0	122.300772699993	122.400761999888
26862.25	0.0999531000852585	250	hunger	stimuli/non_foods\non-food_animate_mouse.jpg	1	2	1	non-food_animate_mouse	0	H	5	0	131	0		0	0	122.450785599882	122.550738699967
26899.75	0.0999809999484569	251	hunger	stimuli/non_foods\non-food_animate_polar_bear.jpg	1	2	1	non-food_animate_polar_bear	0	S	13	0	137	0		0	0	122.600781899877	122.700762899825
26937.25	0.0999884998891503	252	hunger	stimuli/foods\papaya.jpg	1	2	1	papaya	1	M	9	0	235	0		0	0	122.750782599906	122.850771099795
26974.75	0.0999857001006603	253	hunger	stimuli/non_foods\non-food_inanimate_desk.jpg	1	2	1	non-food_inanimate_desk	0	K	7	0	178	0		0	0	122.900776899885	123.000762599986
27012.25	0.0999882000032812	254	hunger	stimuli/non_foods\non-food_animate_young_girl.jpg	1	2	1	non-food_animate_young_girl	0	S	13	0	157	0		0	0	123.050773999887	123.15076219989
27049.75	0.0999954000581056	255	hunger	stimuli/foods\mango.jpg	1	2	1	mango	1	X	17	0	80	0		0	0	123.200773799792	123.30076919985
27087.25	0.0999839000869542	256	hunger	stimuli/foods\lasagna.jpg	1	2	1	lasagna	1	R	12	0	71	0		0	0	123.350770699792	123.450754599879
27124.75	0.0999894000124186	257	hunger	stimuli/foods\mandarin.jpg	1	2	1	mandarin	1	N	10	0	79	0		0	0	123.50077399984	123.600763399852
27162.25	0.0999511000700295	258	hunger	stimuli/non_foods\non-food_inanimate_stapler.jpg	1	2	1	non-food_inanimate_stapler	0	P	11	0	213	0		0	0	123.65077489987	123.75072599994
27199.75	0.0999888998921961	259	hunger	stimuli/foods\pomegranate.jpg	1	2	1	pomegranate	1	N	10	0	244	0		0	0	123.800764299929	123.900753199821
27237.25	0.099974799901247	260	hunger	stimuli/foods\museli_bars.jpg	1	2	1	museli_bars	1	W	16	0	84	0		0	0	123.950776899932	124.050751699833
27274.75	0.0999848998617381	261	hunger	stimuli/foods\strawberry.jpg	1	2	1	strawberry	1	X	17	0	272	0		0	0	124.100762699964	124.200747599825
27312.25	0.100012700073421	262	hunger	stimuli/foods\cinnamon_sroll.jpg	1	2	1	cinnamon_sroll	1	W	16	0	31	0		0	0	124.250739199808	124.350751899881
27349.75	0.0999838998541236	263	hunger	stimuli/non_foods\non-food_animate_sea_turtle.jpg	1	2	1	non-food_animate_sea_turtle	0	C	1	0	144	0		0	0	124.400761900004	124.500745799858
27387.25	0.0999833999667317	264	hunger	stimuli/foods\orange.jpg	1	2	1	orange	1	W	16	0	230	0		0	0	124.550759200007	124.650742599973
27424.75	0.0999841000884771	265	hunger	stimuli/non_foods\non-food_animate_kangaroo.jpg	1	2	1	non-food_animate_kangaroo	0	T	14	0	122	0		0	0	124.700760199921	124.80074430001
27462.25	0.0999878000002354	266	hunger	stimuli/foods\cabbage.jpg	1	2	1	cabbage	1	J	6	0	16	1	a	0	0	124.850753000006	124.950740800006
27499.75	0.0999912000261247	267	hunger	stimuli/foods\red_beans.jpg	1	2	1	red_beans	1	M	9	0	255	0		0	0	125.000753099797	125.100744299823
27537.25	0.0999857999850065	268	hunger	stimuli/non_foods\non-food_inanimate_sun_flower.jpg	1	2	1	non-food_inanimate_sun_flower	0	T	14	0	216	0		0	0	125.150753999827	125.250739799812
27574.75	0.0999853999819607	269	hunger	stimuli/foods\figs.jpg	1	2	1	figs	1	H	5	0	48	0		0	0	125.300752299838	125.40073769982
27612.25	0.099983099848032	270	hunger	stimuli/non_foods\non-food_animate_seal.jpg	1	2	1	non-food_animate_seal	0	R	12	0	146	0		0	0	125.450752899982	125.55073599983
27649.75	0.0999958000611514	271	hunger	stimuli/foods\cracker.jpg	1	2	1	cracker	1	D	2	0	38	0		0	0	125.600744999945	125.700740800006
27687.25	0.0999645998235792	272	hunger	stimuli/foods\tomato.jpg	1	2	1	tomato	1	N	10	0	276	0		0	0	125.750767200021	125.850731799845
27724.75	0.099980799946934	273	hunger	stimuli/non_foods\non-food_inanimate_lighter.jpg	1	2	1	non-food_inanimate_lighter	0	D	2	0	193	0		0	0	125.900744699873	126.00072549982
27762.25	0.100004700012505	274	hunger	stimuli/foods\chocolate_bar.jpg	1	2	1	chocolate_bar	1	C	1	0	26	0		0	0	126.050736999838	126.15074169985
27799.75	0.100001499988139	275	hunger	stimuli/non_foods\non-food_inanimate_cupboard.jpg	1	2	1	non-food_inanimate_cupboard	0	X	17	0	177	0		0	0	126.200734199956	126.300735699944
27837.25	0.0999836002010852	276	hunger	stimuli/foods\eggplant.jpg	1	2	1	eggplant	1	P	11	0	46	0		0	0	126.350743499817	126.450727100018
27874.75	0.0999886998906732	277	hunger	stimuli/non_foods\non-food_inanimate_watering_can.jpg	1	2	1	non-food_inanimate_watering_can	0	R	12	0	225	0		0	0	126.500738099916	126.600726799807
27912.25	0.0999835999682546	278	hunger	stimuli/foods\garlic.jpg	1	2	1	garlic	1	P	11	0	56	0		0	0	126.650739199948	126.750722799916
27949.75	0.0999841999728233	279	hunger	stimuli/non_foods\non-food_inanimate_bucket.jpg	1	2	1	non-food_inanimate_bucket	0	F	3	0	165	0		0	0	126.800736699952	126.900720899925
31183	0.0999776001553982	280	hunger	stimuli/non_foods\non-food_animate_peacock.jpg	1	3	1	non-food_animate_peacock	0	J	6	0	134	0		0	0	139.733943299856	139.833920900011
31220.5	0.099985099863261	281	hunger	stimuli/foods\potatoes.jpg	1	3	1	potatoes	1	X	17	0	248	0		0	0	139.883935099933	139.983920199797
31258	0.0999795999377966	282	hunger	stimuli/non_foods\non-food_animate_ladybug.jpg	1	3	1	non-food_animate_ladybug	0	L	8	0	124	0		0	0	140.033937099855	140.133916699793
31295.5	0.0999835999682546	283	hunger	stimuli/foods\cinnamon.jpg	1	3	1	cinnamon	1	D	2	0	30	0		0	0	140.183931099949	140.283914699918
31333	0.0999851999804378	284	hunger	stimuli/non_foods\non-food_inanimate_nettle.jpg	1	3	1	non-food_inanimate_nettle	0	J	6	0	197	0		0	0	140.333931099856	140.433916299837
31370.5	0.0999757999088615	285	hunger	stimuli/non_foods\non-food_animate_student_female.jpg	1	3	1	non-food_animate_student_female	0	B	0	0	151	0		0	0	140.483936599921	140.58391239983
31408	0.0999855000991374	286	hunger	stimuli/non_foods\non-food_inanimate_shell.jpg	1	3	1	non-food_inanimate_shell	0	M	9	0	206	0		0	0	140.633926099865	140.733911599964
31445.5	0.0999855999834836	287	hunger	stimuli/non_foods\non-food_animate_hummingbird.jpg	1	3	1	non-food_animate_hummingbird	0	R	12	0	120	0		0	0	140.78392639989	140.883911999874
31483	0.0999874998815358	288	hunger	stimuli/non_foods\non-food_inanimate_nest.jpg	1	3	1	non-food_inanimate_nest	0	M	9	0	196	0		0	0	140.933921999997	141.033909499878
31520.5	0.100024900166318	289	hunger	stimuli/non_foods\non-food_inanimate_protractor.jpg	1	3	1	non-food_inanimate_protractor	0	L	8	0	201	0		0	0	141.083927899832	141.183952799998
31558	0.0999636000487953	290	hunger	stimuli/foods\brie.jpg	1	3	1	brie	1	P	11	0	12	0		0	0	141.233943699859	141.333907299908
31595.5	0.0999851999804378	291	hunger	stimuli/non_foods\non-food_inanimate_fern.jpg	1	3	1	non-food_inanimate_fern	0	X	17	0	180	0		0	0	141.383918599924	141.483903799905
31633	0.0999861999880522	292	hunger	stimuli/foods\fruit_flan.jpg	1	3	1	fruit_flan	1	C	1	0	53	0		0	0	141.533919499954	141.633905699942
31670.5	0.0999833000823855	293	hunger	stimuli/non_foods\non-food_inanimate_highlighter.jpg	1	3	1	non-food_inanimate_highlighter	0	H	5	0	189	0		0	0	141.683915499831	141.783898799913
31708	0.0999851999804378	294	hunger	stimuli/non_foods\non-food_inanimate_horn.jpg	1	3	1	non-food_inanimate_horn	0	D	2	0	190	0		0	0	141.833913699957	141.933898899937
31745.5	0.0999803000595421	295	hunger	stimuli/foods\cupcake.jpg	1	3	1	cupcake	1	J	6	0	42	0		0	0	141.983917299891	142.08389759995
31783	0.099983099848032	296	hunger	stimuli/foods\salmon.jpg	1	3	1	salmon	1	B	0	0	264	0		0	0	142.133911699988	142.233894799836
31820.5	0.0999549000989646	297	hunger	stimuli/non_foods\non-food_animate_sea_turtle.jpg	1	3	1	non-food_animate_sea_turtle	0	V	15	0	144	0		0	0	142.283941299887	142.383896199986
31858	0.0999831000808626	298	hunger	stimuli/non_foods\non-food_animate_grasshopper.jpg	1	3	1	non-food_animate_grasshopper	0	P	11	0	117	0		0	0	142.43391059991	142.533893699991
31895.5	0.09998430009	299	hunger	stimuli/foods\mussels.jpg	1	3	1	mussels	1	U	23	1	86	0		0	0	142.583907499909	142.683891799999
31933	0.0999831999652088	300	hunger	stimuli/foods\tomato.jpg	1	3	1	tomato	1	R	12	0	276	0		0	0	142.733906199923	142.833889399888
31970.5	0.10000229999423	301	hunger	stimuli/foods\cherry.jpg	1	3	1	cherry	1	C	1	0	23	0		0	0	142.883914900012	142.983917200007
32008	0.0999444001354277	302	hunger	stimuli/foods\rockmelon.jpg	1	3	1	rockmelon	1	N	10	0	262	0		0	0	143.033944599796	143.133888999932
32045.5	0.0999800998251885	303	hunger	stimuli/foods\artichoke.jpg	1	3	1	artichoke	1	H	5	0	3	0		0	0	143.183904299978	143.283884399803
32083	0.0999849000945687	304	hunger	stimuli/non_foods\non-food_inanimate_jeans.jpg	1	3	1	non-food_inanimate_jeans	0	N	10	0	191	0		0	0	143.333897699835	143.433882599929
32120.5	0.0999859001021832	305	hunger	stimuli/foods\peach.jpg	1	3	1	peach	1	V	15	0	238	0		0	0	143.483898999868	143.58388489997
32158	0.0999899001326412	306	hunger	stimuli/foods\watermelon.jpg	1	3	1	watermelon	1	B	0	0	279	0		0	0	143.63389229984	143.733882199973
32195.5	0.0999838002026081	307	hunger	stimuli/foods\pancakes.jpg	1	3	1	pancakes	1	J	6	0	234	0		0	0	143.783898299793	143.883882099995
32233	0.0999896998982877	308	hunger	stimuli/non_foods\non-food_animate_llama.jpg	1	3	1	non-food_animate_llama	0	K	7	0	127	0		0	0	143.933892899891	144.03388259979
32270.5	0.0999574000015855	309	hunger	stimuli/non_foods\non-food_inanimate_skirt.jpg	1	3	1	non-food_inanimate_skirt	0	G	4	0	209	0		0	0	144.083918299992	144.183875699993
32308	0.0999899997841567	310	hunger	stimuli/foods\prawn.jpg	1	3	1	prawn	1	X	17	0	249	0		0	0	144.233887800016	144.3338777998
32345.5	0.0999791999347508	311	hunger	stimuli/non_foods\non-food_inanimate_suitcase.jpg	1	3	1	non-food_inanimate_suitcase	0	Z	18	0	215	0		0	0	144.383892399957	144.483871599892
32383	0.0999875001143664	312	hunger	stimuli/non_foods\non-food_animate_seal.jpg	1	3	1	non-food_animate_seal	0	C	1	0	146	0		0	0	144.533888199832	144.633875699947
32420.5	0.0999920999165624	313	hunger	stimuli/non_foods\non-food_inanimate_soccer_ball.jpg	1	3	1	non-food_inanimate_soccer_ball	0	Z	18	0	210	0		0	0	144.683892899891	144.783884999808
32458	0.0999749000184238	314	hunger	stimuli/foods\chocolate_pudding.jpg	1	3	1	chocolate_pudding	1	P	11	0	29	0		0	0	144.833883199841	144.933858099859
32495.5	0.0999907001387328	315	hunger	stimuli/non_foods\non-food_animate_dachshund.jpg	1	3	1	non-food_animate_dachshund	0	R	12	0	104	0		0	0	144.983884699875	145.083875400014
32533	0.0999634999316186	316	hunger	stimuli/foods\pasta_carbonara.jpg	1	3	1	pasta_carbonara	1	F	3	0	236	0		0	0	145.133883399889	145.23384689982
32570.5	0.0999849999789149	317	hunger	stimuli/non_foods\non-food_inanimate_hay.jpg	1	3	1	non-food_inanimate_hay	0	Z	18	0	187	0		0	0	145.28387839999	145.383863399969
32608	0.099988600006327	318	hunger	stimuli/foods\chocolate_pralines.jpg	1	3	1	chocolate_pralines	1	P	11	0	28	0		0	0	145.433877199888	145.533865799895
32645.5	0.0999819000717252	319	hunger	stimuli/foods\cannoli.jpg	1	3	1	cannoli	1	X	17	0	17	0		0	0	145.58388179983	145.683863699902
32683	0.100006599910557	320	hunger	stimuli/foods\dates.jpg	1	3	1	dates	1	G	4	0	43	0		0	0	145.73387310002	145.833879699931
32720.5	0.0999681998509914	321	hunger	stimuli/non_foods\non-food_inanimate_rope.jpg	1	3	1	non-food_inanimate_rope	0	V	15	0	204	0		0	0	145.883893199963	145.983861399814
32758	0.0999838998541236	322	hunger	stimuli/foods\orange.jpg	1	3	1	orange	1	L	8	0	230	0		0	0	146.033873399952	146.133857299807
32795.5	0.0999831000808626	323	hunger	stimuli/foods\raisins.jpg	1	3	1	raisins	1	H	5	0	252	0		0	0	146.183872799855	146.283855899936
32833	0.0999846998602152	324	hunger	stimuli/foods\mandarin.jpg	1	3	1	mandarin	1	J	6	0	79	0		0	0	146.333871799987	146.433856499847
32870.5	0.099986599991098	325	hunger	stimuli/foods\strawberry.jpg	1	3	1	strawberry	1	G	4	0	272	0		0	0	146.483866999857	146.583853599848
32908	0.0999774001538754	326	hunger	stimuli/foods\pear.jpg	1	3	1	pear	1	H	5	0	239	0		0	0	146.633875599829	146.733852999983
32945.5	0.0999836998526007	327	hunger	stimuli/non_foods\non-food_animate_skunk.jpg	1	3	1	non-food_animate_skunk	0	N	10	0	147	0		0	0	146.783863299992	146.883846999845
32983	0.0999741000123322	328	hunger	stimuli/foods\roasted_chicken.jpg	1	3	1	roasted_chicken	1	D	2	0	261	0		0	0	146.933864599792	147.033838699805
33020.5	0.0999922000337392	329	hunger	stimuli/foods\steak.jpg	1	3	1	steak	1	L	8	0	270	0		0	0	147.083859999897	147.183852199931
33058	0.0999857999850065	330	hunger	stimuli/non_foods\non-food_inanimate_grass.jpg	1	3	1	non-food_inanimate_grass	0	B	0	0	184	0		0	0	147.23385869991	147.333844499895
33095.5	0.0999886998906732	331	hunger	stimuli/foods\eggplant.jpg	1	3	1	eggplant	1	W	16	0	46	0		0	0	147.383854399901	147.483843099792
33133	0.0999916000291705	332	hunger	stimuli/non_foods\non-food_inanimate_watering_can.jpg	1	3	1	non-food_inanimate_watering_can	0	N	10	0	225	0		0	0	147.533859199844	147.633850799873
33170.5	0.0999797999393195	333	hunger	stimuli/non_foods\non-food_inanimate_waterlily.jpg	1	3	1	non-food_inanimate_waterlily	0	M	9	0	226	0		0	0	147.683857799973	147.783837599913
33208	0.0999893001280725	334	hunger	stimuli/foods\lettuce.jpg	1	3	1	lettuce	1	T	14	0	75	0		0	0	147.833852599841	147.933841899969
33245.5	0.0999849999789149	335	hunger	stimuli/non_foods\non-food_inanimate_teddy_bear.jpg	1	3	1	non-food_inanimate_teddy_bear	0	V	15	0	218	0		0	0	147.983850699849	148.083835699828
33283	0.0999976999592036	336	hunger	stimuli/foods\clams.jpg	1	3	1	clams	1	X	17	0	32	0		0	0	148.1338521	148.233849799959
33320.5	0.0999219000805169	337	hunger	stimuli/foods\pepperoni_pizza.jpg	1	3	1	pepperoni_pizza	1	V	15	0	241	0		0	0	148.283901999937	148.383823900018
33358	0.0999938999302685	338	hunger	stimuli/foods\ice_cream.jpg	1	3	1	ice_cream	1	P	11	0	68	0		0	0	148.433840899961	148.533834799891
33395.5	0.0999904999043792	339	hunger	stimuli/non_foods\non-food_animate_mammoth.jpg	1	3	1	non-food_animate_mammoth	0	B	0	0	128	0		0	0	148.583842599997	148.683833099902
33433	0.0999837000854313	340	hunger	stimuli/foods\taco.jpg	1	3	1	taco	1	P	11	0	274	0		0	0	148.733843999915	148.8338277
33470.5	0.0999876998830587	341	hunger	stimuli/non_foods\non-food_animate_swan.jpg	1	3	1	non-food_animate_swan	0	M	9	0	152	0		0	0	148.883841499919	148.983829199802
33508	0.0999838998541236	342	hunger	stimuli/non_foods\non-food_animate_Causasian_man.jpg	1	3	1	non-food_animate_Causasian_man	0	G	4	0	89	0		0	0	149.033845199971	149.133829099825
33545.5	0.0999841999728233	343	hunger	stimuli/foods\pineapple.jpg	1	3	1	pineapple	1	N	10	0	243	0		0	0	149.18383899983	149.283823199803
33583	0.0999845999758691	344	hunger	stimuli/non_foods\non-food_animate_parrot.jpg	1	3	1	non-food_animate_parrot	0	S	13	0	133	0		0	0	149.333840499865	149.433825099841
33620.5	0.0999824998434633	345	hunger	stimuli/foods\salami.jpg	1	3	1	salami	1	M	9	0	263	0		0	0	149.483839099994	149.583821599837
33658	0.0999869999941438	346	hunger	stimuli/non_foods\non-food_inanimate_folding_chair.jpg	1	3	1	non-food_inanimate_folding_chair	0	T	14	0	182	0		0	0	149.633832299849	149.733819299843
33695.5	0.099984799977392	347	hunger	stimuli/non_foods\non-food_inanimate_leaf.jpg	1	3	1	non-food_inanimate_leaf	0	U	23	1	192	0		0	0	149.783836199902	149.883820999879
33733	0.0999845999758691	348	hunger	stimuli/foods\fruit_pie.jpg	1	3	1	fruit_pie	1	T	14	0	54	0		0	0	149.933831000002	150.033815599978
33770.5	0.0999723998829722	349	hunger	stimuli/non_foods\non-food_animate_killer_whale.jpg	1	3	1	non-food_animate_killer_whale	0	P	11	0	123	1	a	0.391858099959791	1	150.083874200005	150.183846599888
33808	0.0999924000352621	350	hunger	stimuli/foods\cauliflower.jpg	1	3	1	cauliflower	1	X	17	0	20	0		0	0	150.233823499875	150.33381589991
33845.5	0.0999824001919478	351	hunger	stimuli/foods\stew_with_potatoes_and_carrots.jpg	1	3	1	stew_with_potatoes_and_carrots	1	G	4	0	271	0		0	0	150.383829299826	150.483811700018
33883	0.0999851000960916	352	hunger	stimuli/non_foods\non-food_inanimate_bowling_ball.jpg	1	3	1	non-food_inanimate_bowling_ball	0	Z	18	0	162	0		0	0	150.533824799815	150.633809899911
33920.5	0.0999795000534505	353	hunger	stimuli/foods\honey.jpg	1	3	1	honey	1	X	17	0	66	0		0	0	150.683828299865	150.783807799919
33958	0.0999856998678297	354	hunger	stimuli/non_foods\non-food_inanimate_towel.jpg	1	3	1	non-food_inanimate_towel	0	B	0	0	221	0		0	0	150.833822699962	150.93380839983
33995.5	0.0999923998024315	355	hunger	stimuli/foods\mortadella.jpg	1	3	1	mortadella	1	M	9	0	83	0		0	0	150.983824399998	151.083816799801
34033	0.0999954000581056	356	hunger	stimuli/non_foods\non-food_animate_clown.jpg	1	3	1	non-food_animate_clown	0	V	15	0	102	0		0	0	151.133819599869	151.233814999927
34070.5	0.0999902000185102	357	hunger	stimuli/foods\ginger_root.jpg	1	3	1	ginger_root	1	X	17	0	57	0		0	0	151.283815699862	151.383805899881
34108	0.0999817000702024	358	hunger	stimuli/non_foods\non-food_inanimate_buds.jpg	1	3	1	non-food_inanimate_buds	0	Z	18	0	166	0		0	0	151.433818199905	151.533799899975
34145.5	0.0999831999652088	359	hunger	stimuli/foods\kiwi.jpg	1	3	1	kiwi	1	B	0	0	69	0		0	0	151.583817499923	151.683800699888
34183	0.10000880016014	360	hunger	stimuli/non_foods\non-food_animate_frog.jpg	1	3	1	non-food_animate_frog	0	L	8	0	113	0		0	0	151.733817099826	151.833825899987
34220.5	0.0999501999467611	361	hunger	stimuli/foods\croissant.jpg	1	3	1	croissant	1	W	16	0	40	0		0	0	151.883823700016	151.983773899963
34258	0.0999917001463473	362	hunger	stimuli/non_foods\non-food_inanimate_alarm_clock.jpg	1	3	1	non-food_inanimate_alarm_clock	0	G	4	0	158	0		0	0	152.033808499807	152.133800199954
34295.5	0.0999898998998106	363	hunger	stimuli/non_foods\non-food_animate_elephant.jpg	1	3	1	non-food_animate_elephant	0	T	14	0	111	0		0	0	152.183803699911	152.28379359981
34333	0.0999862998723984	364	hunger	stimuli/non_foods\non-food_animate_millipede.jpg	1	3	1	non-food_animate_millipede	0	X	17	0	129	0		0	0	152.333805399947	152.433791699819
34370.5	0.099989099893719	365	hunger	stimuli/non_foods\non-food_animate_dragonfly.jpg	1	3	1	non-food_animate_dragonfly	0	R	12	0	108	0		0	0	152.483804699965	152.583793799859
34408	0.0999845999758691	366	hunger	stimuli/foods\egg.jpg	1	3	1	egg	1	H	5	0	45	0		0	0	152.633803899866	152.733788499841
34445.5	0.0999907001387328	367	hunger	stimuli/non_foods\non-food_inanimate_headphones.jpg	1	3	1	non-food_inanimate_headphones	0	R	12	0	188	0		0	0	152.783799799858	152.883790499996
34483	0.0999720001127571	368	hunger	stimuli/non_foods\non-food_animate_owl.jpg	1	3	1	non-food_animate_owl	0	K	7	0	132	0		0	0	152.933817199897	153.03378920001
34520.5	0.0999861999880522	369	hunger	stimuli/non_foods\non-food_inanimate_short_sleeved_shirt.jpg	1	3	1	non-food_inanimate_short_sleeved_shirt	0	B	0	0	207	0		0	0	153.083798599895	153.183784799883
34558	0.0999831999652088	370	hunger	stimuli/foods\baked_lamb_with_potatoes.jpg	1	3	1	baked_lamb_with_potatoes	1	Z	18	0	8	0		0	0	153.233800499933	153.333783699898
34595.5	0.0999839000869542	371	hunger	stimuli/foods\fried_calamari.jpg	1	3	1	fried_calamari	1	T	14	0	50	0		0	0	153.383797399933	153.483781300019
34633	0.0999869999941438	372	hunger	stimuli/non_foods\non-food_animate_alligator.jpg	1	3	1	non-food_animate_alligator	0	L	8	0	90	0		0	0	153.533810999943	153.633797999937
34670.5	0.099956100108102	373	hunger	stimuli/non_foods\non-food_animate_caterpillar.jpg	1	3	1	non-food_animate_caterpillar	0	V	15	0	99	0		0	0	153.683816399891	153.783772499999
34708	0.0999710001051426	374	hunger	stimuli/foods\cream_donuts.jpg	1	3	1	cream_donuts	1	C	1	0	39	0		0	0	153.833781899884	153.933752899989
34745.5	0.0999860998708755	375	hunger	stimuli/foods\cucumber.jpg	1	3	1	cucumber	1	K	7	0	41	0		0	0	153.983790199971	154.083776299842
34783	0.0999814998358488	376	hunger	stimuli/non_foods\non-food_inanimate_tulip.jpg	1	3	1	non-food_inanimate_tulip	0	T	14	0	224	0		0	0	154.133789899992	154.233771399828
34820.5	0.0999890000093728	377	hunger	stimuli/foods\figs.jpg	1	3	1	figs	1	P	11	0	48	0		0	0	154.283785499865	154.383774499875
34858	0.0999859999865294	378	hunger	stimuli/foods\spaghetti_with_meat_sauce.jpg	1	3	1	spaghetti_with_meat_sauce	1	R	12	0	267	0		0	0	154.433784299996	154.533770299982
34895.5	0.0999840998556465	379	hunger	stimuli/foods\lentils.jpg	1	3	1	lentils	1	J	6	0	74	0		0	0	154.583783400012	154.683767499868
34933	0.0999734997749329	380	hunger	stimuli/foods\potato_chips.jpg	1	3	1	potato_chips	1	P	11	0	247	0		0	0	154.733796400018	154.833769899793
34970.5	0.0999777000397444	381	hunger	stimuli/non_foods\non-food_animate_porcupine.jpg	1	3	1	non-food_animate_porcupine	0	T	14	0	138	0		0	0	154.883780799806	154.983758499846
35008	0.0999747000169009	382	hunger	stimuli/non_foods\non-food_animate_seahorse.jpg	1	3	1	non-food_animate_seahorse	0	H	5	0	145	0		0	0	155.0337747999	155.133749499917
35045.5	0.0999768998008221	383	hunger	stimuli/non_foods\non-food_inanimate_button.jpg	1	3	1	non-food_inanimate_button	0	J	6	0	168	0		0	0	155.183772000019	155.283748899819
35083	0.100016299868003	384	hunger	stimuli/foods\hamburger.jpg	1	3	1	hamburger	1	C	1	0	64	0		0	0	155.333789299941	155.433805599809
35120.5	0.0999700000975281	385	hunger	stimuli/non_foods\non-food_inanimate_bush.jpg	1	3	1	non-food_inanimate_bush	0	J	6	0	167	0		0	0	155.483791899867	155.583761899965
35158	0.0999821000732481	386	hunger	stimuli/non_foods\non-food_inanimate_lighter.jpg	1	3	1	non-food_inanimate_lighter	0	V	15	0	193	0		0	0	155.63377649989	155.733758599963
35195.5	0.0999841000884771	387	hunger	stimuli/non_foods\non-food_inanimate_speakers.jpg	1	3	1	non-food_inanimate_speakers	0	G	4	0	212	0		0	0	155.783770399867	155.883754499955
35233	0.0999859001021832	388	hunger	stimuli/non_foods\non-food_inanimate_broom.jpg	1	3	1	non-food_inanimate_broom	0	S	13	0	164	0		0	0	155.933772299904	156.033758200007
35270.5	0.0999859001021832	389	hunger	stimuli/non_foods\non-food_inanimate_orchid.jpg	1	3	1	non-food_inanimate_orchid	0	L	8	0	198	0		0	0	156.083768399898	156.1837543
35308	0.0999856002163142	390	hunger	stimuli/foods\cooked_prawn.jpg	1	3	1	cooked_prawn	1	K	7	0	36	0		0	0	156.233766799793	156.333752400009
35345.5	0.0999837000854313	391	hunger	stimuli/foods\chestnut.jpg	1	3	1	chestnut	1	T	14	0	24	0		0	0	156.383766299812	156.483749999898
35383	0.0999620999209583	392	hunger	stimuli/non_foods\non-food_inanimate_tent.jpg	1	3	1	non-food_inanimate_tent	0	V	15	0	219	0		0	0	156.533788299887	156.633750399807
35420.5	0.0999867999926209	393	hunger	stimuli/non_foods\non-food_inanimate_pine_cone.jpg	1	3	1	non-food_inanimate_pine_cone	0	P	11	0	200	0		0	0	156.683764299843	156.783751099836
35458	0.0999824998434633	394	hunger	stimuli/non_foods\non-food_inanimate_wrench.jpg	1	3	1	non-food_inanimate_wrench	0	C	1	0	227	0		0	0	156.833761099959	156.933743599802
35495.5	0.0999823999591172	395	hunger	stimuli/non_foods\non-food_animate_deer.jpg	1	3	1	non-food_animate_deer	0	G	4	0	105	0		0	0	156.983759799972	157.083742199931
35533	0.0999714999925345	396	hunger	stimuli/non_foods\non-food_animate_bee.jpg	1	3	1	non-food_animate_bee	0	L	8	0	95	0		0	0	157.133764199913	157.233735699905
35570.5	0.0999757999088615	397	hunger	stimuli/foods\brussel_sprouts.jpg	1	3	1	brussel_sprouts	1	G	4	0	15	0		0	0	157.283758299891	157.3837340998
35608	0.0999888000078499	398	hunger	stimuli/non_foods\non-food_inanimate_canoe.jpg	1	3	1	non-food_inanimate_canoe	0	T	14	0	170	0		0	0	157.433745299932	157.533734099939
35645.5	0.0999740001279861	399	hunger	stimuli/non_foods\non-food_animate_donkey.jpg	1	3	1	non-food_animate_donkey	0	S	13	0	107	0		0	0	157.583743699826	157.683717699954
35683	0.0999910000246018	400	hunger	stimuli/non_foods\non-food_inanimate_stoplight.jpg	1	3	1	non-food_inanimate_stoplight	0	G	4	0	214	0		0	0	157.733749999898	157.833740999922
35720.5	0.0999851000960916	401	hunger	stimuli/non_foods\non-food_animate_yellow_bug.jpg	1	3	1	non-food_animate_yellow_bug	0	J	6	0	155	0		0	0	157.88375199982	157.983737099916
35758	0.0999837999697775	402	hunger	stimuli/non_foods\non-food_inanimate_ring.jpg	1	3	1	non-food_inanimate_ring	0	V	15	0	203	0		0	0	158.033749599941	158.133733399911
35795.5	0.0999845999758691	403	hunger	stimuli/non_foods\non-food_animate_baby_crawling.jpg	1	3	1	non-food_animate_baby_crawling	0	F	3	0	92	0		0	0	158.183749199845	158.283733799821
35833	0.0999905001372099	404	hunger	stimuli/non_foods\non-food_animate_snail.jpg	1	3	1	non-food_animate_snail	0	G	4	0	149	0		0	0	158.3337402998	158.433730799938
35870.5	0.0999911001417786	405	hunger	stimuli/non_foods\non-food_inanimate_chair.jpg	1	3	1	non-food_inanimate_chair	0	S	13	0	172	0		0	0	158.483744199853	158.583735299995
35908	0.0999819999560714	406	hunger	stimuli/foods\pea_pod.jpg	1	3	1	pea_pod	1	J	6	0	237	0		0	0	158.633745800005	158.733727799961
35945.5	0.0999884000048041	407	hunger	stimuli/non_foods\non-food_animate_tortoise.jpg	1	3	1	non-food_animate_tortoise	0	T	14	0	153	0		0	0	158.783739999868	158.883728399873
35983	0.100012900074944	408	hunger	stimuli/non_foods\non-food_inanimate_hammer.jpg	1	3	1	non-food_inanimate_hammer	0	W	16	0	186	0		0	0	158.933736299863	159.033749199938
36020.5	0.0999630999285728	409	hunger	stimuli/non_foods\non-food_animate_ant.jpg	1	3	1	non-food_animate_ant	0	H	5	0	91	0		0	0	159.083760299953	159.183723399881
36058	0.0999894000124186	410	hunger	stimuli/non_foods\non-food_animate_raccoon.jpg	1	3	1	non-food_animate_raccoon	0	R	12	0	139	0		0	0	159.233735299902	159.333724699914
36095.5	0.0999836998526007	411	hunger	stimuli/non_foods\non-food_animate_lizard.jpg	1	3	1	non-food_animate_lizard	0	H	5	0	126	0		0	0	159.38373719994	159.483720899792
36133	0.0999875001143664	412	hunger	stimuli/foods\fruit_salad.jpg	1	3	1	fruit_salad	1	K	7	0	55	0		0	0	159.533733399818	159.633720899932
36170.5	0.0999894998967648	413	hunger	stimuli/foods\avocado.jpg	1	3	1	avocado	1	Z	18	0	5	0		0	0	159.683731999947	159.783721499844
36208	0.0999868998769671	414	hunger	stimuli/non_foods\non-food_inanimate_sun_flower.jpg	1	3	1	non-food_inanimate_sun_flower	0	X	17	0	216	0		0	0	159.833723000018	159.933709899895
36245.5	0.100027699954808	415	hunger	stimuli/non_foods\non-food_inanimate_bucket.jpg	1	3	1	non-food_inanimate_bucket	0	H	5	0	165	0		0	0	159.983703499893	160.083731199848
36283	0.0999704001005739	416	hunger	stimuli/foods\nectarine.jpg	1	3	1	nectarine	1	B	0	0	87	0		0	0	160.133741299855	160.233711699955
36320.5	0.100011799950153	417	hunger	stimuli/non_foods\non-food_inanimate_construction_helment.jpg	1	3	1	non-food_inanimate_construction_helment	0	F	3	0	175	0		0	0	160.283725099871	160.383736899821
36358	0.100014100084081	418	hunger	stimuli/non_foods\non-food_inanimate_toilet.jpg	1	3	1	non-food_inanimate_toilet	0	L	8	0	220	0		0	0	160.433698799927	160.533712900011
36395.5	0.0999894998967648	419	hunger	stimuli/non_foods\non-food_animate_fox.jpg	1	3	1	non-food_animate_fox	0	R	12	0	112	0		0	0	160.583720199997	160.683709699893
39699.75	0.099980000173673	420	hunger	stimuli/non_foods\non-food_animate_giraffe.jpg	1	4	1	non-food_animate_giraffe	0	X	17	0	115	0		0	0	173.800258699805	173.900238699978
39737.25	0.0999789000488818	421	hunger	stimuli/foods\beetroots.jpg	1	4	1	beetroots	1	D	2	0	10	0		0	0	173.950255099917	174.050233999966
39774.75	0.0999752001371235	422	hunger	stimuli/foods\lasagna.jpg	1	4	1	lasagna	1	V	15	0	71	0		0	0	174.100262899883	174.20023810002
39812.25	0.0999835000839084	423	hunger	stimuli/foods\spring_onions.jpg	1	4	1	spring_onions	1	X	17	0	269	0		0	0	174.25025159982	174.350235099904
39849.75	0.0999878000002354	424	hunger	stimuli/foods\pumpkin.jpg	1	4	1	pumpkin	1	V	15	0	250	0		0	0	174.40024639992	174.500234199921
39887.25	0.0999825999606401	425	hunger	stimuli/non_foods\non-food_animate_german_shepherd.jpg	1	4	1	non-food_animate_german_shepherd	0	K	7	0	114	0		0	0	174.550246299943	174.650228899904
39924.75	0.0999988000839949	426	hunger	stimuli/foods\linguine_with_clams.jpg	1	4	1	linguine_with_clams	1	N	10	0	77	0		0	0	174.700250699883	174.800249499967
39962.25	0.0999869999941438	427	hunger	stimuli/non_foods\non-food_animate_ram.jpg	1	4	1	non-food_animate_ram	0	K	7	0	140	0		0	0	174.850244499976	174.95023149997
39999.75	0.0999799000564963	428	hunger	stimuli/non_foods\non-food_animate_chicken.jpg	1	4	1	non-food_animate_chicken	0	B	0	0	101	0		0	0	175.000245699892	175.100225599948
40037.25	0.0999875999987125	429	hunger	stimuli/foods\coconut.jpg	1	4	1	coconut	1	N	10	0	33	0		0	0	175.15023839986	175.250225999858
40074.75	0.0999819000717252	430	hunger	stimuli/non_foods\non-food_animate_polar_bear.jpg	1	4	1	non-food_animate_polar_bear	0	T	14	0	137	0		0	0	175.300243099919	175.40022499999
40112.25	0.0999846002086997	431	hunger	stimuli/foods\donut.jpg	1	4	1	donut	1	V	15	0	44	0		0	0	175.450238299789	175.550222899998
40149.75	0.0999794001691043	432	hunger	stimuli/foods\hazelnuts.jpg	1	4	1	hazelnuts	1	U	23	1	65	0		0	0	175.600235599792	175.700214999961
40187.25	0.0999839999713004	433	hunger	stimuli/foods\pomegranate.jpg	1	4	1	pomegranate	1	W	16	0	244	0		0	0	175.750229500001	175.850213499973
40224.75	0.0999730001203716	434	hunger	stimuli/foods\coffee_beans.jpg	1	4	1	coffee_beans	1	R	12	0	34	0		0	0	175.900238199858	176.000211199978
40262.25	0.100005999905989	435	hunger	stimuli/non_foods\non-food_inanimate_tree.jpg	1	4	1	non-food_inanimate_tree	0	T	14	0	223	0		0	0	176.050211099908	176.150217099814
40299.75	0.0999859999865294	436	hunger	stimuli/non_foods\non-food_animate_bat.jpg	1	4	1	non-food_animate_bat	0	C	1	0	94	0		0	0	176.200228999835	176.300214999821
40337.25	0.0999785999301821	437	hunger	stimuli/non_foods\non-food_inanimate_guitar.jpg	1	4	1	non-food_inanimate_guitar	0	W	16	0	185	0		0	0	176.350230099866	176.450208699796
40374.75	0.0999926999211311	438	hunger	stimuli/non_foods\non-food_animate_cheetah.jpg	1	4	1	non-food_animate_cheetah	0	B	0	0	100	0		0	0	176.500224299962	176.600216999883
40412.25	0.0999628000427037	439	hunger	stimuli/non_foods\non-food_inanimate_gloves.jpg	1	4	1	non-food_inanimate_gloves	0	R	12	0	183	0		0	0	176.650248199934	176.750210999977
40449.75	0.0999863999895751	440	hunger	stimuli/foods\cooked_ham.jpg	1	4	1	cooked_ham	1	W	16	0	35	0		0	0	176.800222699996	176.900209099986
40487.25	0.0999855999834836	441	hunger	stimuli/foods\baked_cod_with_carrots_and_green_beans.jpg	1	4	1	baked_cod_with_carrots_and_green_beans	1	S	13	0	7	0		0	0	176.950221200008	177.050206799991
40524.75	0.0999888000078499	442	hunger	stimuli/foods\red_beans.jpg	1	4	1	red_beans	1	B	0	0	255	0		0	0	177.100217399886	177.200206199894
40562.25	0.099986599991098	443	hunger	stimuli/non_foods\non-food_animate_young_boy.jpg	1	4	1	non-food_animate_young_boy	0	C	1	0	156	0		0	0	177.250218499918	177.350205099909
40599.75	0.0999835999682546	444	hunger	stimuli/foods\minestrone_soup.jpg	1	4	1	minestrone_soup	1	B	0	0	82	0		0	0	177.400218299823	177.500201899791
40637.25	0.100000499980524	445	hunger	stimuli/foods\carrot.jpg	1	4	1	carrot	1	X	17	0	19	0		0	0	177.550218399847	177.650218899827
40674.75	0.0999744001310319	446	hunger	stimuli/foods\green_beans.jpg	1	4	1	green_beans	1	W	16	0	61	0		0	0	177.700225199806	177.800199599937
40712.25	0.0999889001250267	447	hunger	stimuli/non_foods\non-food_animate_green_bug.jpg	1	4	1	non-food_animate_green_bug	0	P	11	0	118	0		0	0	177.850210799836	177.950199699961
40749.75	0.0999861001037061	448	hunger	stimuli/foods\lollies.jpg	1	4	1	lollies	1	T	14	0	78	0		0	0	178.000213099876	178.10019919998
40787.25	0.0999882000032812	449	hunger	stimuli/non_foods\non-food_inanimate_nailpolish.jpg	1	4	1	non-food_inanimate_nailpolish	0	V	15	0	195	0		0	0	178.150208699983	178.250196899986
40824.75	0.0999664000701159	450	hunger	stimuli/foods\museli_bars.jpg	1	4	1	museli_bars	1	P	11	0	84	0		0	0	178.300227699801	178.400194099871
40862.25	0.0999731000047177	451	hunger	stimuli/foods\cracker.jpg	1	4	1	cracker	1	N	10	0	38	0		0	0	178.450210399926	178.55018349993
40899.75	0.0999849999789149	452	hunger	stimuli/foods\chocolate_bar.jpg	1	4	1	chocolate_bar	1	H	5	0	26	0		0	0	178.600197399966	178.700182399945
40937.25	0.100000299979001	453	hunger	stimuli/foods\gnocchi.jpg	1	4	1	gnocchi	1	V	15	0	58	0		0	0	178.750190099934	178.850190399913
40974.75	0.0999880000017583	454	hunger	stimuli/foods\brownie.jpg	1	4	1	brownie	1	H	5	0	14	0		0	0	178.900199499913	179.000187499914
41012.25	0.0999907001387328	455	hunger	stimuli/non_foods\non-food_animate_woman.jpg	1	4	1	non-food_animate_woman	0	M	9	0	154	0		0	0	179.050198899815	179.150189599954
41049.75	0.0999843999743462	456	hunger	stimuli/non_foods\non-food_inanimate_cactus_pot_plant.jpg	1	4	1	non-food_inanimate_cactus_pot_plant	0	P	11	0	169	0		0	0	179.200200699968	179.300185099943
41087.25	0.0999900999013335	457	hunger	stimuli/foods\red_cabbage.jpg	1	4	1	red_cabbage	1	N	10	0	256	0		0	0	179.350194399944	179.450184499845
41124.75	0.0999763000290841	458	hunger	stimuli/foods\lamb_chops.jpg	1	4	1	lamb_chops	1	W	16	0	70	0		0	0	179.500208999962	179.600185299991
41162.25	0.099984799977392	459	hunger	stimuli/non_foods\non-food_inanimate_table.jpg	1	4	1	non-food_inanimate_table	0	F	3	0	217	0		0	0	179.650194999995	179.750179799972
41199.75	0.0999860998708755	460	hunger	stimuli/non_foods\non-food_inanimate_rack.jpg	1	4	1	non-food_inanimate_rack	0	H	5	0	202	0		0	0	179.800189699978	179.900175799849
41237.25	0.0999859999865294	461	hunger	stimuli/non_foods\non-food_inanimate_cap.jpg	1	4	1	non-food_inanimate_cap	0	D	2	0	171	0		0	0	179.950184099842	180.050170099828
41274.75	0.099954100092873	462	hunger	stimuli/non_foods\non-food_animate_horse.jpg	1	4	1	non-food_animate_horse	0	K	7	0	119	0		0	0	180.100220799912	180.200174900005
41312.25	0.0999839999713004	463	hunger	stimuli/foods\grilled_chicken_breast.jpg	1	4	1	grilled_chicken_breast	1	N	10	0	63	0		0	0	180.250185499899	180.35016949987
41349.75	0.0999535000883043	464	hunger	stimuli/non_foods\non-food_animate_camel.jpg	1	4	1	non-food_animate_camel	0	J	6	0	97	0		0	0	180.400189899839	180.500143399928
41387.25	0.0999837000854313	465	hunger	stimuli/non_foods\non-food_animate_gorilla.jpg	1	4	1	non-food_animate_gorilla	0	V	15	0	116	0		0	0	180.550186399836	180.650170099922
41424.75	0.0999854998663068	466	hunger	stimuli/non_foods\non-food_inanimate_moss.jpg	1	4	1	non-food_inanimate_moss	0	B	0	0	194	0		0	0	180.700186799979	180.800172299845
41462.25	0.099982799962163	467	hunger	stimuli/foods\grapes.jpg	1	4	1	grapes	1	C	1	0	60	0		0	0	180.850183199858	180.95016599982
41499.75	0.0999900999013335	468	hunger	stimuli/non_foods\non-food_animate_sea_lion.jpg	1	4	1	non-food_animate_sea_lion	0	L	8	0	143	0		0	0	181.000181599986	181.100171699887
41537.25	0.0999855000991374	469	hunger	stimuli/foods\cabbage.jpg	1	4	1	cabbage	1	D	2	0	16	0		0	0	181.15017999988	181.25016549998
41574.75	0.0999821999575943	470	hunger	stimuli/non_foods\non-food_animate_penguin.jpg	1	4	1	non-food_animate_penguin	0	V	15	0	135	0		0	0	181.300172999967	181.400155199924
41612.25	0.0999873001128435	471	hunger	stimuli/foods\broccoli.jpg	1	4	1	broccoli	1	Z	18	0	13	0		0	0	181.450167599833	181.550154899945
41649.75	0.0999845000915229	472	hunger	stimuli/non_foods\non-food_inanimate_drum_set.jpg	1	4	1	non-food_inanimate_drum_set	0	K	7	0	179	0		0	0	181.600166299846	181.700150799938
41687.25	0.0999831000808626	473	hunger	stimuli/foods\mushroom.jpg	1	4	1	mushroom	1	H	5	0	85	0		0	0	181.75016379985	181.850146899931
41724.75	0.0999831000808626	474	hunger	stimuli/foods\waffle.jpg	1	4	1	waffle	1	R	12	0	278	0		0	0	181.900177599862	182.000160699943
41762.25	0.0999875999987125	475	hunger	stimuli/foods\grapefruits.jpg	1	4	1	grapefruits	1	L	8	0	59	0		0	0	182.050171299838	182.150158899836
41799.75	0.0999825999606401	476	hunger	stimuli/non_foods\non-food_animate_cat.jpg	1	4	1	non-food_animate_cat	0	Z	18	0	98	0		0	0	182.200173599878	182.300156199839
41837.25	0.0999794001691043	477	hunger	stimuli/foods\lemon_meringue_pie.jpg	1	4	1	lemon_meringue_pie	1	S	13	0	73	0		0	0	182.350165899843	182.450145300012
41874.75	0.0999930999241769	478	hunger	stimuli/foods\almonds.jpg	1	4	1	almonds	1	D	2	0	0	0		0	0	182.500160499942	182.600153599866
41912.25	0.0999548002146184	479	hunger	stimuli/foods\rice_cake.jpg	1	4	1	rice_cake	1	T	14	0	258	0		0	0	182.650167999789	182.750122800004
41949.75	0.0999628000427037	480	hunger	stimuli/non_foods\non-food_animate_pigeon.jpg	1	4	1	non-food_animate_pigeon	0	B	0	0	136	0		0	0	182.800162199885	182.900124999927
41987.25	0.0999727000016719	481	hunger	stimuli/non_foods\non-food_animate_young_girl.jpg	1	4	1	non-food_animate_young_girl	0	V	15	0	157	0		0	0	182.950179199921	183.050151899923
42024.75	0.0999848002102226	482	hunger	stimuli/foods\omelette.jpg	1	4	1	omelette	1	N	10	0	228	0		0	0	183.100160499802	183.200145300012
42062.25	0.099984799977392	483	hunger	stimuli/foods\oregano.jpg	1	4	1	oregano	1	S	13	0	231	0		0	0	183.250159399817	183.350144199794
42099.75	0.0999844998586923	484	hunger	stimuli/non_foods\non-food_inanimate_chandelier.jpg	1	4	1	non-food_inanimate_chandelier	0	Z	18	0	173	0		0	0	183.400158999953	183.500143499812
42137.25	0.0999605001416057	485	hunger	stimuli/foods\smoked_ham.jpg	1	4	1	smoked_ham	1	H	5	0	266	0		0	0	183.550159799866	183.650120300008
42174.75	0.0999493999406695	486	hunger	stimuli/non_foods\non-food_inanimate_clover.jpg	1	4	1	non-food_inanimate_clover	0	L	8	0	174	0		0	0	183.700191600015	183.800140999956
42212.25	0.0999841999728233	487	hunger	stimuli/non_foods\non-food_inanimate_bicycle.jpg	1	4	1	non-food_inanimate_bicycle	0	F	3	0	161	0		0	0	183.850151399849	183.950135599822
42249.75	0.0999837999697775	488	hunger	stimuli/foods\meatballs.jpg	1	4	1	meatballs	1	W	16	0	81	0		0	0	184.000152299879	184.100136099849
42287.25	0.099984799977392	489	hunger	stimuli/foods\asparagus.jpg	1	4	1	asparagus	1	D	2	0	4	0		0	0	184.150150300004	184.250135099981
42324.75	0.099984799977392	490	hunger	stimuli/foods\apple.jpg	1	4	1	apple	1	N	10	0	1	0		0	0	184.300147299888	184.400132099865
42362.25	0.0999892998952419	491	hunger	stimuli/foods\cereal.jpg	1	4	1	cereal	1	L	8	0	22	0		0	0	184.450146500021	184.550135799916
42399.75	0.0999654999468476	492	hunger	stimuli/foods\risotto_with_zucchini.jpg	1	4	1	risotto_with_zucchini	1	H	5	0	260	0		0	0	184.600144899916	184.700110399863
42437.25	0.0999733000062406	493	hunger	stimuli/foods\lime.jpg	1	4	1	lime	1	R	12	0	76	0		0	0	184.750153600005	184.850126900012
42474.75	0.0999858998693526	494	hunger	stimuli/non_foods\non-food_animate_monkey.jpg	1	4	1	non-food_animate_monkey	0	D	2	0	130	0		0	0	184.900141299935	185.000127199804
42512.25	0.0999813999515027	495	hunger	stimuli/foods\corncob.jpg	1	4	1	corncob	1	T	14	0	37	0		0	0	185.050143599976	185.150124999927
42549.75	0.0999853999819607	496	hunger	stimuli/non_foods\non-food_animate_eagle.jpg	1	4	1	non-food_animate_eagle	0	H	5	0	110	0		0	0	185.20013399981	185.300119399792
42587.25	0.10002959985286	497	hunger	stimuli/non_foods\non-food_animate_slug.jpg	1	4	1	non-food_animate_slug	0	C	1	0	148	0		0	0	185.350122899981	185.450152499834
42624.75	0.0999677998479456	498	hunger	stimuli/non_foods\non-food_animate_baby_sitting.jpg	1	4	1	non-food_animate_baby_sitting	0	T	14	0	93	0		0	0	185.500146199949	185.600113999797
42662.25	0.0999810001812875	499	hunger	stimuli/foods\fennel.jpg	1	4	1	fennel	1	S	13	0	47	0		0	0	185.650125899818	185.750106899999
42699.75	0.100004700012505	500	hunger	stimuli/foods\mango.jpg	1	4	1	mango	1	D	2	0	80	0		0	0	185.800112299854	185.900116999866
42737.25	0.0999908000230789	501	hunger	stimuli/foods\rice.jpg	1	4	1	rice	1	C	1	0	257	0		0	0	185.950128199998	186.050119000021
42774.75	0.0999901997856796	502	hunger	stimuli/foods\spinach.jpg	1	4	1	spinach	1	T	14	0	268	0		0	0	186.100127100013	186.200117299799
42812.25	0.0999867999926209	503	hunger	stimuli/foods\wafer.jpg	1	4	1	wafer	1	J	6	0	277	0		0	0	186.250127399806	186.350114199799
42849.75	0.0999851999804378	504	hunger	stimuli/foods\celery.jpg	1	4	1	celery	1	M	9	0	21	0		0	0	186.400125299813	186.500110499794
42887.25	0.0999882000032812	505	hunger	stimuli/non_foods\non-food_inanimate_bed.jpg	1	4	1	non-food_inanimate_bed	0	L	8	0	160	0		0	0	186.550122799817	186.650110999821
42924.75	0.0999868998769671	506	hunger	stimuli/foods\blackberry.jpg	1	4	1	blackberry	1	D	2	0	11	0		0	0	186.700123999966	186.800110899843
42962.25	0.0999879001174122	507	hunger	stimuli/foods\pork_and_rice.jpg	1	4	1	pork_and_rice	1	P	11	0	245	0		0	0	186.850119999843	186.95010789996
42999.75	0.0999833000823855	508	hunger	stimuli/foods\radish.jpg	1	4	1	radish	1	G	4	0	251	0		0	0	187.000121699879	187.100104999961
43037.25	0.100000699982047	509	hunger	stimuli/non_foods\non-food_animate_dolphin.jpg	1	4	1	non-food_animate_dolphin	0	C	1	0	106	0		0	0	187.150130199967	187.250130899949
43074.75	0.0999598999042064	510	hunger	stimuli/foods\apricot.jpg	1	4	1	apricot	1	J	6	0	2	0		0	0	187.300141999964	187.400101899868
43112.25	0.0999818998388946	511	hunger	stimuli/foods\capsicum.jpg	1	4	1	capsicum	1	S	13	0	18	1	a	0	0	187.450112899998	187.550094799837
43149.75	0.0999966999515891	512	hunger	stimuli/non_foods\non-food_animate_lion.jpg	1	4	1	non-food_animate_lion	0	N	10	0	125	0		0	0	187.600105599966	187.700102299917
43187.25	0.100003600120544	513	hunger	stimuli/non_foods\non-food_inanimate_desk.jpg	1	4	1	non-food_inanimate_desk	0	F	3	0	178	0		0	0	187.750093499897	187.850097100018
43224.75	0.0999902999028563	514	hunger	stimuli/foods\raw_sausage.jpg	1	4	1	raw_sausage	1	V	15	0	254	0		0	0	187.900108099915	188.000098399818
43262.25	0.0999898000154644	515	hunger	stimuli/foods\peas.jpg	1	4	1	peas	1	B	0	0	240	0		0	0	188.050105799921	188.150095599936
43299.75	0.099980799946934	516	hunger	stimuli/non_foods\non-food_animate_Asian_man.jpg	1	4	1	non-food_animate_Asian_man	0	W	16	0	88	0		0	0	188.200111999875	188.300092799822
43337.25	0.099974500015378	517	hunger	stimuli/non_foods\non-food_animate_squirrel.jpg	1	4	1	non-food_animate_squirrel	0	C	1	0	150	0		0	0	188.350118499948	188.450092999963
43374.75	0.0999857999850065	518	hunger	stimuli/non_foods\non-food_animate_runner.jpg	1	4	1	non-food_animate_runner	0	T	14	0	142	0		0	0	188.500106299995	188.60009209998
43412.25	0.0999871999956667	519	hunger	stimuli/foods\frankfurter_and_provolone_salad.jpg	1	4	1	frankfurter_and_provolone_salad	1	L	8	0	49	0		0	0	188.650103599997	188.750090799993
43449.75	0.099990300135687	520	hunger	stimuli/non_foods\non-food_animate_kangaroo.jpg	1	4	1	non-food_animate_kangaroo	0	P	11	0	122	0		0	0	188.80010039988	188.900090700015
43487.25	0.0999984000809491	521	hunger	stimuli/foods\banana.jpg	1	4	1	banana	1	F	3	0	9	0		0	0	188.950104399817	189.050102799898
43524.75	0.0999627998098731	522	hunger	stimuli/non_foods\non-food_inanimate_briefcase.jpg	1	4	1	non-food_inanimate_briefcase	0	W	16	0	163	0		0	0	189.100123499986	189.200086299796
43562.25	0.0999864998739213	523	hunger	stimuli/foods\onion.jpg	1	4	1	onion	1	N	10	0	229	0		0	0	189.25009649992	189.350082999794
43599.75	0.0999857999850065	524	hunger	stimuli/non_foods\non-food_inanimate_bamboo.jpg	1	4	1	non-food_inanimate_bamboo	0	U	23	1	159	0		0	0	189.400096099824	189.500081899809
43637.25	0.0999847000930458	525	hunger	stimuli/foods\garlic.jpg	1	4	1	garlic	1	Z	18	0	56	0		0	0	189.550093199825	189.650077899918
43674.75	0.0999892000108957	526	hunger	stimuli/non_foods\non-food_animate_iguana.jpg	1	4	1	non-food_animate_iguana	0	H	5	0	121	0		0	0	189.70009259996	189.800081799971
43712.25	0.0999851000960916	527	hunger	stimuli/non_foods\non-food_animate_cow.jpg	1	4	1	non-food_animate_cow	0	T	14	0	103	1	a	0.550234399968758	1	189.850084799808	189.950069899904
43749.75	0.0999916000291705	528	hunger	stimuli/foods\papaya.jpg	1	4	1	papaya	1	X	17	0	235	0		0	0	190.000081099803	190.100072699832
43787.25	0.0999819999560714	529	hunger	stimuli/foods\oyster.jpg	1	4	1	oyster	1	D	2	0	233	0		0	0	190.150089300005	190.250071299961
43824.75	0.0999885001219809	530	hunger	stimuli/non_foods\non-food_inanimate_socks.jpg	1	4	1	non-food_inanimate_socks	0	L	8	0	211	0		0	0	190.300085499883	190.400074000005
43862.25	0.0999828001949936	531	hunger	stimuli/non_foods\non-food_animate_duck.jpg	1	4	1	non-food_animate_duck	0	P	11	0	109	0		0	0	190.450087099802	190.550069899997
43899.75	0.0999888000078499	532	hunger	stimuli/foods\savory_pie.jpg	1	4	1	savory_pie	1	Z	18	0	265	0		0	0	190.600083199795	190.700071999803
43937.25	0.0999817999545485	533	hunger	stimuli/non_foods\non-food_inanimate_stapler.jpg	1	4	1	non-food_inanimate_stapler	0	W	16	0	213	0		0	0	190.750115899835	190.850097699789
43974.75	0.0999706001020968	534	hunger	stimuli/foods\hotdog.jpg	1	4	1	hotdog	1	G	4	0	67	0		0	0	190.90009689983	191.000067499932
44012.25	0.0999839999713004	535	hunger	stimuli/non_foods\non-food_inanimate_cupboard.jpg	1	4	1	non-food_inanimate_cupboard	0	L	8	0	177	0		0	0	191.050079399953	191.150063399924
44049.75	0.0999833999667317	536	hunger	stimuli/foods\bagel.jpg	1	4	1	bagel	1	M	9	0	6	0		0	0	191.200080899987	191.300064299954
44087.25	0.0999815999530256	537	hunger	stimuli/foods\fried_zucchini.jpg	1	4	1	fried_zucchini	1	H	5	0	51	0		0	0	191.350079299882	191.450060899835
44124.75	0.0999867999926209	538	hunger	stimuli/foods\cinnamon_sroll.jpg	1	4	1	cinnamon_sroll	1	R	12	0	31	0		0	0	191.500073099975	191.600059899967
44162.25	0.0999925001524389	539	hunger	stimuli/non_foods\non-food_inanimate_padlock.jpg	1	4	1	non-food_inanimate_padlock	0	P	11	0	199	0		0	0	191.650068699848	191.7500612
44199.75	0.0999902000185102	540	hunger	stimuli/foods\toasted_bread_with_tomatoes.jpg	1	4	1	toasted_bread_with_tomatoes	1	X	17	0	275	0		0	0	191.800067399861	191.90005759988
44237.25	0.0999764997977763	541	hunger	stimuli/foods\swordfish.jpg	1	4	1	swordfish	1	S	13	0	273	0		0	0	191.950066999998	192.050043499796
44274.75	0.100009499816224	542	hunger	stimuli/non_foods\non-food_inanimate_scissors.jpg	1	4	1	non-food_inanimate_scissors	0	P	11	0	205	0		0	0	192.100046199979	192.200055699795
44312.25	0.0999884000048041	543	hunger	stimuli/non_foods\non-food_animate_butterfly.jpg	1	4	1	non-food_animate_butterfly	0	T	14	0	96	0		0	0	192.250068199821	192.350056599826
44349.75	0.0999889001250267	544	hunger	stimuli/foods\fries.jpg	1	4	1	fries	1	M	9	0	52	0		0	0	192.400064099813	192.500052999938
44387.25	0.0999522998463362	545	hunger	stimuli/non_foods\non-food_inanimate_couch.jpg	1	4	1	non-food_inanimate_couch	0	R	12	0	176	0		0	0	192.550066499971	192.650018799817
44424.75	0.0999825000762939	546	hunger	stimuli/foods\oven-roasted_tomatoes.jpg	1	4	1	oven-roasted_tomatoes	1	B	0	0	232	0		0	0	192.700067299884	192.80004979996
44462.25	0.099986599991098	547	hunger	stimuli/foods\risotto_with_peas_and_asparagus_tips.jpg	1	4	1	risotto_with_peas_and_asparagus_tips	1	S	13	0	259	0		0	0	192.850059499964	192.950046099955
44499.75	0.0999938000459224	548	hunger	stimuli/foods\lemon.jpg	1	4	1	lemon	1	H	5	0	72	0		0	0	193.000051199924	193.10004499997
44537.25	0.099984799977392	549	hunger	stimuli/foods\pickles.jpg	1	4	1	pickles	1	Z	18	0	242	0		0	0	193.150058799889	193.250043599866
44574.75	0.0999861999880522	550	hunger	stimuli/foods\potato_and_green_bean_salad.jpg	1	4	1	potato_and_green_bean_salad	1	J	6	0	246	0		0	0	193.300053599989	193.400039799977
44612.25	0.0999898000154644	551	hunger	stimuli/non_foods\non-food_inanimate_fire_extinguisher.jpg	1	4	1	non-food_inanimate_fire_extinguisher	0	Z	18	0	181	0		0	0	193.450053799897	193.550043599913
44649.75	0.0999841000884771	552	hunger	stimuli/non_foods\non-food_inanimate_skateboard.jpg	1	4	1	non-food_inanimate_skateboard	0	N	10	0	208	0		0	0	193.600052999798	193.700037099887
44687.25	0.0999862998723984	553	hunger	stimuli/non_foods\non-food_animate_rhino.jpg	1	4	1	non-food_animate_rhino	0	T	14	0	141	0		0	0	193.750052399933	193.850038699806
44724.75	0.0999838998541236	554	hunger	stimuli/foods\green_olives.jpg	1	4	1	green_olives	1	L	8	0	62	0		0	0	193.90005149995	194.000035399804
44762.25	0.099985099863261	555	hunger	stimuli/non_foods\non-food_animate_mouse.jpg	1	4	1	non-food_animate_mouse	0	R	12	0	131	0		0	0	194.050048599951	194.150033699814
44799.75	0.100003300001845	556	hunger	stimuli/non_foods\non-food_inanimate_toy_airplane.jpg	1	4	1	non-food_inanimate_toy_airplane	0	N	10	0	222	0		0	0	194.200048599858	194.30005189986
44837.25	0.0999485999345779	557	hunger	stimuli/foods\chilli.jpg	1	4	1	chilli	1	M	9	0	25	0		0	0	194.350075999973	194.450024599908
44874.75	0.0999854998663068	558	hunger	stimuli/foods\chocolate_chip_cookies.jpg	1	4	1	chocolate_chip_cookies	1	L	8	0	27	0		0	0	194.500035899924	194.60002139979
44912.25	0.0999869999941438	559	hunger	stimuli/foods\raw_ham.jpg	1	4	1	raw_ham	1	S	13	0	253	0		0	0	194.650034999941	194.750021999935
48120.5	0.0999783000443131	560	hunger	stimuli/foods\blackberry.jpg	1	5	1	blackberry	1	X	17	0	11	0		0	0	207.483252499951	207.583230799995
48158	0.100001599872485	561	hunger	stimuli/foods\eggplant.jpg	1	5	1	eggplant	1	C	1	0	46	0		0	0	207.633242900018	207.73324449989
48195.5	0.0999803000595421	562	hunger	stimuli/non_foods\non-food_inanimate_horn.jpg	1	5	1	non-food_inanimate_horn	0	J	6	0	190	0		0	0	207.783243899932	207.883224199992
48233	0.0999831000808626	563	hunger	stimuli/non_foods\non-food_inanimate_cactus_pot_plant.jpg	1	5	1	non-food_inanimate_cactus_pot_plant	0	G	4	0	169	0		0	0	207.933238199912	208.033221299993
48270.5	0.0999431000091136	564	hunger	stimuli/non_foods\non-food_inanimate_short_sleeved_shirt.jpg	1	5	1	non-food_inanimate_short_sleeved_shirt	0	H	5	0	207	0		0	0	208.083283099812	208.183226199821
48308	0.0999822998419404	565	hunger	stimuli/foods\broccoli.jpg	1	5	1	broccoli	1	L	8	0	13	0		0	0	208.233238199959	208.333220499801
48345.5	0.0999837000854313	566	hunger	stimuli/non_foods\non-food_inanimate_cupboard.jpg	1	5	1	non-food_inanimate_cupboard	0	N	10	0	177	0		0	0	208.383239399875	208.48322309996
48383	0.0999820998404175	567	hunger	stimuli/non_foods\non-food_animate_gorilla.jpg	1	5	1	non-food_animate_gorilla	0	P	11	0	116	0		0	0	208.533239600016	208.633221699856
48420.5	0.0999871001113206	568	hunger	stimuli/non_foods\non-food_inanimate_briefcase.jpg	1	5	1	non-food_inanimate_briefcase	0	Z	18	0	163	0		0	0	208.683230399853	208.783217499964
48458	0.0999893001280725	569	hunger	stimuli/non_foods\non-food_animate_dachshund.jpg	1	5	1	non-food_animate_dachshund	0	P	11	0	104	0		0	0	208.833231299883	208.933220600011
48495.5	0.09998430009	570	hunger	stimuli/non_foods\non-food_inanimate_couch.jpg	1	5	1	non-food_inanimate_couch	0	N	10	0	176	0		0	0	208.983230199898	209.083214499988
48533	0.0999608000274748	571	hunger	stimuli/foods\mushroom.jpg	1	5	1	mushroom	1	Z	18	0	85	0		0	0	209.133247099817	209.233207899844
48570.5	0.100006300024688	572	hunger	stimuli/foods\chestnut.jpg	1	5	1	chestnut	1	N	10	0	24	0		0	0	209.283218699973	209.383224999998
48608	0.0999835999682546	573	hunger	stimuli/foods\ginger_root.jpg	1	5	1	ginger_root	1	P	11	0	57	0		0	0	209.433219299885	209.533202899853
48645.5	0.0999964999500662	574	hunger	stimuli/non_foods\non-food_inanimate_highlighter.jpg	1	5	1	non-food_inanimate_highlighter	0	N	10	0	189	0		0	0	209.583214799874	209.683211299824
48683	0.0999521999619901	575	hunger	stimuli/foods\steak.jpg	1	5	1	steak	1	L	8	0	270	0		0	0	209.733223599847	209.833175799809
48720.5	0.0999457000289112	576	hunger	stimuli/foods\cauliflower.jpg	1	5	1	cauliflower	1	M	9	0	20	0		0	0	209.883260399802	209.983206099831
48758	0.0999877001158893	577	hunger	stimuli/non_foods\non-food_animate_deer.jpg	1	5	1	non-food_animate_deer	0	Z	18	0	105	0		0	0	210.033217999851	210.133205699967
48795.5	0.0999801999423653	578	hunger	stimuli/non_foods\non-food_animate_Asian_man.jpg	1	5	1	non-food_animate_Asian_man	0	R	12	0	88	0		0	0	210.183221400017	210.283201599959
48833	0.0999831999652088	579	hunger	stimuli/non_foods\non-food_inanimate_folding_chair.jpg	1	5	1	non-food_inanimate_folding_chair	0	D	2	0	182	0		0	0	210.333218599902	210.433201799868
48870.5	0.0999825999606401	580	hunger	stimuli/non_foods\non-food_inanimate_bamboo.jpg	1	5	1	non-food_inanimate_bamboo	0	C	1	0	159	0		0	0	210.483215000015	210.583197599975
48908	0.0999789000488818	581	hunger	stimuli/non_foods\non-food_inanimate_bowling_ball.jpg	1	5	1	non-food_inanimate_bowling_ball	0	R	12	0	162	0		0	0	210.633212799905	210.733191699954
48945.5	0.0999876998830587	582	hunger	stimuli/foods\chocolate_bar.jpg	1	5	1	chocolate_bar	1	H	5	0	26	0		0	0	210.783203599975	210.883191299858
48983	0.0999624999240041	583	hunger	stimuli/foods\brownie.jpg	1	5	1	brownie	1	P	11	0	14	0		0	0	210.933223299915	211.033185799839
49020.5	0.0999800998251885	584	hunger	stimuli/foods\banana.jpg	1	5	1	banana	1	S	13	0	9	0		0	0	211.0832008	211.183180899825
49058	0.100005899788812	585	hunger	stimuli/non_foods\non-food_inanimate_fire_extinguisher.jpg	1	5	1	non-food_inanimate_fire_extinguisher	0	H	5	0	181	0		0	0	211.233184000012	211.3331898998
49095.5	0.0999849999789149	586	hunger	stimuli/non_foods\non-food_animate_porcupine.jpg	1	5	1	non-food_animate_porcupine	0	J	6	0	138	0		0	0	211.383204499958	211.483189499937
49133	0.0999819999560714	587	hunger	stimuli/non_foods\non-food_animate_lion.jpg	1	5	1	non-food_animate_lion	0	D	2	0	125	0		0	0	211.533231199952	211.633213199908
49170.5	0.0999620000366122	588	hunger	stimuli/non_foods\non-food_animate_snail.jpg	1	5	1	non-food_animate_snail	0	C	1	0	149	0		0	0	211.683225599816	211.783187599853
49208	0.0999869001097977	589	hunger	stimuli/foods\raw_ham.jpg	1	5	1	raw_ham	1	M	9	0	253	0		0	0	211.83320029988	211.933187199989
49245.5	0.0999857001006603	590	hunger	stimuli/non_foods\non-food_animate_baby_crawling.jpg	1	5	1	non-food_animate_baby_crawling	0	X	17	0	92	0		0	0	211.983200399904	212.083186100004
49283	0.0999875999987125	591	hunger	stimuli/non_foods\non-food_animate_parrot.jpg	1	5	1	non-food_animate_parrot	0	F	3	0	133	0		0	0	212.133194599999	212.233182199998
49320.5	0.0999855000991374	592	hunger	stimuli/foods\pumpkin.jpg	1	5	1	pumpkin	1	M	9	0	250	0		0	0	212.283197699813	212.383183199912
49358	0.0999859999865294	593	hunger	stimuli/foods\brie.jpg	1	5	1	brie	1	P	11	0	12	0		0	0	212.433192499913	212.5331784999
49395.5	0.0999878000002354	594	hunger	stimuli/non_foods\non-food_animate_tortoise.jpg	1	5	1	non-food_animate_tortoise	0	X	17	0	153	0		0	0	212.583193299826	212.683181099826
49433	0.0999735000077635	595	hunger	stimuli/foods\lime.jpg	1	5	1	lime	1	W	16	0	76	0		0	0	212.733203499811	212.833176999819
49470.5	0.0999869001097977	596	hunger	stimuli/foods\coconut.jpg	1	5	1	coconut	1	B	0	0	33	0		0	0	212.883189099841	212.983175999951
49508	0.0999871001113206	597	hunger	stimuli/non_foods\non-food_inanimate_guitar.jpg	1	5	1	non-food_inanimate_guitar	0	L	8	0	185	0		0	0	213.033190199872	213.133177299984
49545.5	0.0999778998084366	598	hunger	stimuli/foods\gnocchi.jpg	1	5	1	gnocchi	1	G	4	0	58	0		0	0	213.183188399998	213.283166299807
49583	0.100006399909034	599	hunger	stimuli/foods\cinnamon_sroll.jpg	1	5	1	cinnamon_sroll	1	R	12	0	31	0		0	0	213.333190399921	213.43319679983
49620.5	0.099986300105229	600	hunger	stimuli/foods\cabbage.jpg	1	5	1	cabbage	1	J	6	0	16	0		0	0	213.483184899902	213.583171200007
49658	0.0999873999971896	601	hunger	stimuli/foods\baked_cod_with_carrots_and_green_beans.jpg	1	5	1	baked_cod_with_carrots_and_green_beans	1	G	4	0	7	0		0	0	213.633180799894	213.733168199891
49695.5	0.0999883997719735	602	hunger	stimuli/non_foods\non-food_inanimate_nailpolish.jpg	1	5	1	non-food_inanimate_nailpolish	0	M	9	0	195	0		0	0	213.783178600017	213.883166999789
49733	0.099988600006327	603	hunger	stimuli/non_foods\non-food_animate_peacock.jpg	1	5	1	non-food_animate_peacock	0	T	14	0	134	0		0	0	213.933176599909	214.033165199915
49770.5	0.0999873999971896	604	hunger	stimuli/foods\lollies.jpg	1	5	1	lollies	1	B	0	0	78	0		0	0	214.083177299937	214.183164699934
49808	0.0999864998739213	605	hunger	stimuli/foods\spinach.jpg	1	5	1	spinach	1	V	15	0	268	0		0	0	214.233176799957	214.333163299831
49845.5	0.0999827000778168	606	hunger	stimuli/foods\cherry.jpg	1	5	1	cherry	1	N	10	0	23	0		0	0	214.383176999865	214.483159699943
49883	0.099984799977392	607	hunger	stimuli/non_foods\non-food_animate_baby_sitting.jpg	1	5	1	non-food_animate_baby_sitting	0	C	1	0	93	0		0	0	214.533183399821	214.633168199798
49920.5	0.0999888000078499	608	hunger	stimuli/foods\hamburger.jpg	1	5	1	hamburger	1	J	6	0	64	0		0	0	214.683171999874	214.783160799881
49958	0.0999853999819607	609	hunger	stimuli/foods\avocado.jpg	1	5	1	avocado	1	W	16	0	5	0		0	0	214.833171299892	214.933156699874
49995.5	0.0999918999150395	610	hunger	stimuli/foods\fennel.jpg	1	5	1	fennel	1	B	0	0	47	0		0	0	214.983168300008	215.083160199923
50033	0.099962400039658	611	hunger	stimuli/foods\rice_cake.jpg	1	5	1	rice_cake	1	R	12	0	258	0		0	0	215.133178799879	215.233141199918
50070.5	0.0999782001599669	612	hunger	stimuli/non_foods\non-food_inanimate_pine_cone.jpg	1	5	1	non-food_inanimate_pine_cone	0	H	5	0	200	0		0	0	215.283165499801	215.383143699961
50108	0.100000099977478	613	hunger	stimuli/non_foods\non-food_animate_green_bug.jpg	1	5	1	non-food_animate_green_bug	0	W	16	0	118	0		0	0	215.433152699843	215.533152799821
50145.5	0.0999856998678297	614	hunger	stimuli/foods\donut.jpg	1	5	1	donut	1	L	8	0	44	0		0	0	215.583162999945	215.683148699813
50183	0.0999865001067519	615	hunger	stimuli/non_foods\non-food_inanimate_construction_helment.jpg	1	5	1	non-food_inanimate_construction_helment	0	B	0	0	175	0		0	0	215.733162199846	215.833148699952
50220.5	0.0999839000869542	616	hunger	stimuli/non_foods\non-food_animate_seal.jpg	1	5	1	non-food_animate_seal	0	H	5	0	146	0		0	0	215.883163299877	215.983147199964
50258	0.0999841999728233	617	hunger	stimuli/non_foods\non-food_animate_bee.jpg	1	5	1	non-food_animate_bee	0	S	13	0	95	0		0	0	216.033160799881	216.133144999854
50295.5	0.100002899998799	618	hunger	stimuli/foods\nectarine.jpg	1	5	1	nectarine	1	F	3	0	87	0		0	0	216.183158400003	216.283161300002
50333	0.0999708999879658	619	hunger	stimuli/foods\onion.jpg	1	5	1	onion	1	N	10	0	229	0		0	0	216.333172800019	216.433143700007
50370.5	0.0999829999636859	620	hunger	stimuli/foods\lamb_chops.jpg	1	5	1	lamb_chops	1	R	12	0	70	0		0	0	216.483153099893	216.583136099856
50408	0.0999845999758691	621	hunger	stimuli/non_foods\non-food_inanimate_buds.jpg	1	5	1	non-food_inanimate_buds	0	G	4	0	166	0		0	0	216.633153999923	216.733138599899
50445.5	0.0999843999743462	622	hunger	stimuli/non_foods\non-food_animate_giraffe.jpg	1	5	1	non-food_animate_giraffe	0	B	0	0	115	0		0	0	216.783151299926	216.8831356999
50483	0.0999580000061542	623	hunger	stimuli/foods\rockmelon.jpg	1	5	1	rockmelon	1	N	10	0	262	0		0	0	216.933178699808	217.033136699814
50520.5	0.099968200083822	624	hunger	stimuli/foods\cinnamon.jpg	1	5	1	cinnamon	1	M	9	0	30	0		0	0	217.083166099852	217.183134299936
50558	0.0999864998739213	625	hunger	stimuli/foods\fruit_flan.jpg	1	5	1	fruit_flan	1	Z	18	0	53	0		0	0	217.233145199949	217.333131699823
50595.5	0.0999884000048041	626	hunger	stimuli/foods\fruit_salad.jpg	1	5	1	fruit_salad	1	M	9	0	55	0		0	0	217.383146299981	217.483134699985
50633	0.0999851999804378	627	hunger	stimuli/non_foods\non-food_inanimate_moss.jpg	1	5	1	non-food_inanimate_moss	0	Z	18	0	194	0		0	0	217.533143599983	217.633128799964
50670.5	0.0999869999941438	628	hunger	stimuli/foods\lasagna.jpg	1	5	1	lasagna	1	J	6	0	71	0		0	0	217.683140199864	217.783127199858
50708	0.099984799977392	629	hunger	stimuli/foods\strawberry.jpg	1	5	1	strawberry	1	G	4	0	272	0		0	0	217.833143699914	217.933128499892
50745.5	0.0999942999333143	630	hunger	stimuli/non_foods\non-food_animate_young_boy.jpg	1	5	1	non-food_animate_young_boy	0	J	6	0	156	0		0	0	217.983139599906	218.08313389984
50783	0.0999737000092864	631	hunger	stimuli/non_foods\non-food_animate_alligator.jpg	1	5	1	non-food_animate_alligator	0	Z	18	0	90	0		0	0	218.133149399888	218.233123099897
50820.5	0.0999849000945687	632	hunger	stimuli/non_foods\non-food_animate_dragonfly.jpg	1	5	1	non-food_animate_dragonfly	0	J	6	0	108	0		0	0	218.283135099802	218.383119999897
50858	0.0999980999622494	633	hunger	stimuli/non_foods\non-food_inanimate_stoplight.jpg	1	5	1	non-food_inanimate_stoplight	0	A	19	1	214	0		0	0	218.43313349993	218.533131599892
50895.5	0.099986300105229	634	hunger	stimuli/non_foods\non-food_inanimate_wrench.jpg	1	5	1	non-food_inanimate_wrench	0	P	11	0	227	0		0	0	218.583137099864	218.683123399969
50933	0.0999468001537025	635	hunger	stimuli/non_foods\non-food_animate_ram.jpg	1	5	1	non-food_animate_ram	0	D	2	0	140	0		0	0	218.73317809985	218.833124900004
50970.5	0.0999686000868678	636	hunger	stimuli/foods\pea_pod.jpg	1	5	1	pea_pod	1	G	4	0	237	1	a	0.541835699928924	1	218.883141199825	218.983109799912
51008	0.0999821000732481	637	hunger	stimuli/foods\risotto_with_zucchini.jpg	1	5	1	risotto_with_zucchini	1	J	6	0	260	0		0	0	219.033121699933	219.133103800006
51045.5	0.0999724001158029	638	hunger	stimuli/non_foods\non-food_animate_cheetah.jpg	1	5	1	non-food_animate_cheetah	0	G	4	0	100	0		0	0	219.183120899834	219.28309329995
51083	0.0999833999667317	639	hunger	stimuli/non_foods\non-food_animate_camel.jpg	1	5	1	non-food_animate_camel	0	M	9	0	97	0		0	0	219.333119499963	219.43310289993
51120.5	0.0999857999850065	640	hunger	stimuli/foods\cooked_prawn.jpg	1	5	1	cooked_prawn	1	X	17	0	36	0		0	0	219.483116199961	219.583101999946
51158	0.099982799962163	641	hunger	stimuli/non_foods\non-food_inanimate_protractor.jpg	1	5	1	non-food_inanimate_protractor	0	R	12	0	201	0		0	0	219.633126199944	219.733108999906
51195.5	0.0999875001143664	642	hunger	stimuli/non_foods\non-food_inanimate_sun_flower.jpg	1	5	1	non-food_inanimate_sun_flower	0	G	4	0	216	0		0	0	219.783120199805	219.883107699919
51233	0.0999861001037061	643	hunger	stimuli/non_foods\non-food_inanimate_orchid.jpg	1	5	1	non-food_inanimate_orchid	0	V	15	0	198	0		0	0	219.933121099835	220.033107199939
51270.5	0.0999882998876274	644	hunger	stimuli/non_foods\non-food_animate_woman.jpg	1	5	1	non-food_animate_woman	0	X	17	0	154	0		0	0	220.08311649994	220.183104799828
51308	0.099986599991098	645	hunger	stimuli/non_foods\non-food_inanimate_socks.jpg	1	5	1	non-food_inanimate_socks	0	P	11	0	211	0		0	0	220.233113999944	220.333100599935
51345.5	0.0999819000717252	646	hunger	stimuli/foods\lentils.jpg	1	5	1	lentils	1	W	16	0	74	0		0	0	220.383116399869	220.483098299941
