onset	duration	eventnumber	hunger_condition	stimfilename	blockno	trialno	is_faststream	stim	food_idx	letter	letter_idx	istarget	image_number	response	keypressed	rt	correct	time_stimon	time_stimoff
45621.25	0.0999606000259519	0	hunger	stimuli/non_foods\non-food_animate_kangaroo.jpg	1	1	1	non-food_animate_kangaroo	0	N	10	0	122	0		0	0	34.2879719999619	34.3879325999878
45658.75	0.100013600196689	1	hunger	stimuli/foods\donut.jpg	1	1	1	donut	1	J	6	0	44	0		0	0	34.4379678000696	34.5379814002663
45696.25	0.0999881001189351	2	hunger	stimuli/non_foods\non-food_animate_frog.jpg	1	1	1	non-food_animate_frog	0	S	13	0	113	0		0	0	34.5879430002533	34.6879311003722
45733.75	0.0999896000139415	3	hunger	stimuli/foods\watermelon.jpg	1	1	1	watermelon	1	B	0	0	279	0		0	0	34.7379527003504	34.8379423003644
45771.25	0.100006100255996	4	hunger	stimuli/non_foods\non-food_inanimate_clover.jpg	1	1	1	non-food_inanimate_clover	0	S	13	0	174	0		0	0	34.887923500035	34.987929600291
45808.75	0.0999857001006603	5	hunger	stimuli/foods\spaghetti_with_meat_sauce.jpg	1	1	1	spaghetti_with_meat_sauce	1	R	12	0	267	0		0	0	35.037944199983	35.1379299000837
45846.25	0.100013600196689	6	hunger	stimuli/non_foods\non-food_animate_mammoth.jpg	1	1	1	non-food_animate_mammoth	0	F	3	0	128	0		0	0	35.187953799963	35.2879674001597
45883.75	0.0999645004048944	7	hunger	stimuli/non_foods\non-food_animate_camel.jpg	1	1	1	non-food_animate_camel	0	Z	18	0	97	0		0	0	35.3379609999247	35.4379255003296
45921.25	0.0999738001264632	8	hunger	stimuli/non_foods\non-food_inanimate_sun_flower.jpg	1	1	1	non-food_inanimate_sun_flower	0	D	2	0	216	0		0	0	35.4879501000978	35.5879239002243
45958.75	0.0999584002420306	9	hunger	stimuli/foods\mushroom.jpg	1	1	1	mushroom	1	F	3	0	85	0		0	0	35.6379376999103	35.7378961001523
45996.25	0.0999834001995623	10	hunger	stimuli/non_foods\non-food_inanimate_short_sleeved_shirt.jpg	1	1	1	non-food_inanimate_short_sleeved_shirt	0	D	2	0	207	0		0	0	35.7879264000803	35.8879098002799
46033.75	0.0999716999940574	11	hunger	stimuli/foods\croissant.jpg	1	1	1	croissant	1	G	4	0	40	0		0	0	35.9379370003007	36.0379087002948
46071.25	0.0999867003411055	12	hunger	stimuli/foods\capsicum.jpg	1	1	1	capsicum	1	C	1	0	18	0		0	0	36.0879208999686	36.1879076003097
46108.75	0.0997409000992775	13	hunger	stimuli/non_foods\non-food_animate_cat.jpg	1	1	1	non-food_animate_cat	0	V	15	0	98	0		0	0	36.2381532001309	36.3378941002302
46146.25	0.0999795999377966	14	hunger	stimuli/foods\cream_donuts.jpg	1	1	1	cream_donuts	1	G	4	0	39	0		0	0	36.3879221002571	36.4879017001949
46183.75	0.0999926002696157	15	hunger	stimuli/foods\cooked_ham.jpg	1	1	1	cooked_ham	1	P	11	0	35	0		0	0	36.537914799992	36.6379074002616
46221.25	0.0999858998693526	16	hunger	stimuli/non_foods\non-food_inanimate_leaf.jpg	1	1	1	non-food_inanimate_leaf	0	V	15	0	192	0		0	0	36.6879178001545	36.7879037000239
46258.75	0.0999842998571694	17	hunger	stimuli/foods\cherry.jpg	1	1	1	cherry	1	M	9	0	23	0		0	0	36.8379113003612	36.9378956002183
46296.25	0.100000100210309	18	hunger	stimuli/non_foods\non-food_animate_bat.jpg	1	1	1	non-food_animate_bat	0	P	11	0	94	0		0	0	36.9879314000718	37.0879315002821
46333.75	0.0999731998890638	19	hunger	stimuli/non_foods\non-food_animate_horse.jpg	1	1	1	non-food_animate_horse	0	V	15	0	119	0		0	0	37.1379275000654	37.2379006999545
46371.25	0.0999821997247636	20	hunger	stimuli/non_foods\non-food_animate_clown.jpg	1	1	1	non-food_animate_clown	0	X	17	0	102	0		0	0	37.2879154002294	37.3878975999542
46408.75	0.0999690000899136	21	hunger	stimuli/non_foods\non-food_inanimate_desk.jpg	1	1	1	non-food_inanimate_desk	0	P	11	0	178	0		0	0	37.4379174001515	37.5378864002414
46446.25	0.0999948997050524	22	hunger	stimuli/non_foods\non-food_inanimate_nailpolish.jpg	1	1	1	non-food_inanimate_nailpolish	0	J	6	0	195	0		0	0	37.5878997002728	37.6878945999779
46483.75	0.0999969001859426	23	hunger	stimuli/foods\meatballs.jpg	1	1	1	meatballs	1	H	5	0	81	0		0	0	37.7378994999453	37.8378964001313
46521.25	0.0999902999028563	24	hunger	stimuli/non_foods\non-food_inanimate_toy_airplane.jpg	1	1	1	non-food_inanimate_toy_airplane	0	V	15	0	222	0		0	0	37.8879047003575	37.9878950002603
46558.75	0.100015999749303	25	hunger	stimuli/foods\coffee_beans.jpg	1	1	1	coffee_beans	1	M	9	0	34	0		0	0	38.0379074001685	38.1379233999178
46596.25	0.0999834998510778	26	hunger	stimuli/non_foods\non-food_animate_eagle.jpg	1	1	1	non-food_animate_eagle	0	H	5	0	110	0		0	0	38.1879064003006	38.2878899001516
46633.75	0.0999875999987125	27	hunger	stimuli/foods\waffle.jpg	1	1	1	waffle	1	L	8	0	278	0		0	0	38.3378972001374	38.4378848001361
46671.25	0.0999608002603054	28	hunger	stimuli/foods\red_cabbage.jpg	1	1	1	red_cabbage	1	G	4	0	256	0		0	0	38.4879129999317	38.587873800192
46708.75	0.0999882002361119	29	hunger	stimuli/foods\cabbage.jpg	1	1	1	cabbage	1	V	15	0	16	0		0	0	38.6378957000561	38.7378839002922
46746.25	0.100033900234848	30	hunger	stimuli/foods\almonds.jpg	1	1	1	almonds	1	R	12	0	0	0		0	0	38.7878978000954	38.8879317003302
46783.75	0.100002100225538	31	hunger	stimuli/foods\frankfurter_and_provolone_salad.jpg	1	1	1	frankfurter_and_provolone_salad	1	P	11	0	49	0		0	0	38.9378708000295	39.037872900255
46821.25	0.0999917001463473	32	hunger	stimuli/foods\grapefruits.jpg	1	1	1	grapefruits	1	F	3	0	59	0		0	0	39.0878775999881	39.1878693001345
46858.75	0.0999791999347508	33	hunger	stimuli/non_foods\non-food_inanimate_scissors.jpg	1	1	1	non-food_inanimate_scissors	0	U	23	1	205	0		0	0	39.2378874002025	39.3378666001372
46896.25	0.099985099863261	34	hunger	stimuli/non_foods\non-food_animate_seahorse.jpg	1	1	1	non-food_animate_seahorse	0	C	1	0	145	0		0	0	39.387871700339	39.4878568002023
46933.75	0.0999837997369468	35	hunger	stimuli/non_foods\non-food_animate_llama.jpg	1	1	1	non-food_animate_llama	0	F	3	0	127	0		0	0	39.5378856002353	39.6378693999723
46971.25	0.099982799962163	36	hunger	stimuli/non_foods\non-food_animate_skunk.jpg	1	1	1	non-food_animate_skunk	0	D	2	0	147	0		0	0	39.6878845002502	39.7878673002124
47008.75	0.0999821000732481	37	hunger	stimuli/foods\risotto_with_zucchini.jpg	1	1	1	risotto_with_zucchini	1	G	4	0	260	0		0	0	39.8378842999227	39.937866399996
47046.25	0.0999829000793397	38	hunger	stimuli/foods\apricot.jpg	1	1	1	apricot	1	X	17	0	2	0		0	0	39.9878829000518	40.0878658001311
47083.75	0.0999854998663068	39	hunger	stimuli/non_foods\non-food_animate_polar_bear.jpg	1	1	1	non-food_animate_polar_bear	0	L	8	0	137	0		0	0	40.1378798000515	40.2378652999178
47121.25	0.0999877001158893	40	hunger	stimuli/non_foods\non-food_inanimate_canoe.jpg	1	1	1	non-food_inanimate_canoe	0	P	11	0	170	0		0	0	40.2878736001439	40.3878613002598
47158.75	0.0999863003380597	41	hunger	stimuli/foods\hazelnuts.jpg	1	1	1	hazelnuts	1	K	7	0	65	0		0	0	40.4378742999397	40.5378606002778
47196.25	0.100016799755394	42	hunger	stimuli/foods\red_beans.jpg	1	1	1	red_beans	1	C	1	0	255	0		0	0	40.5878636003472	40.6878804001026
47233.75	0.0999647001735866	43	hunger	stimuli/non_foods\non-food_inanimate_suitcase.jpg	1	1	1	non-food_inanimate_suitcase	0	F	3	0	215	0		0	0	40.7378895999864	40.83785430016
47271.25	0.0999837997369468	44	hunger	stimuli/non_foods\non-food_animate_parrot.jpg	1	1	1	non-food_animate_parrot	0	S	13	0	133	0		0	0	40.8878696002066	40.9878533999436
47308.75	0.0999782998114824	45	hunger	stimuli/foods\ice_cream.jpg	1	1	1	ice_cream	1	R	12	0	68	0		0	0	41.0378657002002	41.1378440000117
47346.25	0.0999652002938092	46	hunger	stimuli/non_foods\non-food_animate_runner.jpg	1	1	1	non-food_animate_runner	0	F	3	0	142	0		0	0	41.1878593000583	41.2878245003521
47383.75	0.0999950999394059	47	hunger	stimuli/non_foods\non-food_inanimate_chair.jpg	1	1	1	non-food_inanimate_chair	0	Z	18	0	172	0		0	0	41.3378552002832	41.4378503002226
47421.25	0.0999846998602152	48	hunger	stimuli/non_foods\non-food_inanimate_gloves.jpg	1	1	1	non-food_inanimate_gloves	0	K	7	0	183	0		0	0	41.4878549003042	41.5878396001644
47458.75	0.0999882002361119	49	hunger	stimuli/foods\mandarin.jpg	1	1	1	mandarin	1	M	9	0	79	0		0	0	41.6378504000604	41.7378386002965
47496.25	0.099974200129509	50	hunger	stimuli/foods\peas.jpg	1	1	1	peas	1	K	7	0	240	0		0	0	41.7878594999202	41.8878337000497
47533.75	0.0999751999042928	51	hunger	stimuli/foods\chilli.jpg	1	1	1	chilli	1	R	12	0	25	0		0	0	41.9378697001375	42.0378449000418
47571.25	0.0999453999102116	52	hunger	stimuli/non_foods\non-food_animate_yellow_bug.jpg	1	1	1	non-food_animate_yellow_bug	0	J	6	0	155	0		0	0	42.0878677000292	42.1878130999394
47608.75	0.100008300039917	53	hunger	stimuli/non_foods\non-food_animate_slug.jpg	1	1	1	non-food_animate_slug	0	T	14	0	148	0		0	0	42.2378535000607	42.3378618001007
47646.25	0.0999322002753615	54	hunger	stimuli/foods\egg.jpg	1	1	1	egg	1	N	10	0	45	0		0	0	42.3878766000271	42.4878088003024
47683.75	0.0999610996805131	55	hunger	stimuli/foods\onion.jpg	1	1	1	onion	1	G	4	0	229	0		0	0	42.5378726003692	42.6378337000497
47721.25	0.10000570025295	56	hunger	stimuli/foods\pasta_carbonara.jpg	1	1	1	pasta_carbonara	1	N	10	0	236	0		0	0	42.6878245999105	42.7878303001635
47758.75	0.0999843999743462	57	hunger	stimuli/non_foods\non-food_animate_young_boy.jpg	1	1	1	non-food_animate_young_boy	0	B	0	0	156	0		0	0	42.8378417999484	42.9378261999227
47796.25	0.0999842002056539	58	hunger	stimuli/foods\grilled_chicken_breast.jpg	1	1	1	grilled_chicken_breast	1	T	14	0	63	0		0	0	42.9878446999937	43.0878289001994
47833.75	0.0999850002117455	59	hunger	stimuli/foods\omelette.jpg	1	1	1	omelette	1	R	12	0	228	0		0	0	43.1378407999873	43.2378258001991
47871.25	0.0999757000245154	60	hunger	stimuli/non_foods\non-food_animate_giraffe.jpg	1	1	1	non-food_animate_giraffe	0	M	9	0	115	0		0	0	43.2878467999399	43.3878224999644
47908.75	0.0999878002330661	61	hunger	stimuli/non_foods\non-food_inanimate_cactus_pot_plant.jpg	1	1	1	non-food_inanimate_cactus_pot_plant	0	V	15	0	169	0		0	0	43.437835900113	43.5378237003461
47946.25	0.0999846998602152	62	hunger	stimuli/foods\potatoes.jpg	1	1	1	potatoes	1	J	6	0	248	0		0	0	43.5878328001127	43.6878174999729
47983.75	0.0999867999926209	63	hunger	stimuli/non_foods\non-food_animate_monkey.jpg	1	1	1	non-food_animate_monkey	0	H	5	0	130	0		0	0	43.7378318002447	43.8378186002374
48021.25	0.100007600151002	64	hunger	stimuli/non_foods\non-food_inanimate_protractor.jpg	1	1	1	non-food_inanimate_protractor	0	M	9	0	201	0		0	0	43.8878167001531	43.9878243003041
48058.75	0.100022399798036	65	hunger	stimuli/foods\cereal.jpg	1	1	1	cereal	1	F	3	0	22	0		0	0	44.0378009001724	44.1378232999705
48096.25	0.0999650000594556	66	hunger	stimuli/foods\chocolate_bar.jpg	1	1	1	chocolate_bar	1	G	4	0	26	0		0	0	44.1878415001556	44.2878065002151
48133.75	0.0999839999713004	67	hunger	stimuli/foods\chocolate_pralines.jpg	1	1	1	chocolate_pralines	1	B	0	0	28	0		0	0	44.3378167999908	44.4378007999621
48171.25	0.0999958999454975	68	hunger	stimuli/non_foods\non-food_inanimate_fire_extinguisher.jpg	1	1	1	non-food_inanimate_fire_extinguisher	0	G	4	0	181	0		0	0	44.4878150001168	44.5878109000623
48208.75	0.0999867999926209	69	hunger	stimuli/foods\mussels.jpg	1	1	1	mussels	1	J	6	0	86	0		0	0	44.6378206000663	44.737807400059
48246.25	0.0999838998541236	70	hunger	stimuli/non_foods\non-food_animate_german_shepherd.jpg	1	1	1	non-food_animate_german_shepherd	0	H	5	0	114	0		0	0	44.7878122003749	44.887796100229
48283.75	0.0999890002422035	71	hunger	stimuli/non_foods\non-food_animate_student_female.jpg	1	1	1	non-food_animate_student_female	0	B	0	0	151	0		0	0	44.9378045001067	45.0377935003489
48321.25	0.0999777000397444	72	hunger	stimuli/non_foods\non-food_inanimate_couch.jpg	1	1	1	non-food_inanimate_couch	0	L	8	0	176	0		0	0	45.0878155003302	45.1877932003699
48358.75	0.0999963004142046	73	hunger	stimuli/non_foods\non-food_inanimate_table.jpg	1	1	1	non-food_inanimate_table	0	X	17	0	217	0		0	0	45.2378044999205	45.3378008003347
48396.25	0.0999809000641108	74	hunger	stimuli/foods\eggplant.jpg	1	1	1	eggplant	1	K	7	0	46	0		0	0	45.3878051000647	45.4877860001288
48433.75	0.0999855999834836	75	hunger	stimuli/non_foods\non-food_inanimate_skateboard.jpg	1	1	1	non-food_inanimate_skateboard	0	B	0	0	208	0		0	0	45.5378012000583	45.6377868000418
48471.25	0.0999914002604783	76	hunger	stimuli/non_foods\non-food_inanimate_watering_can.jpg	1	1	1	non-food_inanimate_watering_can	0	J	6	0	225	0		0	0	45.6878041001037	45.7877955003642
48508.75	0.0999993998557329	77	hunger	stimuli/non_foods\non-food_animate_rhino.jpg	1	1	1	non-food_animate_rhino	0	V	15	0	141	0		0	0	45.837806600146	45.9378060000017
48546.25	0.0999759002588689	78	hunger	stimuli/non_foods\non-food_animate_dragonfly.jpg	1	1	1	non-food_animate_dragonfly	0	K	7	0	108	0		0	0	45.9878293001093	46.0878052003682
48583.75	0.0999862998723984	79	hunger	stimuli/non_foods\non-food_inanimate_bamboo.jpg	1	1	1	non-food_inanimate_bamboo	0	W	16	0	159	0		0	0	46.1378048001789	46.2377911000513
48621.25	0.100011699832976	80	hunger	stimuli/foods\peach.jpg	1	1	1	peach	1	D	2	0	238	0		0	0	46.2877751002088	46.3877868000418
48658.75	0.0999920000322163	81	hunger	stimuli/non_foods\non-food_animate_raccoon.jpg	1	1	1	non-food_animate_raccoon	0	Z	18	0	139	0		0	0	46.4378017000854	46.5377937001176
48696.25	0.100004400126636	82	hunger	stimuli/foods\pineapple.jpg	1	1	1	pineapple	1	T	14	0	243	0		0	0	46.5877685002051	46.6877729003318
48733.75	0.0999855999834836	83	hunger	stimuli/non_foods\non-food_animate_butterfly.jpg	1	1	1	non-food_animate_butterfly	0	Z	18	0	96	0		0	0	46.7377848001197	46.8377704001032
48771.25	0.0999882998876274	84	hunger	stimuli/non_foods\non-food_animate_dachshund.jpg	1	1	1	non-food_animate_dachshund	0	K	7	0	104	0		0	0	46.8877928000875	46.9877810999751
48808.75	0.0999739002436399	85	hunger	stimuli/non_foods\non-food_inanimate_pine_cone.jpg	1	1	1	non-food_inanimate_pine_cone	0	T	14	0	200	0		0	0	47.0377907999791	47.1377647002228
48846.25	0.0999896000139415	86	hunger	stimuli/foods\swordfish.jpg	1	1	1	swordfish	1	V	15	0	273	0		0	0	47.1877838000655	47.2877734000795
48883.75	0.0999893001280725	87	hunger	stimuli/foods\fries.jpg	1	1	1	fries	1	Z	18	0	52	0		0	0	47.3377767000347	47.4377660001628
48921.25	0.0999854002147913	88	hunger	stimuli/foods\broccoli.jpg	1	1	1	broccoli	1	F	3	0	13	0		0	0	47.4877738999203	47.5877593001351
48958.75	0.0999521003104746	89	hunger	stimuli/non_foods\non-food_animate_dolphin.jpg	1	1	1	non-food_animate_dolphin	0	V	15	0	106	0		0	0	47.6377930999734	47.7377452002838
48996.25	0.0999603001400828	90	hunger	stimuli/foods\bagel.jpg	1	1	1	bagel	1	R	12	0	6	0		0	0	47.7877976000309	47.887757900171
49033.75	0.0999960000626743	91	hunger	stimuli/foods\lime.jpg	1	1	1	lime	1	J	6	0	76	0		0	0	47.9377709999681	48.0377670000307
49071.25	0.0999880000017583	92	hunger	stimuli/foods\oregano.jpg	1	1	1	oregano	1	B	0	0	231	0		0	0	48.0877641001716	48.1877521001734
49108.75	0.0999880000017583	93	hunger	stimuli/non_foods\non-food_animate_snail.jpg	1	1	1	non-food_animate_snail	0	P	11	0	149	0		0	0	48.2377659999765	48.3377539999783
49146.25	0.0999759999103844	94	hunger	stimuli/foods\lollies.jpg	1	1	1	lollies	1	D	2	0	78	0		0	0	48.3877746001817	48.4877506000921
49183.75	0.0999846002086997	95	hunger	stimuli/foods\celery.jpg	1	1	1	celery	1	K	7	0	21	0		0	0	48.5377651001327	48.6377497003414
49221.25	0.0999874998815358	96	hunger	stimuli/non_foods\non-food_animate_cheetah.jpg	1	1	1	non-food_animate_cheetah	0	F	3	0	100	0		0	0	48.6877616001293	48.7877491000108
49258.75	0.0999824996106327	97	hunger	stimuli/foods\oyster.jpg	1	1	1	oyster	1	C	1	0	233	0		0	0	48.8377591003664	48.937741599977
49296.25	0.0999964997172356	98	hunger	stimuli/foods\wafer.jpg	1	1	1	wafer	1	R	12	0	277	0		0	0	48.9877568003722	49.0877533000894
49333.75	0.0999646000564098	99	hunger	stimuli/foods\tomato.jpg	1	1	1	tomato	1	X	17	0	276	0		0	0	49.1377741000615	49.2377387001179
49371.25	0.0999826001934707	100	hunger	stimuli/non_foods\non-food_inanimate_nest.jpg	1	1	1	non-food_inanimate_nest	0	V	15	0	196	0		0	0	49.2877555000596	49.387738100253
49408.75	0.0999495997093618	101	hunger	stimuli/non_foods\non-food_animate_tortoise.jpg	1	1	1	non-food_animate_tortoise	0	N	10	0	153	0		0	0	49.4377609002404	49.5377104999498
49446.25	0.0999660999514163	102	hunger	stimuli/foods\brie.jpg	1	1	1	brie	1	V	15	0	12	0		0	0	49.5877737002447	49.6877398001961
49483.75	0.0999998999759555	103	hunger	stimuli/foods\museli_bars.jpg	1	1	1	museli_bars	1	K	7	0	84	0		0	0	49.7377541000023	49.8377539999783
49521.25	0.0999842002056539	104	hunger	stimuli/foods\fruit_pie.jpg	1	1	1	fruit_pie	1	V	15	0	54	0		0	0	49.8877522000112	49.9877364002168
49558.75	0.0999906999059021	105	hunger	stimuli/non_foods\non-food_inanimate_stoplight.jpg	1	1	1	non-food_inanimate_stoplight	0	S	13	0	214	0		0	0	50.0377478003502	50.1377385002561
49596.25	0.0999797000549734	106	hunger	stimuli/non_foods\non-food_animate_cow.jpg	1	1	1	non-food_animate_cow	0	J	6	0	103	0		0	0	50.1877550999634	50.2877348000184
49633.75	0.0999851999804378	107	hunger	stimuli/foods\stew_with_potatoes_and_carrots.jpg	1	1	1	stew_with_potatoes_and_carrots	1	O	22	1	271	0		0	0	50.3377473000437	50.4377325000241
49671.25	0.0999968000687659	108	hunger	stimuli/non_foods\non-food_animate_ram.jpg	1	1	1	non-food_animate_ram	0	W	16	0	140	0		0	0	50.4877468999475	50.5877437000163
49708.75	0.099972799886018	109	hunger	stimuli/non_foods\non-food_animate_killer_whale.jpg	1	1	1	non-food_animate_killer_whale	0	X	17	0	123	0		0	0	50.6377537003718	50.7377265002578
49746.25	0.0999858998693526	110	hunger	stimuli/foods\gnocchi.jpg	1	1	1	gnocchi	1	T	14	0	58	1	a	0.55017640022561	1	50.7877437002026	50.8877296000719
49783.75	0.0999731998890638	111	hunger	stimuli/non_foods\non-food_inanimate_speakers.jpg	1	1	1	non-food_inanimate_speakers	0	V	15	0	212	0		0	0	50.9377549001947	51.0377281000838
49821.25	0.0999867003411055	112	hunger	stimuli/non_foods\non-food_inanimate_soccer_ball.jpg	1	1	1	non-food_inanimate_soccer_ball	0	L	8	0	210	0		0	0	51.0877348999493	51.1877216002904
49858.75	0.100038299802691	113	hunger	stimuli/non_foods\non-food_animate_deer.jpg	1	1	1	non-food_animate_deer	0	N	10	0	105	0		0	0	51.2377459001727	51.3377841999754
49896.25	0.0999905997887254	114	hunger	stimuli/non_foods\non-food_inanimate_padlock.jpg	1	1	1	non-food_inanimate_padlock	0	V	15	0	199	0		0	0	51.387727400288	51.4877180000767
49933.75	0.0999878002330661	115	hunger	stimuli/foods\prawn.jpg	1	1	1	prawn	1	S	13	0	249	0		0	0	51.537731999997	51.6377198002301
49971.25	0.0999920000322163	116	hunger	stimuli/non_foods\non-food_inanimate_buds.jpg	1	1	1	non-food_inanimate_buds	0	K	7	0	166	0		0	0	51.6877248999663	51.7877168999985
50008.75	0.0999849997460842	117	hunger	stimuli/foods\linguine_with_clams.jpg	1	1	1	linguine_with_clams	1	S	13	0	77	0		0	0	51.8377276002429	51.937712599989
50046.25	0.0999889001250267	118	hunger	stimuli/foods\cauliflower.jpg	1	1	1	cauliflower	1	M	9	0	20	0		0	0	51.9877248001285	52.0877137002535
50083.75	0.0999865001067519	119	hunger	stimuli/non_foods\non-food_animate_hummingbird.jpg	1	1	1	non-food_animate_hummingbird	0	J	6	0	120	0		0	0	52.1377228000201	52.2377093001269
50121.25	0.0999834001995623	120	hunger	stimuli/foods\rice.jpg	1	1	1	rice	1	B	0	0	257	0		0	0	52.2877229000442	52.3877063002437
50158.75	0.0999744003638625	121	hunger	stimuli/foods\pomegranate.jpg	1	1	1	pomegranate	1	F	3	0	244	0		0	0	52.4377343999222	52.5377088002861
50196.25	0.0999855003319681	122	hunger	stimuli/non_foods\non-food_animate_lion.jpg	1	1	1	non-food_animate_lion	0	N	10	0	125	0		0	0	52.5877181999385	52.6877037002705
50233.75	0.0999857001006603	123	hunger	stimuli/foods\rice_cake.jpg	1	1	1	rice_cake	1	K	7	0	258	0		0	0	52.7377186999656	52.8377044000663
50271.25	0.0999837997369468	124	hunger	stimuli/non_foods\non-food_inanimate_cap.jpg	1	1	1	non-food_inanimate_cap	0	J	6	0	171	0		0	0	52.8877151003107	52.9876989000477
50308.75	0.0999990003183484	125	hunger	stimuli/non_foods\non-food_animate_grasshopper.jpg	1	1	1	non-food_animate_grasshopper	0	B	0	0	117	0		0	0	53.0377235999331	53.1377226002514
50346.25	0.0999444997869432	126	hunger	stimuli/non_foods\non-food_animate_porcupine.jpg	1	1	1	non-food_animate_porcupine	0	T	14	0	138	0		0	0	53.1877522002906	53.2876967000775
50383.75	0.0999854998663068	127	hunger	stimuli/non_foods\non-food_inanimate_hay.jpg	1	1	1	non-food_inanimate_hay	0	P	11	0	187	0		0	0	53.3377081002109	53.4376936000772
50421.25	0.0999861001037061	128	hunger	stimuli/foods\lasagna.jpg	1	1	1	lasagna	1	T	14	0	71	0		0	0	53.4877057000995	53.5876918002032
50458.75	0.0999870002269745	129	hunger	stimuli/foods\cracker.jpg	1	1	1	cracker	1	Z	18	0	38	0		0	0	53.6377049000002	53.7376919002272
50496.25	0.0999929998070002	130	hunger	stimuli/non_foods\non-food_inanimate_construction_helment.jpg	1	1	1	non-food_inanimate_construction_helment	0	R	12	0	175	0		0	0	53.7877037003636	53.8876967001706
50533.75	0.0999850002117455	131	hunger	stimuli/foods\honey.jpg	1	1	1	honey	1	M	9	0	66	0		0	0	53.9377020001411	54.0376870003529
50571.25	0.0999694997444749	132	hunger	stimuli/foods\corncob.jpg	1	1	1	corncob	1	S	13	0	37	0		0	0	54.0877149002627	54.1876844000071
50608.75	0.0999877001158893	133	hunger	stimuli/non_foods\non-food_animate_duck.jpg	1	1	1	non-food_animate_duck	0	W	16	0	109	0		0	0	54.2376959002577	54.3376836003736
50646.25	0.0999889001250267	134	hunger	stimuli/foods\kiwi.jpg	1	1	1	kiwi	1	K	7	0	69	0		0	0	54.3876947001554	54.4876836002804
50683.75	0.0999965998344123	135	hunger	stimuli/foods\brownie.jpg	1	1	1	brownie	1	M	9	0	14	0		0	0	54.5376917002723	54.6376883001067
50721.25	0.09998709987849	136	hunger	stimuli/non_foods\non-food_inanimate_jeans.jpg	1	1	1	non-food_inanimate_jeans	0	R	12	0	191	0		0	0	54.6876958003268	54.7876829002053
50758.75	0.0999881997704506	137	hunger	stimuli/non_foods\non-food_animate_elephant.jpg	1	1	1	non-food_animate_elephant	0	W	16	0	111	0		0	0	54.8377057001926	54.9376938999631
50796.25	0.0999795999377966	138	hunger	stimuli/foods\green_olives.jpg	1	1	1	green_olives	1	F	3	0	62	0		0	0	54.9876969000325	55.0876764999703
50833.75	0.0999838998541236	139	hunger	stimuli/foods\raw_ham.jpg	1	1	1	raw_ham	1	X	17	0	253	0		0	0	55.1376868002117	55.2376707000658
51842	0.0999783002771437	140	hunger	stimuli/non_foods\non-food_animate_ant.jpg	1	2	1	non-food_animate_ant	0	T	14	0	91	0		0	0	59.1709737000056	59.2709520002827
51879.5	0.099993399810046	141	hunger	stimuli/non_foods\non-food_inanimate_grass.jpg	1	2	1	non-food_inanimate_grass	0	M	9	0	184	0		0	0	59.3209677003324	59.4209611001424
51917	0.0999921001493931	142	hunger	stimuli/foods\pear.jpg	1	2	1	pear	1	K	7	0	239	0		0	0	59.4709636000916	59.570955700241
51954.5	0.0999837000854313	143	hunger	stimuli/non_foods\non-food_inanimate_teddy_bear.jpg	1	2	1	non-food_inanimate_teddy_bear	0	M	9	0	218	0		0	0	59.6209627999924	59.7209465000778
51992	0.099968200083822	144	hunger	stimuli/foods\apple.jpg	1	2	1	apple	1	N	10	0	1	0		0	0	59.7709754002281	59.8709436003119
52029.5	0.100010400172323	145	hunger	stimuli/foods\blackberry.jpg	1	2	1	blackberry	1	C	1	0	11	0		0	0	59.920958200004	60.0209686001763
52067	0.0999412001110613	146	hunger	stimuli/foods\pumpkin.jpg	1	2	1	pumpkin	1	J	6	0	250	0		0	0	60.0710024000145	60.1709436001256
52104.5	0.0999858002178371	147	hunger	stimuli/non_foods\non-food_animate_millipede.jpg	1	2	1	non-food_animate_millipede	0	W	16	0	129	0		0	0	60.2209558999166	60.3209417001344
52142	0.0999961001798511	148	hunger	stimuli/foods\lentils.jpg	1	2	1	lentils	1	D	2	0	74	0		0	0	60.3709537000395	60.4709498002194
52179.5	0.0999838002026081	149	hunger	stimuli/foods\pickles.jpg	1	2	1	pickles	1	K	7	0	242	0		0	0	60.5209552999586	60.6209391001612
52217	0.0999853000976145	150	hunger	stimuli/foods\minestrone_soup.jpg	1	2	1	minestrone_soup	1	H	5	0	82	0		0	0	60.6709475000389	60.7709328001365
52254.5	0.0999818001873791	151	hunger	stimuli/non_foods\non-food_inanimate_alarm_clock.jpg	1	2	1	non-food_inanimate_alarm_clock	0	K	7	0	158	0		0	0	60.8209488000721	60.9209306002595
52292	0.0999851999804378	152	hunger	stimuli/foods\artichoke.jpg	1	2	1	artichoke	1	M	9	0	3	0		0	0	60.9709445000626	61.0709297000431
52329.5	0.0999790001660585	153	hunger	stimuli/non_foods\non-food_inanimate_briefcase.jpg	1	2	1	non-food_inanimate_briefcase	0	R	12	0	163	0		0	0	61.1209629001096	61.2209419002756
52367	0.0999781996943057	154	hunger	stimuli/foods\potato_and_green_bean_salad.jpg	1	2	1	potato_and_green_bean_salad	1	F	3	0	246	0		0	0	61.2709464002401	61.3709245999344
52404.5	0.0999873001128435	155	hunger	stimuli/foods\papaya.jpg	1	2	1	papaya	1	J	6	0	235	0		0	0	61.4209377001971	61.5209250003099
52442	0.0999692999757826	156	hunger	stimuli/non_foods\non-food_animate_iguana.jpg	1	2	1	non-food_animate_iguana	0	H	5	0	121	0		0	0	61.5709526003338	61.6709219003096
52479.5	0.0999900000169873	157	hunger	stimuli/foods\fried_calamari.jpg	1	2	1	fried_calamari	1	J	6	0	50	0		0	0	61.7209367002361	61.820926700253
52517	0.0999584002420306	158	hunger	stimuli/non_foods\non-food_inanimate_guitar.jpg	1	2	1	non-food_inanimate_guitar	0	F	3	0	185	0		0	0	61.8709724000655	61.9709308003075
52554.5	0.0999933001585305	159	hunger	stimuli/foods\salami.jpg	1	2	1	salami	1	R	12	0	263	0		0	0	62.0209121000953	62.1209054002538
52592	0.0999942999333143	160	hunger	stimuli/non_foods\non-food_animate_peacock.jpg	1	2	1	non-food_animate_peacock	0	F	3	0	134	0		0	0	62.1709233000875	62.2709176000208
52629.5	0.0999741000123322	161	hunger	stimuli/non_foods\non-food_inanimate_tree.jpg	1	2	1	non-food_inanimate_tree	0	D	2	0	223	0		0	0	62.3209395003505	62.4209136003628
52667	0.100006199907511	162	hunger	stimuli/foods\asparagus.jpg	1	2	1	asparagus	1	Z	18	0	4	0		0	0	62.4709006003104	62.5709068002179
52704.5	0.0999869997613132	163	hunger	stimuli/non_foods\non-food_inanimate_socks.jpg	1	2	1	non-food_inanimate_socks	0	S	13	0	211	0		0	0	62.6209174003452	62.7209044001065
52742	0.09998709987849	164	hunger	stimuli/non_foods\non-food_inanimate_folding_chair.jpg	1	2	1	non-food_inanimate_folding_chair	0	W	16	0	182	0		0	0	62.7709154002368	62.8709025001153
52779.5	0.0999671001918614	165	hunger	stimuli/non_foods\non-food_animate_sea_lion.jpg	1	2	1	non-food_animate_sea_lion	0	O	22	1	143	0		0	0	62.9209284000099	63.0208955002017
52817	0.0999649004079401	166	hunger	stimuli/foods\cannoli.jpg	1	2	1	cannoli	1	H	5	0	17	0		0	0	63.0709315999411	63.170896500349
52854.5	0.0999842998571694	167	hunger	stimuli/foods\lemon.jpg	1	2	1	lemon	1	M	9	0	72	0		0	0	63.2209124001674	63.3208967000246
52892	0.0999678000807762	168	hunger	stimuli/non_foods\non-food_animate_baby_crawling.jpg	1	2	1	non-food_animate_baby_crawling	0	B	0	0	92	1	a	0.541950900107622	1	63.3709086002782	63.470876400359
52929.5	0.0999734001234174	169	hunger	stimuli/foods\pepperoni_pizza.jpg	1	2	1	pepperoni_pizza	1	D	2	0	241	0		0	0	63.5209169001319	63.6208903002553
52967	0.100002199877053	170	hunger	stimuli/foods\raisins.jpg	1	2	1	raisins	1	X	17	0	252	0		0	0	63.6709055001847	63.7709077000618
53004.5	0.0999818001873791	171	hunger	stimuli/foods\figs.jpg	1	2	1	figs	1	H	5	0	48	0		0	0	63.8209130000323	63.9208948002197
53042	0.0999889001250267	172	hunger	stimuli/non_foods\non-food_inanimate_bicycle.jpg	1	2	1	non-food_inanimate_bicycle	0	T	14	0	161	0		0	0	63.9709068001248	64.0708957002498
53079.5	0.0999851999804378	173	hunger	stimuli/foods\carrot.jpg	1	2	1	carrot	1	Z	18	0	19	0		0	0	64.1209045001306	64.220889700111
53117	0.0999851999804378	174	hunger	stimuli/non_foods\non-food_inanimate_moss.jpg	1	2	1	non-food_inanimate_moss	0	B	0	0	194	0		0	0	64.2709025000222	64.3708877000026
53154.5	0.0999954999424517	175	hunger	stimuli/non_foods\non-food_animate_gorilla.jpg	1	2	1	non-food_animate_gorilla	0	R	12	0	116	0		0	0	64.4209018000402	64.5208972999826
53192	0.100004499778152	176	hunger	stimuli/foods\toasted_bread_with_tomatoes.jpg	1	2	1	toasted_bread_with_tomatoes	1	J	6	0	275	0		0	0	64.570878200233	64.6708827000111
53229.5	0.0999710997566581	177	hunger	stimuli/foods\strawberry.jpg	1	2	1	strawberry	1	C	1	0	272	0		0	0	64.7209136001766	64.8208846999332
53267	0.0999734001234174	178	hunger	stimuli/foods\orange.jpg	1	2	1	orange	1	H	5	0	230	0		0	0	64.8709072000347	64.9708806001581
53304.5	0.0999839999713004	179	hunger	stimuli/foods\hamburger.jpg	1	2	1	hamburger	1	G	4	0	64	0		0	0	65.0208936999552	65.1208776999265
53342	0.0999910999089479	180	hunger	stimuli/foods\green_beans.jpg	1	2	1	green_beans	1	P	11	0	61	0		0	0	65.1708936002105	65.2708847001195
53379.5	0.100005100015551	181	hunger	stimuli/foods\lettuce.jpg	1	2	1	lettuce	1	C	1	0	75	0		0	0	65.3208957002498	65.4209008002654
53417	0.0999396000988781	182	hunger	stimuli/foods\radish.jpg	1	2	1	radish	1	N	10	0	251	0		0	0	65.4709236002527	65.5708632003516
53454.5	0.0999897997826338	183	hunger	stimuli/non_foods\non-food_animate_seal.jpg	1	2	1	non-food_animate_seal	0	F	3	0	146	0		0	0	65.6208751001395	65.7208648999222
53492	0.0999846998602152	184	hunger	stimuli/foods\steak.jpg	1	2	1	steak	1	R	12	0	270	0		0	0	65.7708784001879	65.8708631000482
53529.5	0.0999849000945687	185	hunger	stimuli/non_foods\non-food_inanimate_rack.jpg	1	2	1	non-food_inanimate_rack	0	L	8	0	202	0		0	0	65.9208762999624	66.020861200057
53567	0.0999832996167243	186	hunger	stimuli/foods\savory_pie.jpg	1	2	1	savory_pie	1	M	9	0	265	0		0	0	66.0708739003167	66.1708571999334
53604.5	0.0999857001006603	187	hunger	stimuli/foods\hotdog.jpg	1	2	1	hotdog	1	W	16	0	67	0		0	0	66.2208650000393	66.32085070014
53642	0.0999920000322163	188	hunger	stimuli/foods\pancakes.jpg	1	2	1	pancakes	1	K	7	0	234	0		0	0	66.370868800208	66.4708608002402
53679.5	0.0999763002619147	189	hunger	stimuli/non_foods\non-food_inanimate_headphones.jpg	1	2	1	non-food_inanimate_headphones	0	T	14	0	188	0		0	0	66.5208823001012	66.6208586003631
53717	0.0999865997582674	190	hunger	stimuli/foods\cucumber.jpg	1	2	1	cucumber	1	H	5	0	41	0		0	0	66.6708726002835	66.7708592000417
53754.5	0.099983099848032	191	hunger	stimuli/non_foods\non-food_inanimate_towel.jpg	1	2	1	non-food_inanimate_towel	0	F	3	0	221	0		0	0	66.8208706001751	66.9208537000231
53792	0.0999908000230789	192	hunger	stimuli/non_foods\non-food_inanimate_horn.jpg	1	2	1	non-food_inanimate_horn	0	H	5	0	190	0		0	0	66.9708708999678	67.0708616999909
53829.5	0.0999818998388946	193	hunger	stimuli/foods\mango.jpg	1	2	1	mango	1	L	8	0	80	0		0	0	67.1208847002126	67.2208666000515
53867	0.0999871999956667	194	hunger	stimuli/foods\fried_zucchini.jpg	1	2	1	fried_zucchini	1	N	10	0	51	0		0	0	67.2708636000752	67.3708508000709
53904.5	0.0999819999560714	195	hunger	stimuli/non_foods\non-food_animate_chicken.jpg	1	2	1	non-food_animate_chicken	0	B	0	0	101	0		0	0	67.4208649001084	67.5208469000645
53942	0.0999880000017583	196	hunger	stimuli/non_foods\non-food_animate_pigeon.jpg	1	2	1	non-food_animate_pigeon	0	N	10	0	136	0		0	0	67.5708588003181	67.6708468003199
53979.5	0.0999969998374581	197	hunger	stimuli/foods\cupcake.jpg	1	2	1	cupcake	1	X	17	0	42	0		0	0	67.7208617003635	67.8208587002009
54017	0.0999857997521758	198	hunger	stimuli/foods\ginger_root.jpg	1	2	1	ginger_root	1	W	16	0	57	0		0	0	67.8708569002338	67.970842699986
54054.5	0.0999900000169873	199	hunger	stimuli/foods\smoked_ham.jpg	1	2	1	smoked_ham	1	B	0	0	266	0		0	0	68.0208527003415	68.1208427003585
54092	0.0999723002314568	200	hunger	stimuli/foods\chestnut.jpg	1	2	1	chestnut	1	L	8	0	24	0		0	0	68.1708685001358	68.2708408003673
54129.5	0.0999922999180853	201	hunger	stimuli/non_foods\non-food_inanimate_broom.jpg	1	2	1	non-food_inanimate_broom	0	B	0	0	164	0		0	0	68.3208425003104	68.4208348002285
54167	0.0999813000671566	202	hunger	stimuli/foods\chocolate_pudding.jpg	1	2	1	chocolate_pudding	1	I	21	1	29	0		0	0	68.4708650000393	68.5708463001065
54204.5	0.0999884000048041	203	hunger	stimuli/non_foods\non-food_inanimate_waterlily.jpg	1	2	1	non-food_inanimate_waterlily	0	X	17	0	226	0		0	0	68.6208458002657	68.7208342002705
54242	0.0999941001646221	204	hunger	stimuli/non_foods\non-food_inanimate_nettle.jpg	1	2	1	non-food_inanimate_nettle	0	W	16	0	197	0		0	0	68.7708458001725	68.8708399003372
54279.5	0.100003999657929	205	hunger	stimuli/foods\pork_and_rice.jpg	1	2	1	pork_and_rice	1	J	6	0	245	0		0	0	68.9208420002833	69.0208459999412
54317	0.0999707002192736	206	hunger	stimuli/non_foods\non-food_inanimate_bush.jpg	1	2	1	non-food_inanimate_bush	0	D	2	0	167	0		0	0	69.0708582000807	69.1708289003
54354.5	0.0999841000884771	207	hunger	stimuli/non_foods\non-food_inanimate_toilet.jpg	1	2	1	non-food_inanimate_toilet	0	K	7	0	220	0		0	0	69.220842699986	69.3208268000744
54392	0.0999885997734964	208	hunger	stimuli/non_foods\non-food_animate_baby_sitting.jpg	1	2	1	non-food_animate_baby_sitting	0	N	10	0	93	0		0	0	69.3708367003128	69.4708253000863
54429.5	0.099972500000149	209	hunger	stimuli/foods\baked_cod_with_carrots_and_green_beans.jpg	1	2	1	baked_cod_with_carrots_and_green_beans	1	F	3	0	7	0		0	0	69.520838000346	69.6208105003461
54467	0.0999795999377966	210	hunger	stimuli/foods\clams.jpg	1	2	1	clams	1	M	9	0	32	0		0	0	69.6708355001174	69.7708151000552
54504.5	0.0999884000048041	211	hunger	stimuli/foods\mortadella.jpg	1	2	1	mortadella	1	G	4	0	83	0		0	0	69.8208234999329	69.9208118999377
54542	0.0999877001158893	212	hunger	stimuli/foods\roasted_chicken.jpg	1	2	1	roasted_chicken	1	L	8	0	261	0		0	0	69.9708235999569	70.0708113000728
54579.5	0.0999750001356006	213	hunger	stimuli/foods\banana.jpg	1	2	1	banana	1	G	4	0	9	0		0	0	70.1208289000206	70.2208039001562
54617	0.0999878998845816	214	hunger	stimuli/foods\fruit_salad.jpg	1	2	1	fruit_salad	1	N	10	0	55	0		0	0	70.2708181003109	70.3708060001954
54654.5	0.100000500213355	215	hunger	stimuli/non_foods\non-food_animate_ladybug.jpg	1	2	1	non-food_animate_ladybug	0	H	5	0	124	0		0	0	70.4208118999377	70.520812400151
54692	0.0999746997840703	216	hunger	stimuli/non_foods\non-food_inanimate_wrench.jpg	1	2	1	non-food_inanimate_wrench	0	B	0	0	227	0		0	0	70.5708174002357	70.6707921000198
54729.5	0.0999953998252749	217	hunger	stimuli/non_foods\non-food_inanimate_drum_set.jpg	1	2	1	non-food_inanimate_drum_set	0	R	12	0	179	0		0	0	70.7208128003404	70.8208082001656
54767	0.100005300249904	218	hunger	stimuli/foods\fruit_flan.jpg	1	2	1	fruit_flan	1	N	10	0	53	0		0	0	70.8707902999595	70.9707956002094
54804.5	0.0999978999607265	219	hunger	stimuli/non_foods\non-food_animate_lizard.jpg	1	2	1	non-food_animate_lizard	0	S	13	0	126	0		0	0	71.0208083000034	71.1208061999641
54842	0.0999823003076017	220	hunger	stimuli/foods\salmon.jpg	1	2	1	salmon	1	M	9	0	264	0		0	0	71.1708106999286	71.2707930002362
54879.5	0.0999861001037061	221	hunger	stimuli/foods\grapes.jpg	1	2	1	grapes	1	C	1	0	60	0		0	0	71.3208054001443	71.420791500248
54917	0.099989399779588	222	hunger	stimuli/non_foods\non-food_animate_Asian_man.jpg	1	2	1	non-food_animate_Asian_man	0	J	6	0	88	0		0	0	71.4708120003343	71.5708014001139
54954.5	0.0999859999865294	223	hunger	stimuli/foods\cinnamon.jpg	1	2	1	cinnamon	1	W	16	0	30	0		0	0	71.6208100002259	71.7207960002124
54992	0.0999874998815358	224	hunger	stimuli/non_foods\non-food_inanimate_ring.jpg	1	2	1	non-food_inanimate_ring	0	Z	18	0	203	0		0	0	71.7708085002378	71.8707960001193
55029.5	0.0999775999225676	225	hunger	stimuli/foods\cooked_prawn.jpg	1	2	1	cooked_prawn	1	J	6	0	36	0		0	0	71.9208035003394	72.020781100262
55067	0.0999815999530256	226	hunger	stimuli/non_foods\non-food_inanimate_shell.jpg	1	2	1	non-food_inanimate_shell	0	Z	18	0	206	0		0	0	72.0707979002036	72.1707795001566
55104.5	0.0999793000519276	227	hunger	stimuli/foods\cinnamon_sroll.jpg	1	2	1	cinnamon_sroll	1	G	4	0	31	0		0	0	72.2207991001196	72.3207784001715
55142	0.100019100122154	228	hunger	stimuli/non_foods\non-food_inanimate_stapler.jpg	1	2	1	non-food_inanimate_stapler	0	Z	18	0	213	0		0	0	72.3707944001071	72.4708135002293
55179.5	0.0999434003606439	229	hunger	stimuli/non_foods\non-food_inanimate_bucket.jpg	1	2	1	non-food_inanimate_bucket	0	R	12	0	165	0		0	0	72.5208300999366	72.6207735002972
55217	0.0999845997430384	230	hunger	stimuli/non_foods\non-food_inanimate_bowling_ball.jpg	1	2	1	non-food_inanimate_bowling_ball	0	G	4	0	162	0		0	0	72.6707908003591	72.7707754001021
55254.5	0.0999914999119937	231	hunger	stimuli/non_foods\non-food_inanimate_orchid.jpg	1	2	1	non-food_inanimate_orchid	0	W	16	0	198	0		0	0	72.8207807000726	72.9207721999846
55292	0.0999773000366986	232	hunger	stimuli/foods\dates.jpg	1	2	1	dates	1	G	4	0	43	0		0	0	72.9707936001942	73.0707709002309
55329.5	0.0999652002938092	233	hunger	stimuli/non_foods\non-food_animate_owl.jpg	1	2	1	non-food_animate_owl	0	J	6	0	132	0		0	0	73.1207846999168	73.2207499002106
55367	0.0999614000320435	234	hunger	stimuli/foods\avocado.jpg	1	2	1	avocado	1	H	5	0	5	0		0	0	73.2707917001098	73.3707531001419
55404.5	0.0999882002361119	235	hunger	stimuli/non_foods\non-food_animate_sea_turtle.jpg	1	2	1	non-food_animate_sea_turtle	0	C	1	0	144	0		0	0	73.420785699971	73.5207739002071
55442	0.100002499762923	236	hunger	stimuli/foods\baked_lamb_with_potatoes.jpg	1	2	1	baked_lamb_with_potatoes	1	P	11	0	8	0		0	0	73.5707825003192	73.6707850000821
55479.5	0.0999836996197701	237	hunger	stimuli/non_foods\non-food_inanimate_tulip.jpg	1	2	1	non-food_inanimate_tulip	0	S	13	0	224	0		0	0	73.7207830003463	73.820766699966
55517	0.0999871999956667	238	hunger	stimuli/foods\spring_onions.jpg	1	2	1	spring_onions	1	H	5	0	269	0		0	0	73.8707825001329	73.9707697001286
55554.5	0.0999834998510778	239	hunger	stimuli/foods\chocolate_chip_cookies.jpg	1	2	1	chocolate_chip_cookies	1	F	3	0	27	0		0	0	74.0207806001417	74.1207640999928
55592	0.0999912996776402	240	hunger	stimuli/foods\coconut.jpg	1	2	1	coconut	1	V	15	0	33	0		0	0	74.1707745003514	74.270765800029
55629.5	0.0999761000275612	241	hunger	stimuli/foods\lemon_meringue_pie.jpg	1	2	1	lemon_meringue_pie	1	W	16	0	73	0		0	0	74.3207976003177	74.4207737003453
55667	0.0999874002300203	242	hunger	stimuli/foods\rockmelon.jpg	1	2	1	rockmelon	1	D	2	0	262	0		0	0	74.4707720000297	74.5707594002597
55704.5	0.0999859999865294	243	hunger	stimuli/non_foods\non-food_inanimate_chandelier.jpg	1	2	1	non-food_inanimate_chandelier	0	M	9	0	173	0		0	0	74.6207715999335	74.72075759992
55742	0.0999738997779787	244	hunger	stimuli/foods\beetroots.jpg	1	2	1	beetroots	1	N	10	0	10	0		0	0	74.7707827002741	74.8707566000521
55779.5	0.09998539974913	245	hunger	stimuli/non_foods\non-food_inanimate_tent.jpg	1	2	1	non-food_inanimate_tent	0	C	1	0	219	0		0	0	74.9207664001733	75.0207517999224
55817	0.0999941998161376	246	hunger	stimuli/non_foods\non-food_inanimate_skirt.jpg	1	2	1	non-food_inanimate_skirt	0	D	2	0	209	0		0	0	75.0707649001852	75.1707591000013
55854.5	0.0999888000078499	247	hunger	stimuli/foods\fennel.jpg	1	2	1	fennel	1	S	13	0	47	0		0	0	75.2207639999688	75.3207527999766
55892	0.0999630996957421	248	hunger	stimuli/foods\lamb_chops.jpg	1	2	1	lamb_chops	1	T	14	0	70	0		0	0	75.3707660003565	75.4707291000523
55929.5	0.0999690000899136	249	hunger	stimuli/foods\raw_sausage.jpg	1	2	1	raw_sausage	1	Z	18	0	254	0		0	0	75.5207577999681	75.620726800058
55967	0.100013200193644	250	hunger	stimuli/non_foods\non-food_animate_bee.jpg	1	2	1	non-food_animate_bee	0	K	7	0	95	0		0	0	75.6707337000407	75.7707469002344
56004.5	0.0999949001707137	251	hunger	stimuli/non_foods\non-food_animate_alligator.jpg	1	2	1	non-food_animate_alligator	0	R	12	0	90	0		0	0	75.8207580000162	75.9207529001869
56042	0.100012899842113	252	hunger	stimuli/non_foods\non-food_animate_green_bug.jpg	1	2	1	non-food_animate_green_bug	0	K	7	0	118	0		0	0	75.9707467001863	76.0707596000284
56079.5	0.099942300003022	253	hunger	stimuli/foods\pea_pod.jpg	1	2	1	pea_pod	1	T	14	0	237	0		0	0	76.1207967000082	76.2207390000112
56117	0.0999759999103844	254	hunger	stimuli/non_foods\non-food_animate_penguin.jpg	1	2	1	non-food_animate_penguin	0	S	13	0	135	0		0	0	76.270760900341	76.3707369002514
56154.5	0.0999869001097977	255	hunger	stimuli/non_foods\non-food_animate_young_girl.jpg	1	2	1	non-food_animate_young_girl	0	Z	18	0	157	0		0	0	76.4207488000393	76.5207357001491
56192	0.0999865001067519	256	hunger	stimuli/non_foods\non-food_inanimate_fern.jpg	1	2	1	non-food_inanimate_fern	0	V	15	0	180	0		0	0	76.5707483999431	76.6707349000499
56229.5	0.0999850002117455	257	hunger	stimuli/foods\potato_chips.jpg	1	2	1	potato_chips	1	G	4	0	247	0		0	0	76.7207446000539	76.8207296002656
56267	0.0999724003486335	258	hunger	stimuli/non_foods\non-food_animate_caterpillar.jpg	1	2	1	non-food_animate_caterpillar	0	M	9	0	99	0		0	0	76.8707425999455	76.9707150002941
56304.5	0.0999858002178371	259	hunger	stimuli/foods\oven-roasted_tomatoes.jpg	1	2	1	oven-roasted_tomatoes	1	F	3	0	232	0		0	0	77.0207311999984	77.1207170002162
56342	0.0999839999713004	260	hunger	stimuli/non_foods\non-food_animate_squirrel.jpg	1	2	1	non-food_animate_squirrel	0	V	15	0	150	0		0	0	77.1707319002599	77.2707159002312
56379.5	0.0999750001356006	261	hunger	stimuli/non_foods\non-food_inanimate_hammer.jpg	1	2	1	non-food_inanimate_hammer	0	M	9	0	186	0		0	0	77.3207386001013	77.4207136002369
56417	0.0999968000687659	262	hunger	stimuli/foods\taco.jpg	1	2	1	taco	1	P	11	0	274	0		0	0	77.4707285002805	77.5707253003493
56454.5	0.100027000065893	263	hunger	stimuli/non_foods\non-food_animate_Causasian_man.jpg	1	2	1	non-food_animate_Causasian_man	0	G	4	0	89	0		0	0	77.6207070001401	77.720734000206
56492	0.0999987004324794	264	hunger	stimuli/non_foods\non-food_animate_swan.jpg	1	2	1	non-food_animate_swan	0	W	16	0	152	0		0	0	77.7707370999269	77.8707358003594
56529.5	0.099961300380528	265	hunger	stimuli/non_foods\non-food_inanimate_button.jpg	1	2	1	non-food_inanimate_button	0	H	5	0	168	0		0	0	77.9207546999678	78.0207160003483
56567	0.0999729996547103	266	hunger	stimuli/non_foods\non-food_inanimate_highlighter.jpg	1	2	1	non-food_inanimate_highlighter	0	C	1	0	189	0		0	0	78.0707400003448	78.1707129999995
56604.5	0.0999893001280725	267	hunger	stimuli/non_foods\non-food_animate_donkey.jpg	1	2	1	non-food_animate_donkey	0	T	14	0	107	0		0	0	78.2207217002288	78.3207110003568
56642	0.0999992000870407	268	hunger	stimuli/non_foods\non-food_animate_mouse.jpg	1	2	1	non-food_animate_mouse	0	G	4	0	131	0		0	0	78.3707234999165	78.4707227000035
56679.5	0.0999851003289223	269	hunger	stimuli/foods\spinach.jpg	1	2	1	spinach	1	H	5	0	268	0		0	0	78.5207217000425	78.6207068003714
56717	0.0999892000108957	270	hunger	stimuli/foods\brussel_sprouts.jpg	1	2	1	brussel_sprouts	1	C	1	0	15	0		0	0	78.6707204999402	78.7707096999511
56754.5	0.0999729000031948	271	hunger	stimuli/non_foods\non-food_inanimate_cupboard.jpg	1	2	1	non-food_inanimate_cupboard	0	W	16	0	177	0		0	0	78.8207328999415	78.9207057999447
56792	0.0999726001173258	272	hunger	stimuli/non_foods\non-food_animate_woman.jpg	1	2	1	non-food_animate_woman	0	F	3	0	154	0		0	0	78.9707304001786	79.0707030002959
56829.5	0.099974500015378	273	hunger	stimuli/foods\nectarine.jpg	1	2	1	nectarine	1	D	2	0	87	0		0	0	79.1207282003015	79.2207027003169
56867	0.0999839999713004	274	hunger	stimuli/non_foods\non-food_inanimate_bed.jpg	1	2	1	non-food_inanimate_bed	0	H	5	0	160	0		0	0	79.2707136999816	79.3706976999529
56904.5	0.0999857001006603	275	hunger	stimuli/foods\risotto_with_peas_and_asparagus_tips.jpg	1	2	1	risotto_with_peas_and_asparagus_tips	1	M	9	0	259	0		0	0	79.4207117999904	79.520697500091
56942	0.10001160018146	276	hunger	stimuli/foods\garlic.jpg	1	2	1	garlic	1	B	0	0	56	0		0	0	79.5707172001712	79.6707288003527
56979.5	0.0999930999241769	277	hunger	stimuli/non_foods\non-food_animate_fox.jpg	1	2	1	non-food_animate_fox	0	S	13	0	112	0		0	0	79.7206923002377	79.8206854001619
57017	0.09998709987849	278	hunger	stimuli/non_foods\non-food_inanimate_lighter.jpg	1	2	1	non-food_inanimate_lighter	0	K	7	0	193	0		0	0	79.8706972002983	79.9706843001768
57054.5	0.0999866002239287	279	hunger	stimuli/non_foods\non-food_inanimate_rope.jpg	1	2	1	non-food_inanimate_rope	0	W	16	0	204	0		0	0	80.0206921999343	80.1206788001582
59029.5	0.100008000154048	280	hunger	stimuli/foods\honey.jpg	1	3	1	honey	1	S	13	0	66	0		0	0	87.9206061000004	88.0206141001545
59067	0.0999670000746846	281	hunger	stimuli/non_foods\non-food_animate_donkey.jpg	1	3	1	non-food_animate_donkey	0	J	6	0	107	0		0	0	88.0706237000413	88.170590700116
59104.5	0.0999882998876274	282	hunger	stimuli/non_foods\non-food_inanimate_construction_helment.jpg	1	3	1	non-food_inanimate_construction_helment	0	K	7	0	175	0		0	0	88.2206014003605	88.3205897002481
59142	0.0999757000245154	283	hunger	stimuli/foods\chocolate_pudding.jpg	1	3	1	chocolate_pudding	1	J	6	0	29	0		0	0	88.3706098999828	88.4705856000073
59179.5	0.0999775002710521	284	hunger	stimuli/foods\mushroom.jpg	1	3	1	mushroom	1	H	5	0	85	0		0	0	88.5205983999185	88.6205759001896
59217	0.0999897001311183	285	hunger	stimuli/non_foods\non-food_animate_fox.jpg	1	3	1	non-food_animate_fox	0	L	8	0	112	0		0	0	88.6705947001465	88.7705844002776
59254.5	0.0999837000854313	286	hunger	stimuli/non_foods\non-food_animate_giraffe.jpg	1	3	1	non-food_animate_giraffe	0	S	13	0	115	0		0	0	88.8205936001614	88.9205773002468
59292	0.100000299979001	287	hunger	stimuli/non_foods\non-food_animate_seahorse.jpg	1	3	1	non-food_animate_seahorse	0	J	6	0	145	0		0	0	88.9705926002935	89.0705929002725
59329.5	0.0999996000900865	288	hunger	stimuli/foods\fruit_flan.jpg	1	3	1	fruit_flan	1	Z	18	0	53	0		0	0	89.1205760999583	89.2205757000484
59367	0.0999912000261247	289	hunger	stimuli/non_foods\non-food_animate_frog.jpg	1	3	1	non-food_animate_frog	0	X	17	0	113	0		0	0	89.2705775001086	89.3705687001348
59404.5	0.0999829000793397	290	hunger	stimuli/non_foods\non-food_animate_sea_turtle.jpg	1	3	1	non-food_animate_sea_turtle	0	W	16	0	144	0		0	0	89.4205836001784	89.5205665002577
59442	0.0999817997217178	291	hunger	stimuli/foods\cinnamon_sroll.jpg	1	3	1	cinnamon_sroll	1	P	11	0	31	0		0	0	89.5705770002678	89.6705587999895
59479.5	0.0999987004324794	292	hunger	stimuli/foods\corncob.jpg	1	3	1	corncob	1	F	3	0	37	0		0	0	89.7205759999342	89.8205747003667
59517	0.099940599873662	293	hunger	stimuli/foods\lamb_chops.jpg	1	3	1	lamb_chops	1	G	4	0	70	0		0	0	89.8706112001091	89.9705517999828
59554.5	0.100009800400585	294	hunger	stimuli/non_foods\non-food_inanimate_rack.jpg	1	3	1	non-food_inanimate_rack	0	V	15	0	202	0		0	0	90.0205554999411	90.1205653003417
59592	0.099983099848032	295	hunger	stimuli/foods\apple.jpg	1	3	1	apple	1	F	3	0	1	0		0	0	90.170577400364	90.270560500212
59629.5	0.099982799962163	296	hunger	stimuli/non_foods\non-food_animate_llama.jpg	1	3	1	non-food_animate_llama	0	D	2	0	127	0		0	0	90.3205722002313	90.4205550001934
59667	0.0999944997020066	297	hunger	stimuli/non_foods\non-food_inanimate_socks.jpg	1	3	1	non-food_inanimate_socks	0	T	14	0	211	0		0	0	90.4705700003542	90.5705645000562
59704.5	0.0999834998510778	298	hunger	stimuli/non_foods\non-food_animate_baby_sitting.jpg	1	3	1	non-food_animate_baby_sitting	0	V	15	0	93	0		0	0	90.6205672002397	90.7205507000908
59742	0.100003500003368	299	hunger	stimuli/non_foods\non-food_inanimate_bush.jpg	1	3	1	non-food_inanimate_bush	0	K	7	0	167	0		0	0	90.7705636001192	90.8705671001226
59779.5	0.100027400068939	300	hunger	stimuli/foods\baked_cod_with_carrots_and_green_beans.jpg	1	3	1	baked_cod_with_carrots_and_green_beans	1	M	9	0	7	0		0	0	90.9205567999743	91.0205842000432
59817	0.0999869001097977	301	hunger	stimuli/foods\peas.jpg	1	3	1	peas	1	J	6	0	240	0		0	0	91.0705675999634	91.1705545000732
59854.5	0.0999988000839949	302	hunger	stimuli/foods\raw_ham.jpg	1	3	1	raw_ham	1	T	14	0	253	0		0	0	91.2205659002066	91.3205647002906
59892	0.0999863999895751	303	hunger	stimuli/foods\fries.jpg	1	3	1	fries	1	L	8	0	52	0		0	0	91.370562300086	91.4705487000756
59929.5	0.100014300085604	304	hunger	stimuli/non_foods\non-food_inanimate_moss.jpg	1	3	1	non-food_inanimate_moss	0	H	5	0	194	0		0	0	91.5205633002333	91.6205776003189
59967	0.0999250002205372	305	hunger	stimuli/foods\grilled_chicken_breast.jpg	1	3	1	grilled_chicken_breast	1	K	7	0	63	0		0	0	91.6706185000949	91.7705435003154
60004.5	0.0999734001234174	306	hunger	stimuli/non_foods\non-food_inanimate_hay.jpg	1	3	1	non-food_inanimate_hay	0	N	10	0	187	0		0	0	91.8205691999756	91.920542600099
60042	0.0999404001049697	307	hunger	stimuli/non_foods\non-food_animate_runner.jpg	1	3	1	non-food_animate_runner	0	T	14	0	142	0		0	0	91.9705765000544	92.0705169001594
60079.5	0.100006899796426	308	hunger	stimuli/foods\prawn.jpg	1	3	1	prawn	1	S	13	0	249	0		0	0	92.1205477002077	92.2205546000041
60117	0.099987699650228	309	hunger	stimuli/non_foods\non-food_animate_deer.jpg	1	3	1	non-food_animate_deer	0	W	16	0	105	0		0	0	92.2705411002971	92.3705287999474
60154.5	0.0999750001356006	310	hunger	stimuli/foods\lemon.jpg	1	3	1	lemon	1	I	21	1	72	0		0	0	92.420553999953	92.5205290000886
60192	0.0999859999865294	311	hunger	stimuli/foods\orange.jpg	1	3	1	orange	1	C	1	0	230	0		0	0	92.5705413003452	92.6705273003317
60229.5	0.10000059986487	312	hunger	stimuli/foods\kiwi.jpg	1	3	1	kiwi	1	W	16	0	69	0		0	0	92.7205298002809	92.8205304001458
60267	0.0999851999804378	313	hunger	stimuli/non_foods\non-food_inanimate_scissors.jpg	1	3	1	non-food_inanimate_scissors	0	J	6	0	205	0		0	0	92.8705438999459	92.9705290999264
60304.5	0.100019800011069	314	hunger	stimuli/non_foods\non-food_inanimate_stoplight.jpg	1	3	1	non-food_inanimate_stoplight	0	L	8	0	214	0		0	0	93.0205190000124	93.1205388000235
60342	0.099982799962163	315	hunger	stimuli/foods\spaghetti_with_meat_sauce.jpg	1	3	1	spaghetti_with_meat_sauce	1	M	9	0	267	0		0	0	93.1705416999757	93.2705244999379
60379.5	0.100035899784416	316	hunger	stimuli/non_foods\non-food_animate_sea_lion.jpg	1	3	1	non-food_animate_sea_lion	0	V	15	0	143	0		0	0	93.3205361003056	93.42057200009
60417	0.0999338002875447	317	hunger	stimuli/non_foods\non-food_inanimate_bicycle.jpg	1	3	1	non-food_inanimate_bicycle	0	C	1	0	161	0		0	0	93.4705880000256	93.5705218003131
60454.5	0.0999855003319681	318	hunger	stimuli/foods\artichoke.jpg	1	3	1	artichoke	1	V	15	0	3	0		0	0	93.6205331999809	93.7205187003128
60492	0.0999966999515891	319	hunger	stimuli/non_foods\non-food_inanimate_skirt.jpg	1	3	1	non-food_inanimate_skirt	0	S	13	0	209	0		0	0	93.770531100221	93.8705278001726
60529.5	0.0999875003471971	320	hunger	stimuli/non_foods\non-food_animate_cheetah.jpg	1	3	1	non-food_animate_cheetah	0	M	9	0	100	0		0	0	93.9205310000107	94.0205185003579
60567	0.0999853000976145	321	hunger	stimuli/foods\pomegranate.jpg	1	3	1	pomegranate	1	F	3	0	244	0		0	0	94.0705285002477	94.1705138003454
60604.5	0.0999779999256134	322	hunger	stimuli/foods\egg.jpg	1	3	1	egg	1	M	9	0	45	0		0	0	94.2205369002186	94.3205149001442
60642	0.0999775999225676	323	hunger	stimuli/foods\raw_sausage.jpg	1	3	1	raw_sausage	1	H	5	0	254	0		0	0	94.3705254001543	94.4705030000769
60679.5	0.0999483000487089	324	hunger	stimuli/non_foods\non-food_inanimate_alarm_clock.jpg	1	3	1	non-food_inanimate_alarm_clock	0	Z	18	0	158	0		0	0	94.5205617002212	94.6205100002699
60717	0.0999842998571694	325	hunger	stimuli/foods\risotto_with_peas_and_asparagus_tips.jpg	1	3	1	risotto_with_peas_and_asparagus_tips	1	J	6	0	259	0		0	0	94.6705212001689	94.770505500026
60754.5	0.0999865997582674	326	hunger	stimuli/non_foods\non-food_animate_porcupine.jpg	1	3	1	non-food_animate_porcupine	0	H	5	0	138	0		0	0	94.8205182002857	94.920504800044
60792	0.0999774998053908	327	hunger	stimuli/non_foods\non-food_inanimate_desk.jpg	1	3	1	non-food_inanimate_desk	0	M	9	0	178	0		0	0	94.9705239003524	95.0705014001578
60829.5	0.0999882002361119	328	hunger	stimuli/foods\wafer.jpg	1	3	1	wafer	1	X	17	0	277	0		0	0	95.1205150000751	95.2205032003112
60867	0.0999974003061652	329	hunger	stimuli/non_foods\non-food_animate_mammoth.jpg	1	3	1	non-food_animate_mammoth	0	B	0	0	128	0		0	0	95.2704998999834	95.3704973002896
60904.5	0.099976500030607	330	hunger	stimuli/non_foods\non-food_inanimate_tent.jpg	1	3	1	non-food_inanimate_tent	0	T	14	0	219	0		0	0	95.4205120000988	95.5204885001294
60942	0.100000299979001	331	hunger	stimuli/foods\raisins.jpg	1	3	1	raisins	1	V	15	0	252	0		0	0	95.5705085000955	95.6705088000745
60979.5	0.0999825000762939	332	hunger	stimuli/non_foods\non-food_animate_hummingbird.jpg	1	3	1	non-food_animate_hummingbird	0	D	2	0	120	0		0	0	95.7205153000541	95.8204978001304
61017	0.0999865001067519	333	hunger	stimuli/foods\taco.jpg	1	3	1	taco	1	F	3	0	274	0		0	0	95.870502800215	95.9704893003218
61054.5	0.0999857997521758	334	hunger	stimuli/non_foods\non-food_inanimate_rope.jpg	1	3	1	non-food_inanimate_rope	0	W	16	0	204	0		0	0	96.0205030003563	96.1204888001084
61092	0.0999845997430384	335	hunger	stimuli/non_foods\non-food_animate_ant.jpg	1	3	1	non-food_animate_ant	0	K	7	0	91	0		0	0	96.1705030002631	96.2704876000062
61129.5	0.0999962002970278	336	hunger	stimuli/foods\fennel.jpg	1	3	1	fennel	1	Z	18	0	47	0		0	0	96.3204995999113	96.4204958002083
61167	0.0999838998541236	337	hunger	stimuli/non_foods\non-food_animate_dolphin.jpg	1	3	1	non-food_animate_dolphin	0	M	9	0	106	0		0	0	96.4705019001849	96.570485800039
61204.5	0.0999846002086997	338	hunger	stimuli/non_foods\non-food_inanimate_soccer_ball.jpg	1	3	1	non-food_inanimate_soccer_ball	0	R	12	0	210	0		0	0	96.62049510004	96.7204797002487
61242	0.0999855999834836	339	hunger	stimuli/foods\salami.jpg	1	3	1	salami	1	L	8	0	263	0		0	0	96.7704938002862	96.8704794002697
61279.5	0.100007799919695	340	hunger	stimuli/non_foods\non-food_inanimate_horn.jpg	1	3	1	non-food_inanimate_horn	0	P	11	0	190	0		0	0	96.9204998002388	97.0205076001585
61317	0.0999826001934707	341	hunger	stimuli/foods\bagel.jpg	1	3	1	bagel	1	C	1	0	6	0		0	0	97.0705039999448	97.1704866001382
61354.5	0.0999861001037061	342	hunger	stimuli/non_foods\non-food_inanimate_hammer.jpg	1	3	1	non-food_inanimate_hammer	0	N	10	0	186	0		0	0	97.2204919001088	97.3204780002125
61392	0.0999841997399926	343	hunger	stimuli/non_foods\non-food_inanimate_suitcase.jpg	1	3	1	non-food_inanimate_suitcase	0	Z	18	0	215	0		0	0	97.3704873002134	97.4704714999534
61429.5	0.0999716999940574	344	hunger	stimuli/foods\hotdog.jpg	1	3	1	hotdog	1	G	4	0	67	0		0	0	97.5204958999529	97.620467599947
61467	0.0999894998967648	345	hunger	stimuli/non_foods\non-food_inanimate_lighter.jpg	1	3	1	non-food_inanimate_lighter	0	N	10	0	193	0		0	0	97.670481600333	97.7704711002298
61504.5	0.0999944000504911	346	hunger	stimuli/foods\pickles.jpg	1	3	1	pickles	1	D	2	0	242	0		0	0	97.8204819001257	97.9204763001762
61542	0.100006999913603	347	hunger	stimuli/non_foods\non-food_inanimate_button.jpg	1	3	1	non-food_inanimate_button	0	B	0	0	168	0		0	0	97.9704525000416	98.0704594999552
61579.5	0.0999600999057293	348	hunger	stimuli/foods\potatoes.jpg	1	3	1	potatoes	1	T	14	0	248	0		0	0	98.1205037003383	98.220463800244
61617	0.0999777000397444	349	hunger	stimuli/non_foods\non-food_inanimate_pine_cone.jpg	1	3	1	non-food_inanimate_pine_cone	0	R	12	0	200	0		0	0	98.2704843999818	98.3704621000215
61654.5	0.0999843003228307	350	hunger	stimuli/non_foods\non-food_animate_lizard.jpg	1	3	1	non-food_animate_lizard	0	D	2	0	126	0		0	0	98.4204593999311	98.520443700254
61692	0.100006999913603	351	hunger	stimuli/foods\baked_lamb_with_potatoes.jpg	1	3	1	baked_lamb_with_potatoes	1	X	17	0	8	0		0	0	98.5704489001073	98.6704559000209
61729.5	0.100008000154048	352	hunger	stimuli/foods\avocado.jpg	1	3	1	avocado	1	Z	18	0	5	0		0	0	98.7204820001498	98.8204900003038
61767	0.099976200144738	353	hunger	stimuli/non_foods\non-food_animate_polar_bear.jpg	1	3	1	non-food_animate_polar_bear	0	X	17	0	137	0		0	0	98.870467199944	98.9704434000887
61804.5	0.0999794001691043	354	hunger	stimuli/non_foods\non-food_animate_woman.jpg	1	3	1	non-food_animate_woman	0	V	15	0	154	0		0	0	99.0204682000913	99.1204476002604
61842	0.0999833000823855	355	hunger	stimuli/foods\carrot.jpg	1	3	1	carrot	1	B	0	0	19	0		0	0	99.1704592001624	99.2704425002448
61879.5	0.0999823999591172	356	hunger	stimuli/non_foods\non-food_animate_owl.jpg	1	3	1	non-food_animate_owl	0	C	1	0	132	0		0	0	99.3204552000389	99.420437599998
61917	0.0999838002026081	357	hunger	stimuli/foods\banana.jpg	1	3	1	banana	1	Z	18	0	9	0		0	0	99.4704529000446	99.5704367002472
61954.5	0.0999928000383079	358	hunger	stimuli/foods\linguine_with_clams.jpg	1	3	1	linguine_with_clams	1	W	16	0	77	0		0	0	99.6204514000565	99.7204442000948
61992	0.0999854998663068	359	hunger	stimuli/foods\roasted_chicken.jpg	1	3	1	roasted_chicken	1	L	8	0	261	0		0	0	99.7704479000531	99.8704333999194
62029.5	0.099997800309211	360	hunger	stimuli/non_foods\non-food_animate_young_boy.jpg	1	3	1	non-food_animate_young_boy	0	N	10	0	156	0		0	0	99.9204448000528	100.020442600362
62067	0.0999858998693526	361	hunger	stimuli/non_foods\non-food_inanimate_teddy_bear.jpg	1	3	1	non-food_inanimate_teddy_bear	0	S	13	0	218	0		0	0	100.070455600042	100.170441499911
62104.5	0.0999904996715486	362	hunger	stimuli/foods\chocolate_bar.jpg	1	3	1	chocolate_bar	1	Z	18	0	26	0		0	0	100.220442000311	100.320432499982
62142	0.10000290023163	363	hunger	stimuli/foods\papaya.jpg	1	3	1	papaya	1	H	5	0	235	0		0	0	100.370440700091	100.470443600323
62179.5	0.0999908000230789	364	hunger	stimuli/foods\hazelnuts.jpg	1	3	1	hazelnuts	1	F	3	0	65	0		0	0	100.520446900278	100.620437700301
62217	0.0999634996987879	365	hunger	stimuli/non_foods\non-food_inanimate_toilet.jpg	1	3	1	non-food_inanimate_toilet	0	Z	18	0	220	0		0	0	100.670466900337	100.770430400036
62254.5	0.099949199706316	366	hunger	stimuli/non_foods\non-food_inanimate_wrench.jpg	1	3	1	non-food_inanimate_wrench	0	K	7	0	227	0		0	0	100.820453000255	100.920402199961
62292	0.0999845997430384	367	hunger	stimuli/non_foods\non-food_animate_dragonfly.jpg	1	3	1	non-food_animate_dragonfly	0	B	0	0	108	0		0	0	100.970433200244	101.070417799987
62329.5	0.0999866998754442	368	hunger	stimuli/foods\grapes.jpg	1	3	1	grapes	1	W	16	0	60	0		0	0	101.12043140037	101.220418100245
62367	0.0999854998663068	369	hunger	stimuli/non_foods\non-food_inanimate_leaf.jpg	1	3	1	non-food_inanimate_leaf	0	F	3	0	192	0		0	0	101.270432600286	101.370418100152
62404.5	0.0999850002117455	370	hunger	stimuli/non_foods\non-food_animate_elephant.jpg	1	3	1	non-food_animate_elephant	0	M	9	0	111	0		0	0	101.420427700039	101.520412700251
62442	0.0999739998951554	371	hunger	stimuli/non_foods\non-food_inanimate_canoe.jpg	1	3	1	non-food_inanimate_canoe	0	K	7	0	170	0		0	0	101.570436800364	101.67041080026
62479.5	0.099982799962163	372	hunger	stimuli/non_foods\non-food_inanimate_waterlily.jpg	1	3	1	non-food_inanimate_waterlily	0	N	10	0	226	0		0	0	101.72042480018	101.820407600142
62517	0.0999750997871161	373	hunger	stimuli/non_foods\non-food_inanimate_towel.jpg	1	3	1	non-food_inanimate_towel	0	S	13	0	221	0		0	0	101.870442000218	101.970417100005
62554.5	0.0999849000945687	374	hunger	stimuli/non_foods\non-food_animate_parrot.jpg	1	3	1	non-food_animate_parrot	0	U	23	1	133	0		0	0	102.020430699922	102.120415600017
62592	0.100024700164795	375	hunger	stimuli/foods\lasagna.jpg	1	3	1	lasagna	1	H	5	0	71	0		0	0	102.170400999952	102.270425700117
62629.5	0.0999549003317952	376	hunger	stimuli/foods\capsicum.jpg	1	3	1	capsicum	1	M	9	0	18	0		0	0	102.320452400018	102.420407300349
62667	0.0999909997917712	377	hunger	stimuli/foods\red_beans.jpg	1	3	1	red_beans	1	W	16	0	255	0		0	0	102.47042480018	102.570415799972
62704.5	0.0999819003045559	378	hunger	stimuli/non_foods\non-food_animate_snail.jpg	1	3	1	non-food_animate_snail	0	K	7	0	149	0		0	0	102.620421899948	102.720403800253
62742	0.0999866002239287	379	hunger	stimuli/non_foods\non-food_inanimate_short_sleeved_shirt.jpg	1	3	1	non-food_inanimate_short_sleeved_shirt	0	W	16	0	207	0		0	0	102.77041690005	102.870403500274
62779.5	0.0999987996183336	380	hunger	stimuli/non_foods\non-food_inanimate_nest.jpg	1	3	1	non-food_inanimate_nest	0	R	12	0	196	0		0	0	102.920415600296	103.020414399914
62817	0.0999823999591172	381	hunger	stimuli/foods\onion.jpg	1	3	1	onion	1	V	15	0	229	0		0	0	103.070416000206	103.170398400165
62854.5	0.0999880000017583	382	hunger	stimuli/non_foods\non-food_animate_penguin.jpg	1	3	1	non-food_animate_penguin	0	L	8	0	135	0		0	0	103.220414000098	103.320402000099
62892	0.099976500030607	383	hunger	stimuli/foods\pineapple.jpg	1	3	1	pineapple	1	B	0	0	243	0		0	0	103.370422800072	103.470399300102
62929.5	0.0999866998754442	384	hunger	stimuli/foods\museli_bars.jpg	1	3	1	museli_bars	1	K	7	0	84	0		0	0	103.520407900214	103.62039460009
62967	0.0999977001920342	385	hunger	stimuli/foods\gnocchi.jpg	1	3	1	gnocchi	1	G	4	0	58	0		0	0	103.670407900121	103.770405600313
63004.5	0.0999866998754442	386	hunger	stimuli/non_foods\non-food_inanimate_bamboo.jpg	1	3	1	non-food_inanimate_bamboo	0	N	10	0	159	0		0	0	103.820406800136	103.920393500011
63042	0.0999897997826338	387	hunger	stimuli/foods\ice_cream.jpg	1	3	1	ice_cream	1	V	15	0	68	0		0	0	103.97040290013	104.070392699912
63079.5	0.0999517999589443	388	hunger	stimuli/foods\stew_with_potatoes_and_carrots.jpg	1	3	1	stew_with_potatoes_and_carrots	1	L	8	0	271	0		0	0	104.120435700286	104.220387500245
63117	0.0999882002361119	389	hunger	stimuli/foods\mandarin.jpg	1	3	1	mandarin	1	H	5	0	79	0		0	0	104.270399400033	104.370387600269
63154.5	0.0999977001920342	390	hunger	stimuli/foods\cauliflower.jpg	1	3	1	cauliflower	1	C	1	0	20	0		0	0	104.420398000162	104.520395700354
63192	0.099987699650228	391	hunger	stimuli/foods\beetroots.jpg	1	3	1	beetroots	1	T	14	0	10	0		0	0	104.570397000294	104.670384699944
63229.5	0.0999853000976145	392	hunger	stimuli/foods\fried_zucchini.jpg	1	3	1	fried_zucchini	1	L	8	0	51	0		0	0	104.720394100063	104.82037940016
63267	0.0999798001721501	393	hunger	stimuli/foods\lemon_meringue_pie.jpg	1	3	1	lemon_meringue_pie	1	W	16	0	73	0		0	0	104.870400900021	104.970380700193
63304.5	0.09998709987849	394	hunger	stimuli/non_foods\non-food_inanimate_chair.jpg	1	3	1	non-food_inanimate_chair	0	V	15	0	172	0		0	0	105.020389700308	105.120376800187
63342	0.0999634996987879	395	hunger	stimuli/non_foods\non-food_animate_baby_crawling.jpg	1	3	1	non-food_animate_baby_crawling	0	T	14	0	92	0		0	0	105.170389000326	105.270352500025
63379.5	0.100004500243813	396	hunger	stimuli/foods\brie.jpg	1	3	1	brie	1	N	10	0	12	0		0	0	105.320367800072	105.420372300316
63417	0.099993399810046	397	hunger	stimuli/non_foods\non-food_animate_monkey.jpg	1	3	1	non-food_animate_monkey	0	V	15	0	130	0		0	0	105.470368800219	105.570362200029
63454.5	0.0999776995740831	398	hunger	stimuli/foods\frankfurter_and_provolone_salad.jpg	1	3	1	frankfurter_and_provolone_salad	1	W	16	0	49	0		0	0	105.620384900365	105.720362599939
63492	0.0999865001067519	399	hunger	stimuli/non_foods\non-food_inanimate_bowling_ball.jpg	1	3	1	non-food_inanimate_bowling_ball	0	G	4	0	162	0		0	0	105.770374299958	105.870360800065
63529.5	0.0999799999408424	400	hunger	stimuli/non_foods\non-food_inanimate_couch.jpg	1	3	1	non-food_inanimate_couch	0	M	9	0	176	0		0	0	105.920399100054	106.020379099995
63567	0.0999842998571694	401	hunger	stimuli/non_foods\non-food_inanimate_padlock.jpg	1	3	1	non-food_inanimate_padlock	0	H	5	0	199	0		0	0	106.070372200105	106.170356499963
63604.5	0.0999961998313665	402	hunger	stimuli/foods\potato_chips.jpg	1	3	1	potato_chips	1	V	15	0	247	0		0	0	106.220369300339	106.320365500171
63642	0.0999949001707137	403	hunger	stimuli/foods\coffee_beans.jpg	1	3	1	coffee_beans	1	N	10	0	34	0		0	0	106.370366299991	106.470361200161
63679.5	0.099984799977392	404	hunger	stimuli/non_foods\non-food_inanimate_highlighter.jpg	1	3	1	non-food_inanimate_highlighter	0	I	21	1	189	0		0	0	106.520376699977	106.620361499954
63717	0.0999865001067519	405	hunger	stimuli/non_foods\non-food_animate_cow.jpg	1	3	1	non-food_animate_cow	0	N	10	0	103	0		0	0	106.670372900087	106.770359400194
63754.5	0.099997999612242	406	hunger	stimuli/non_foods\non-food_animate_yellow_bug.jpg	1	3	1	non-food_animate_yellow_bug	0	K	7	0	155	0		0	0	106.82035450032	106.920352499932
63792	0.0999975996091962	407	hunger	stimuli/non_foods\non-food_animate_duck.jpg	1	3	1	non-food_animate_duck	0	C	1	0	109	0		0	0	106.970364900306	107.070362499915
63829.5	0.0999838998541236	408	hunger	stimuli/non_foods\non-food_animate_caterpillar.jpg	1	3	1	non-food_animate_caterpillar	0	V	15	0	99	0		0	0	107.120366900228	107.220350800082
63867	0.0999874002300203	409	hunger	stimuli/non_foods\non-food_animate_eagle.jpg	1	3	1	non-food_animate_eagle	0	B	0	0	110	0		0	0	107.270361999981	107.370349400211
63904.5	0.0999797000549734	410	hunger	stimuli/foods\cooked_prawn.jpg	1	3	1	cooked_prawn	1	N	10	0	36	0		0	0	107.420365999918	107.520345699973
63942	0.0999818001873791	411	hunger	stimuli/non_foods\non-food_inanimate_briefcase.jpg	1	3	1	non-food_inanimate_briefcase	0	C	1	0	163	0		0	0	107.570357799996	107.670339600183
63979.5	0.0999834998510778	412	hunger	stimuli/foods\pumpkin.jpg	1	3	1	pumpkin	1	P	11	0	250	0		0	0	107.720372100361	107.820355600212
64017	0.0999834001995623	413	hunger	stimuli/non_foods\non-food_animate_clown.jpg	1	3	1	non-food_animate_clown	0	F	3	0	102	0		0	0	107.870357600041	107.97034100024
64054.5	0.0999806998297572	414	hunger	stimuli/non_foods\non-food_inanimate_cupboard.jpg	1	3	1	non-food_inanimate_cupboard	0	B	0	0	177	0		0	0	108.020351800136	108.120332499966
64092	0.099982799962163	415	hunger	stimuli/non_foods\non-food_inanimate_bed.jpg	1	3	1	non-food_inanimate_bed	0	Z	18	0	160	0		0	0	108.170355500188	108.27033830015
64129.5	0.0999802998267114	416	hunger	stimuli/non_foods\non-food_animate_ram.jpg	1	3	1	non-food_animate_ram	0	L	8	0	140	0		0	0	108.320356000215	108.420336300042
64167	0.0999835999682546	417	hunger	stimuli/foods\blackberry.jpg	1	3	1	blackberry	1	N	10	0	11	0		0	0	108.470349099953	108.570332699921
64204.5	0.0999854998663068	418	hunger	stimuli/non_foods\non-food_animate_alligator.jpg	1	3	1	non-food_animate_alligator	0	B	0	0	90	0		0	0	108.62034710031	108.720332600176
64242	0.10000290023163	419	hunger	stimuli/foods\pork_and_rice.jpg	1	3	1	pork_and_rice	1	T	14	0	245	0		0	0	108.770331500098	108.87033440033
65733.75	0.0999462995678186	420	hunger	stimuli/non_foods\non-food_inanimate_buds.jpg	1	4	1	non-food_inanimate_buds	0	J	6	0	166	0		0	0	114.736973900348	114.836920199916
65771.25	0.0999849997460842	421	hunger	stimuli/non_foods\non-food_animate_dachshund.jpg	1	4	1	non-food_animate_dachshund	0	V	15	0	104	0		0	0	114.886937800329	114.986922800075
65808.75	0.0999957998283207	422	hunger	stimuli/foods\lollies.jpg	1	4	1	lollies	1	C	1	0	78	0		0	0	115.036935700104	115.136931499932
65846.25	0.0999842002056539	423	hunger	stimuli/foods\cannoli.jpg	1	4	1	cannoli	1	H	5	0	17	0		0	0	115.186932899989	115.286917100195
65883.75	0.099987399764359	424	hunger	stimuli/non_foods\non-food_inanimate_protractor.jpg	1	4	1	non-food_inanimate_protractor	0	F	3	0	201	0		0	0	115.336930400226	115.436917799991
65921.25	0.0999679998494685	425	hunger	stimuli/foods\cucumber.jpg	1	4	1	cucumber	1	N	10	0	41	0		0	0	115.486943500116	115.586911499966
65958.75	0.0999837997369468	426	hunger	stimuli/foods\chocolate_pralines.jpg	1	4	1	chocolate_pralines	1	M	9	0	28	0		0	0	115.636924200226	115.736907999963
65996.25	0.0999814998358488	427	hunger	stimuli/foods\donut.jpg	1	4	1	donut	1	V	15	0	44	0		0	0	115.786928200163	115.886909699999
66033.75	0.0999853000976145	428	hunger	stimuli/non_foods\non-food_inanimate_chandelier.jpg	1	4	1	non-food_inanimate_chandelier	0	N	10	0	173	0		0	0	115.936922700144	116.036908000242
66071.25	0.0999880000017583	429	hunger	stimuli/non_foods\non-food_animate_butterfly.jpg	1	4	1	non-food_animate_butterfly	0	S	13	0	96	0		0	0	116.086919300258	116.18690730026
66108.75	0.0999755999073386	430	hunger	stimuli/non_foods\non-food_inanimate_bucket.jpg	1	4	1	non-food_inanimate_bucket	0	D	2	0	165	0		0	0	116.23693000013	116.336905600037
66146.25	0.0999996000900865	431	hunger	stimuli/non_foods\non-food_animate_Asian_man.jpg	1	4	1	non-food_animate_Asian_man	0	N	10	0	88	0		0	0	116.386910700239	116.486910300329
66183.75	0.0999818001873791	432	hunger	stimuli/non_foods\non-food_inanimate_watering_can.jpg	1	4	1	non-food_inanimate_watering_can	0	S	13	0	225	0		0	0	116.53691689996	116.636898700148
66221.25	0.0999718997627497	433	hunger	stimuli/foods\cinnamon.jpg	1	4	1	cinnamon	1	J	6	0	30	0		0	0	116.686896100175	116.786867999937
66258.75	0.099995699711144	434	hunger	stimuli/foods\clams.jpg	1	4	1	clams	1	T	14	0	32	0		0	0	116.836913300212	116.936908999924
66296.25	0.0999803002923727	435	hunger	stimuli/non_foods\non-food_animate_peacock.jpg	1	4	1	non-food_animate_peacock	0	L	8	0	134	0		0	0	116.986914000008	117.086894300301
66333.75	0.0999865997582674	436	hunger	stimuli/foods\grapefruits.jpg	1	4	1	grapefruits	1	X	17	0	59	0		0	0	117.136905600317	117.236892200075
66371.25	0.099981099832803	437	hunger	stimuli/foods\pasta_carbonara.jpg	1	4	1	pasta_carbonara	1	R	12	0	236	0		0	0	117.286909300368	117.386890400201
66408.75	0.100000999867916	438	hunger	stimuli/non_foods\non-food_inanimate_grass.jpg	1	4	1	non-food_inanimate_grass	0	Z	18	0	184	0		0	0	117.436904200353	117.536905200221
66446.25	0.0999860996380448	439	hunger	stimuli/foods\oregano.jpg	1	4	1	oregano	1	C	1	0	231	0		0	0	117.586914600339	117.686900699977
66483.75	0.0999861997552216	440	hunger	stimuli/foods\ginger_root.jpg	1	4	1	ginger_root	1	S	13	0	57	0		0	0	117.736899600364	117.836885800119
66521.25	0.0999858002178371	441	hunger	stimuli/non_foods\non-food_animate_horse.jpg	1	4	1	non-food_animate_horse	0	Z	18	0	119	0		0	0	117.886898700148	117.986884500366
66558.75	0.0999746001325548	442	hunger	stimuli/foods\pea_pod.jpg	1	4	1	pea_pod	1	M	9	0	237	0		0	0	118.036907600239	118.136882200371
66596.25	0.0999757000245154	443	hunger	stimuli/foods\cream_donuts.jpg	1	4	1	cream_donuts	1	J	6	0	39	0		0	0	118.186903000344	118.286878700368
66633.75	0.0999798001721501	444	hunger	stimuli/non_foods\non-food_inanimate_folding_chair.jpg	1	4	1	non-food_inanimate_folding_chair	0	X	17	0	182	0		0	0	118.336910900194	118.436890700366
66671.25	0.0999851999804378	445	hunger	stimuli/non_foods\non-food_animate_swan.jpg	1	4	1	non-food_animate_swan	0	J	6	0	152	0		0	0	118.486889200285	118.586874400266
66708.75	0.0999873001128435	446	hunger	stimuli/foods\figs.jpg	1	4	1	figs	1	C	1	0	48	0		0	0	118.636888999958	118.73687630007
66746.25	0.0999725996516645	447	hunger	stimuli/foods\hamburger.jpg	1	4	1	hamburger	1	X	17	0	64	0		0	0	118.786899700295	118.886872299947
66783.75	0.0999866998754442	448	hunger	stimuli/foods\pepperoni_pizza.jpg	1	4	1	pepperoni_pizza	1	P	11	0	241	0		0	0	118.936882600188	119.036869300064
66821.25	0.099983399733901	449	hunger	stimuli/foods\risotto_with_zucchini.jpg	1	4	1	risotto_with_zucchini	1	F	3	0	260	0		0	0	119.086885600351	119.186869000085
66858.75	0.0999982999637723	450	hunger	stimuli/foods\salmon.jpg	1	4	1	salmon	1	L	8	0	264	0		0	0	119.236880100332	119.336878400296
66896.25	0.0999988000839949	451	hunger	stimuli/non_foods\non-food_animate_green_bug.jpg	1	4	1	non-food_animate_green_bug	0	J	6	0	118	0		0	0	119.386880300008	119.486879100092
66933.75	0.0999766001477838	452	hunger	stimuli/foods\cupcake.jpg	1	4	1	cupcake	1	H	5	0	42	0		0	0	119.536888900213	119.636865500361
66971.25	0.0999815999530256	453	hunger	stimuli/foods\cabbage.jpg	1	4	1	cabbage	1	Z	18	0	16	0		0	0	119.686876900028	119.786858499981
67008.75	0.0999941001646221	454	hunger	stimuli/non_foods\non-food_animate_iguana.jpg	1	4	1	non-food_animate_iguana	0	N	10	0	121	0		0	0	119.836875000037	119.936869100202
67046.25	0.0999215999618173	455	hunger	stimuli/non_foods\non-food_animate_slug.jpg	1	4	1	non-food_animate_slug	0	S	13	0	148	0		0	0	119.986918900162	120.086840500124
67083.75	0.0999993002042174	456	hunger	stimuli/foods\potato_and_green_bean_salad.jpg	1	4	1	potato_and_green_bean_salad	1	P	11	0	246	0		0	0	120.136852100026	120.23685140023
67121.25	0.0999870002269745	457	hunger	stimuli/foods\coconut.jpg	1	4	1	coconut	1	G	4	0	33	0		0	0	120.286872500088	120.386859500315
67158.75	0.100009499583393	458	hunger	stimuli/foods\rockmelon.jpg	1	4	1	rockmelon	1	M	9	0	262	0		0	0	120.436841000337	120.536850499921
67196.25	0.0999823999591172	459	hunger	stimuli/non_foods\non-food_animate_chicken.jpg	1	4	1	non-food_animate_chicken	0	P	11	0	101	0		0	0	120.586867100094	120.686849500053
67233.75	0.0999849997460842	460	hunger	stimuli/foods\lettuce.jpg	1	4	1	lettuce	1	X	17	0	75	0		0	0	120.736863000318	120.836848000064
67271.25	0.0999954999424517	461	hunger	stimuli/foods\dates.jpg	1	4	1	dates	1	J	6	0	43	0		0	0	120.886863000225	120.986858500168
67308.75	0.0999875003471971	462	hunger	stimuli/non_foods\non-food_animate_kangaroo.jpg	1	4	1	non-food_animate_kangaroo	0	R	12	0	122	0		0	0	121.036859699991	121.136847200338
67346.25	0.0999857997521758	463	hunger	stimuli/non_foods\non-food_animate_skunk.jpg	1	4	1	non-food_animate_skunk	0	S	13	0	147	0		0	0	121.186856000219	121.286841799971
67383.75	0.0999902002513409	464	hunger	stimuli/foods\cooked_ham.jpg	1	4	1	cooked_ham	1	L	8	0	35	0		0	0	121.336855500005	121.436845700257
67421.25	0.0999849000945687	465	hunger	stimuli/non_foods\non-food_animate_millipede.jpg	1	4	1	non-food_animate_millipede	0	W	16	0	129	0		0	0	121.486854000017	121.586838900112
67458.75	0.0999966999515891	466	hunger	stimuli/non_foods\non-food_animate_cat.jpg	1	4	1	non-food_animate_cat	0	X	17	0	98	0		0	0	121.636851000134	121.736847700085
67496.25	0.0999388000927866	467	hunger	stimuli/foods\cracker.jpg	1	4	1	cracker	1	C	1	0	38	0		0	0	121.786896000151	121.886834800243
67533.75	0.0999856004491448	468	hunger	stimuli/non_foods\non-food_inanimate_fire_extinguisher.jpg	1	4	1	non-food_inanimate_fire_extinguisher	0	V	15	0	181	0		0	0	121.936846999917	122.036832600366
67571.25	0.0999742997810245	469	hunger	stimuli/non_foods\non-food_inanimate_guitar.jpg	1	4	1	non-food_inanimate_guitar	0	G	4	0	185	0		0	0	122.086860000156	122.186834299937
67608.75	0.0999835003167391	470	hunger	stimuli/non_foods\non-food_inanimate_toy_airplane.jpg	1	4	1	non-food_inanimate_toy_airplane	0	R	12	0	222	0		0	0	122.23684519995	122.336828700267
67646.25	0.0999988000839949	471	hunger	stimuli/foods\rice.jpg	1	4	1	rice	1	G	4	0	257	0		0	0	122.386841100175	122.486839900259
67683.75	0.0999857997521758	472	hunger	stimuli/non_foods\non-food_inanimate_gloves.jpg	1	4	1	non-food_inanimate_gloves	0	C	1	0	183	0		0	0	122.536842100322	122.636827900074
67721.25	0.0999846002086997	473	hunger	stimuli/foods\savory_pie.jpg	1	4	1	savory_pie	1	G	4	0	265	0		0	0	122.686839200091	122.786823800299
67758.75	0.0999607001431286	474	hunger	stimuli/foods\oyster.jpg	1	4	1	oyster	1	J	6	0	233	0		0	0	122.836864999961	122.936825700104
67796.25	0.09998539974913	475	hunger	stimuli/foods\rice_cake.jpg	1	4	1	rice_cake	1	G	4	0	258	0		0	0	122.986836000346	123.086821400095
67833.75	0.0999834998510778	476	hunger	stimuli/foods\eggplant.jpg	1	4	1	eggplant	1	K	7	0	46	0		0	0	123.136834000237	123.236817500088
67871.25	0.0999801000580192	477	hunger	stimuli/foods\meatballs.jpg	1	4	1	meatballs	1	S	13	0	81	0		0	0	123.286834000144	123.386814100202
67908.75	0.100005900021642	478	hunger	stimuli/non_foods\non-food_animate_gorilla.jpg	1	4	1	non-food_animate_gorilla	0	D	2	0	116	0		0	0	123.43681380013	123.536819700152
67946.25	0.0999491000548005	479	hunger	stimuli/non_foods\non-food_animate_grasshopper.jpg	1	4	1	non-food_animate_grasshopper	0	B	0	0	117	0		0	0	123.586857200135	123.686806300189
67983.75	0.0999861997552216	480	hunger	stimuli/foods\green_olives.jpg	1	4	1	green_olives	1	T	14	0	62	0		0	0	123.736831500195	123.83681769995
68021.25	0.0999841997399926	481	hunger	stimuli/non_foods\non-food_inanimate_tree.jpg	1	4	1	non-food_inanimate_tree	0	C	1	0	223	0		0	0	123.886827600189	123.986811799929
68058.75	0.0999866998754442	482	hunger	stimuli/foods\cherry.jpg	1	4	1	cherry	1	S	13	0	23	0		0	0	124.036825300194	124.13681200007
68096.25	0.0999974003061652	483	hunger	stimuli/non_foods\non-food_animate_german_shepherd.jpg	1	4	1	non-food_animate_german_shepherd	0	H	5	0	114	0		0	0	124.186822399963	124.286819800269
68133.75	0.099989399779588	484	hunger	stimuli/foods\smoked_ham.jpg	1	4	1	smoked_ham	1	O	22	1	266	0		0	0	124.336819500197	124.436808899976
68171.25	0.0999814998358488	485	hunger	stimuli/non_foods\non-food_animate_ladybug.jpg	1	4	1	non-food_animate_ladybug	0	B	0	0	124	0		0	0	124.486819200218	124.586800700054
68208.75	0.099951199721545	486	hunger	stimuli/foods\spinach.jpg	1	4	1	spinach	1	G	4	0	268	0		0	0	124.636832800228	124.73678399995
68246.25	0.0999630000442266	487	hunger	stimuli/foods\celery.jpg	1	4	1	celery	1	K	7	0	21	1	a	0.541833799798042	1	124.786828400102	124.886791400146
68283.75	0.0999917997978628	488	hunger	stimuli/foods\lime.jpg	1	4	1	lime	1	B	0	0	76	0		0	0	124.936805500183	125.036797299981
68321.25	0.0999858002178371	489	hunger	stimuli/non_foods\non-food_animate_lion.jpg	1	4	1	non-food_animate_lion	0	Z	18	0	125	0		0	0	125.086804199964	125.186790000182
68358.75	0.100003100000322	490	hunger	stimuli/foods\tomato.jpg	1	4	1	tomato	1	X	17	0	276	0		0	0	125.23682080023	125.33682390023
68396.25	0.0999562996439636	491	hunger	stimuli/non_foods\non-food_animate_tortoise.jpg	1	4	1	non-food_animate_tortoise	0	S	13	0	153	0		0	0	125.386828500312	125.486784799956
68433.75	0.0999855999834836	492	hunger	stimuli/foods\croissant.jpg	1	4	1	croissant	1	G	4	0	40	0		0	0	125.536796600092	125.636782200076
68471.25	0.100019900128245	493	hunger	stimuli/foods\cereal.jpg	1	4	1	cereal	1	D	2	0	22	0		0	0	125.686779899988	125.786799800117
68508.75	0.099984799977392	494	hunger	stimuli/foods\chilli.jpg	1	4	1	chilli	1	V	15	0	25	0		0	0	125.83680200018	125.936786800157
68546.25	0.0999834998510778	495	hunger	stimuli/non_foods\non-food_inanimate_drum_set.jpg	1	4	1	non-food_inanimate_drum_set	0	P	11	0	179	0		0	0	125.986800600309	126.08678410016
68583.75	0.0999740003608167	496	hunger	stimuli/non_foods\non-food_animate_killer_whale.jpg	1	4	1	non-food_animate_killer_whale	0	W	16	0	123	0		0	0	126.136806699913	126.236780700274
68621.25	0.09998709987849	497	hunger	stimuli/foods\pear.jpg	1	4	1	pear	1	P	11	0	239	0		0	0	126.286795600317	126.386782700196
68658.75	0.0999771002680063	498	hunger	stimuli/foods\pancakes.jpg	1	4	1	pancakes	1	R	12	0	234	0		0	0	126.436802200042	126.53677930031
68696.25	0.0999898998998106	499	hunger	stimuli/non_foods\non-food_inanimate_table.jpg	1	4	1	non-food_inanimate_table	0	Z	18	0	217	0		0	0	126.586788900197	126.686778800096
68733.75	0.0999851003289223	500	hunger	stimuli/foods\chocolate_chip_cookies.jpg	1	4	1	chocolate_chip_cookies	1	M	9	0	27	0		0	0	126.736790800001	126.83677590033
68771.25	0.0999782998114824	501	hunger	stimuli/foods\strawberry.jpg	1	4	1	strawberry	1	P	11	0	272	0		0	0	126.886788300239	126.98676660005
68808.75	0.0999690997414291	502	hunger	stimuli/non_foods\non-food_inanimate_stapler.jpg	1	4	1	non-food_inanimate_stapler	0	L	8	0	213	0		0	0	127.036798300222	127.136767399963
68846.25	0.0999708003364503	503	hunger	stimuli/foods\brownie.jpg	1	4	1	brownie	1	G	4	0	14	0		0	0	127.186789799947	127.286760600284
68883.75	0.100007200147957	504	hunger	stimuli/non_foods\non-food_animate_bee.jpg	1	4	1	non-food_animate_bee	0	J	6	0	95	0		0	0	127.336760200094	127.436767400242
68921.25	0.0999969998374581	505	hunger	stimuli/non_foods\non-food_animate_raccoon.jpg	1	4	1	non-food_animate_raccoon	0	N	10	0	139	0		0	0	127.486782700289	127.586779700126
68958.75	0.0999847003258765	506	hunger	stimuli/foods\lentils.jpg	1	4	1	lentils	1	C	1	0	74	0		0	0	127.636778899934	127.73676360026
68996.25	0.0999837000854313	507	hunger	stimuli/non_foods\non-food_inanimate_sun_flower.jpg	1	4	1	non-food_inanimate_sun_flower	0	G	4	0	216	0		0	0	127.786780000199	127.886763700284
69033.75	0.0999894998967648	508	hunger	stimuli/non_foods\non-food_inanimate_skateboard.jpg	1	4	1	non-food_inanimate_skateboard	0	D	2	0	208	0		0	0	127.936769700143	128.03675920004
69071.25	0.0999833000823855	509	hunger	stimuli/non_foods\non-food_inanimate_speakers.jpg	1	4	1	non-food_inanimate_speakers	0	L	8	0	212	0		0	0	128.086775000207	128.18675830029
69108.75	0.099961900152266	510	hunger	stimuli/foods\nectarine.jpg	1	4	1	nectarine	1	J	6	0	87	0		0	0	128.236800900195	128.336762800347
69146.25	0.0999834998510778	511	hunger	stimuli/non_foods\non-food_animate_Causasian_man.jpg	1	4	1	non-food_animate_Causasian_man	0	D	2	0	89	0		0	0	128.386769900098	128.48675339995
69183.75	0.0999952000565827	512	hunger	stimuli/non_foods\non-food_animate_student_female.jpg	1	4	1	non-food_animate_student_female	0	R	12	0	151	0		0	0	128.536762000062	128.636757200118
69221.25	0.0999462003819644	513	hunger	stimuli/non_foods\non-food_inanimate_cactus_pot_plant.jpg	1	4	1	non-food_inanimate_cactus_pot_plant	0	H	5	0	169	0		0	0	128.686777899973	128.786724100355
69258.75	0.0999700999818742	514	hunger	stimuli/foods\waffle.jpg	1	4	1	waffle	1	S	13	0	278	0		0	0	128.836771100294	128.936741200276
69296.25	0.0999481999315321	515	hunger	stimuli/foods\fruit_salad.jpg	1	4	1	fruit_salad	1	N	10	0	55	0		0	0	128.986793600023	129.086741799954
69333.75	0.0999858998693526	516	hunger	stimuli/non_foods\non-food_animate_camel.jpg	1	4	1	non-food_animate_camel	0	Z	18	0	97	0		0	0	129.136753300205	129.236739200074
69371.25	0.0999912996776402	517	hunger	stimuli/foods\peach.jpg	1	4	1	peach	1	G	4	0	238	0		0	0	129.286754300352	129.38674560003
69408.75	0.0999737000092864	518	hunger	stimuli/foods\mortadella.jpg	1	4	1	mortadella	1	H	5	0	83	0		0	0	129.436770100147	129.536743800156
69446.25	0.0999865001067519	519	hunger	stimuli/non_foods\non-food_inanimate_shell.jpg	1	4	1	non-food_inanimate_shell	0	T	14	0	206	0		0	0	129.586756200064	129.686742700171
69483.75	0.100002799648792	520	hunger	stimuli/foods\omelette.jpg	1	4	1	omelette	1	C	1	0	228	0		0	0	129.736738600302	129.836741399951
69521.25	0.0999894998967648	521	hunger	stimuli/non_foods\non-food_inanimate_orchid.jpg	1	4	1	non-food_inanimate_orchid	0	N	10	0	198	0		0	0	129.88674960006	129.986739099957
69558.75	0.09999810019508	522	hunger	stimuli/non_foods\non-food_inanimate_fern.jpg	1	4	1	non-food_inanimate_fern	0	P	11	0	180	0		0	0	130.036748500075	130.13674660027
69596.25	0.0999834998510778	523	hunger	stimuli/foods\swordfish.jpg	1	4	1	swordfish	1	W	16	0	273	0		0	0	130.186754200142	130.286737699993
69633.75	0.100042600184679	524	hunger	stimuli/foods\radish.jpg	1	4	1	radish	1	M	9	0	251	0		0	0	130.336772600189	130.436815200374
69671.25	0.0999722997657955	525	hunger	stimuli/non_foods\non-food_inanimate_ring.jpg	1	4	1	non-food_inanimate_ring	0	H	5	0	203	0		0	0	130.486756100319	130.586728400085
69708.75	0.100008100271225	526	hunger	stimuli/non_foods\non-food_inanimate_broom.jpg	1	4	1	non-food_inanimate_broom	0	J	6	0	164	0		0	0	130.636730799917	130.736738900188
69746.25	0.0999937001615763	527	hunger	stimuli/non_foods\non-food_animate_bat.jpg	1	4	1	non-food_animate_bat	0	G	4	0	94	0		0	0	130.786742200144	130.886735900305
69783.75	0.0999862002208829	528	hunger	stimuli/foods\brussel_sprouts.jpg	1	4	1	brussel_sprouts	1	F	3	0	15	0		0	0	130.936738300137	131.036724500358
69821.25	0.0999891995452344	529	hunger	stimuli/non_foods\non-food_inanimate_nettle.jpg	1	4	1	non-food_inanimate_nettle	0	H	5	0	197	0		0	0	131.086735400371	131.186724599916
69858.75	0.09997049998492	530	hunger	stimuli/foods\watermelon.jpg	1	4	1	watermelon	1	F	3	0	279	0		0	0	131.236751100048	131.336721600033
69896.25	0.0999906999059021	531	hunger	stimuli/foods\minestrone_soup.jpg	1	4	1	minestrone_soup	1	P	11	0	82	0		0	0	131.386732300278	131.486723000184
69933.75	0.0999968000687659	532	hunger	stimuli/foods\toasted_bread_with_tomatoes.jpg	1	4	1	toasted_bread_with_tomatoes	1	J	6	0	275	0		0	0	131.536731900182	131.63672870025
69971.25	0.100019900128245	533	hunger	stimuli/non_foods\non-food_animate_young_girl.jpg	1	4	1	non-food_animate_young_girl	0	U	23	1	157	0		0	0	131.686706400011	131.786726300139
70008.75	0.0999777996912599	534	hunger	stimuli/non_foods\non-food_animate_pigeon.jpg	1	4	1	non-food_animate_pigeon	0	L	8	0	136	0		0	0	131.836726200301	131.936703999992
70046.25	0.0999770001508296	535	hunger	stimuli/foods\fried_calamari.jpg	1	4	1	fried_calamari	1	M	9	0	50	0		0	0	131.98672679998	132.086703800131
70083.75	0.0999910999089479	536	hunger	stimuli/non_foods\non-food_inanimate_jeans.jpg	1	4	1	non-food_inanimate_jeans	0	B	0	0	191	0		0	0	132.136713100132	132.236704200041
70121.25	0.100001700222492	537	hunger	stimuli/foods\green_beans.jpg	1	4	1	green_beans	1	N	10	0	61	0		0	0	132.286712599918	132.386714300141
70158.75	0.0999710001051426	538	hunger	stimuli/foods\steak.jpg	1	4	1	steak	1	F	3	0	270	0		0	0	132.436723500025	132.53669450013
70196.25	0.099977099802345	539	hunger	stimuli/non_foods\non-food_animate_mouse.jpg	1	4	1	non-food_animate_mouse	0	V	15	0	131	0		0	0	132.586719800252	132.686696900055
70233.75	0.0999774998053908	540	hunger	stimuli/non_foods\non-food_inanimate_cap.jpg	1	4	1	non-food_inanimate_cap	0	R	12	0	171	0		0	0	132.736717000138	132.836694499943
70271.25	0.0999801000580192	541	hunger	stimuli/non_foods\non-food_inanimate_clover.jpg	1	4	1	non-food_inanimate_clover	0	S	13	0	174	1	a	1.29182460019365	1	132.886708400212	132.98668850027
70308.75	0.0999901001341641	542	hunger	stimuli/foods\mussels.jpg	1	4	1	mussels	1	L	8	0	86	0		0	0	133.036702100188	133.136692200322
70346.25	0.0999871999956667	543	hunger	stimuli/foods\spring_onions.jpg	1	4	1	spring_onions	1	Z	18	0	269	0		0	0	133.186701300088	133.286688500084
70383.75	0.100009500049055	544	hunger	stimuli/foods\red_cabbage.jpg	1	4	1	red_cabbage	1	G	4	0	256	0		0	0	133.336698700208	133.436708200257
70421.25	0.0999817997217178	545	hunger	stimuli/non_foods\non-food_animate_seal.jpg	1	4	1	non-food_animate_seal	0	V	15	0	146	0		0	0	133.486702800263	133.586684599984
70458.75	0.0999854998663068	546	hunger	stimuli/foods\mango.jpg	1	4	1	mango	1	T	14	0	80	0		0	0	133.636696900241	133.736682400107
70496.25	0.0999746997840703	547	hunger	stimuli/non_foods\non-food_animate_squirrel.jpg	1	4	1	non-food_animate_squirrel	0	P	11	0	150	0		0	0	133.786703400314	133.886678100098
70533.5	0.0999818998388946	548	hunger	stimuli/foods\apricot.jpg	1	4	1	apricot	1	N	10	0	2	0		0	0	133.936693900265	134.036675800104
70571	0.100026799831539	549	hunger	stimuli/non_foods\non-food_inanimate_nailpolish.jpg	1	4	1	non-food_inanimate_nailpolish	0	M	9	0	195	0		0	0	134.086689300369	134.186716100201
70608.75	0.0999650000594556	550	hunger	stimuli/foods\oven-roasted_tomatoes.jpg	1	4	1	oven-roasted_tomatoes	1	L	8	0	232	0		0	0	134.236710200086	134.336675200146
70646	0.0999871003441513	551	hunger	stimuli/non_foods\non-food_animate_rhino.jpg	1	4	1	non-food_animate_rhino	0	C	1	0	141	0		0	0	134.386687099934	134.486674200278
70683.5	0.0999839999713004	552	hunger	stimuli/non_foods\non-food_inanimate_headphones.jpg	1	4	1	non-food_inanimate_headphones	0	L	8	0	188	0		0	0	134.536687999964	134.636671999935
70721	0.0999941001646221	553	hunger	stimuli/foods\chestnut.jpg	1	4	1	chestnut	1	B	0	0	24	0		0	0	134.686684200075	134.786678300239
70758.75	0.0999938999302685	554	hunger	stimuli/foods\broccoli.jpg	1	4	1	broccoli	1	X	17	0	13	0		0	0	134.83669110015	134.936685000081
70796	0.100002800114453	555	hunger	stimuli/non_foods\non-food_inanimate_tulip.jpg	1	4	1	non-food_inanimate_tulip	0	V	15	0	224	0		0	0	134.986672699917	135.086675500032
70833.75	0.0999858998693526	556	hunger	stimuli/foods\asparagus.jpg	1	4	1	asparagus	1	F	3	0	4	0		0	0	135.136685300153	135.236671200022
70871.25	0.0999754997901618	557	hunger	stimuli/foods\fruit_pie.jpg	1	4	1	fruit_pie	1	P	11	0	54	0		0	0	135.286696100142	135.386671599932
70908.75	0.099984799977392	558	hunger	stimuli/foods\almonds.jpg	1	4	1	almonds	1	C	1	0	0	0		0	0	135.436684000306	135.536668800283
70946.25	0.0999936000443995	559	hunger	stimuli/foods\garlic.jpg	1	4	1	garlic	1	K	7	0	56	0		0	0	135.58668190008	135.686675500125
71596.25	0.0999782998114824	560	hunger	stimuli/non_foods\non-food_inanimate_cupboard.jpg	1	5	1	non-food_inanimate_cupboard	0	C	1	0	177	0		0	0	138.186654600315	138.286632900126
71633.5	0.100009300280362	561	hunger	stimuli/foods\pasta_carbonara.jpg	1	5	1	pasta_carbonara	1	J	6	0	236	0		0	0	138.336624999996	138.436634300277
71671	0.0999878998845816	562	hunger	stimuli/foods\chocolate_pudding.jpg	1	5	1	chocolate_pudding	1	X	17	0	29	0		0	0	138.486651800107	138.586639699992
71708.5	0.0999908000230789	563	hunger	stimuli/foods\garlic.jpg	1	5	1	garlic	1	M	9	0	56	0		0	0	138.636644500308	138.736635300331
71746	0.100006599910557	564	hunger	stimuli/non_foods\non-food_animate_Asian_man.jpg	1	5	1	non-food_animate_Asian_man	0	C	1	0	88	0		0	0	138.786623500288	138.886630100198
71783.5	0.0999941998161376	565	hunger	stimuli/foods\orange.jpg	1	5	1	orange	1	J	6	0	230	0		0	0	138.936640700325	139.036634900142
71821.25	0.0999489002861083	566	hunger	stimuli/non_foods\non-food_animate_baby_crawling.jpg	1	5	1	non-food_animate_baby_crawling	0	R	12	0	92	0		0	0	139.086674700025	139.186623600312
71858.5	0.0999902999028563	567	hunger	stimuli/foods\lamb_chops.jpg	1	5	1	lamb_chops	1	P	11	0	70	0		0	0	139.236641400028	139.336631699931
71896	0.0999885001219809	568	hunger	stimuli/non_foods\non-food_inanimate_leaf.jpg	1	5	1	non-food_inanimate_leaf	0	C	1	0	192	0		0	0	139.386632100213	139.486620600335
71933.5	0.0999826998449862	569	hunger	stimuli/non_foods\non-food_animate_seal.jpg	1	5	1	non-food_animate_seal	0	W	16	0	146	0		0	0	139.536636200268	139.636618900113
71971	0.0999720999971032	570	hunger	stimuli/non_foods\non-food_inanimate_moss.jpg	1	5	1	non-food_inanimate_moss	0	G	4	0	194	0		0	0	139.686641400214	139.786613500211
72008.5	0.0999786001630127	571	hunger	stimuli/foods\honey.jpg	1	5	1	honey	1	K	7	0	66	0		0	0	139.83663390018	139.936612500343
72046	0.0999969001859426	572	hunger	stimuli/foods\radish.jpg	1	5	1	radish	1	P	11	0	251	0		0	0	139.98663080018	140.086627700366
72083.75	0.099969900213182	573	hunger	stimuli/foods\pea_pod.jpg	1	5	1	pea_pod	1	B	0	0	237	0		0	0	140.13663990004	140.236609800253
72121	0.0999880000017583	574	hunger	stimuli/non_foods\non-food_inanimate_jeans.jpg	1	5	1	non-food_inanimate_jeans	0	S	13	0	191	0		0	0	140.286626100074	140.386614100076
72158.5	0.0999718001112342	575	hunger	stimuli/foods\coconut.jpg	1	5	1	coconut	1	X	17	0	33	0		0	0	140.43663599994	140.536607800052
72196	0.099984799977392	576	hunger	stimuli/foods\lime.jpg	1	5	1	lime	1	Z	18	0	76	0		0	0	140.586620999966	140.686605799943
72233.5	0.100005900021642	577	hunger	stimuli/non_foods\non-food_inanimate_nest.jpg	1	5	1	non-food_inanimate_nest	0	N	10	0	196	0		0	0	140.736624100246	140.836630000267
72271	0.0999664999544621	578	hunger	stimuli/foods\risotto_with_peas_and_asparagus_tips.jpg	1	5	1	risotto_with_peas_and_asparagus_tips	1	W	16	0	259	0		0	0	140.886635600124	140.986602100078
72308.5	0.0999968000687659	579	hunger	stimuli/foods\bagel.jpg	1	5	1	bagel	1	N	10	0	6	0		0	0	141.036617300007	141.136614100076
72346	0.100004899781197	580	hunger	stimuli/non_foods\non-food_animate_runner.jpg	1	5	1	non-food_animate_runner	0	F	3	0	142	0		0	0	141.186595800333	141.286600700114
72383.5	0.0999869997613132	581	hunger	stimuli/non_foods\non-food_inanimate_nailpolish.jpg	1	5	1	non-food_inanimate_nailpolish	0	T	14	0	195	0		0	0	141.336608600337	141.436595600098
72421	0.0999884000048041	582	hunger	stimuli/non_foods\non-food_animate_young_girl.jpg	1	5	1	non-food_animate_young_girl	0	C	1	0	157	0		0	0	141.486607700121	141.586596100125
72458.5	0.0999835999682546	583	hunger	stimuli/non_foods\non-food_animate_swan.jpg	1	5	1	non-food_animate_swan	0	O	22	1	152	0		0	0	141.636605800129	141.736589400098
72496	0.100000400096178	584	hunger	stimuli/foods\mortadella.jpg	1	5	1	mortadella	1	H	5	0	83	0		0	0	141.78660449991	141.886604900006
72533.5	0.0999777000397444	585	hunger	stimuli/foods\red_cabbage.jpg	1	5	1	red_cabbage	1	W	16	0	256	0		0	0	141.936612999998	142.036590700038
72571	0.0999871003441513	586	hunger	stimuli/foods\pear.jpg	1	5	1	pear	1	J	6	0	239	1	a	0.541819199919701	1	142.086600699928	142.186587800272
72608.5	0.0999710997566581	587	hunger	stimuli/non_foods\non-food_inanimate_soccer_ball.jpg	1	5	1	non-food_inanimate_soccer_ball	0	G	4	0	210	0		0	0	142.23661290016	142.336583999917
72646	0.0999818998388946	588	hunger	stimuli/foods\peas.jpg	1	5	1	peas	1	T	14	0	240	0		0	0	142.386597900186	142.486579800025
72683.5	0.100000399630517	589	hunger	stimuli/foods\kiwi.jpg	1	5	1	kiwi	1	J	6	0	69	0		0	0	142.536611600313	142.636611999944
72721.25	0.0999479996971786	590	hunger	stimuli/non_foods\non-food_animate_gorilla.jpg	1	5	1	non-food_animate_gorilla	0	V	15	0	116	0		0	0	142.686630700249	142.786578699946
72758.5	0.0999891003593802	591	hunger	stimuli/foods\avocado.jpg	1	5	1	avocado	1	Z	18	0	5	0		0	0	142.836591599975	142.936580700334
72796	0.0999688003212214	592	hunger	stimuli/foods\salami.jpg	1	5	1	salami	1	G	4	0	263	0		0	0	142.986604799982	143.086573600303
72833.5	0.0999861001037061	593	hunger	stimuli/non_foods\non-food_animate_donkey.jpg	1	5	1	non-food_animate_donkey	0	F	3	0	107	0		0	0	143.136584599968	143.236570700072
72871	0.099985099863261	594	hunger	stimuli/foods\risotto_with_zucchini.jpg	1	5	1	risotto_with_zucchini	1	T	14	0	260	0		0	0	143.286586600356	143.386571700219
72908.5	0.0999865001067519	595	hunger	stimuli/foods\smoked_ham.jpg	1	5	1	smoked_ham	1	C	1	0	266	0		0	0	143.43658620026	143.536572700366
72946	0.099991399794817	596	hunger	stimuli/foods\lemon_meringue_pie.jpg	1	5	1	lemon_meringue_pie	1	F	3	0	73	0		0	0	143.586581500247	143.686572900042
72983.5	0.0999598000198603	597	hunger	stimuli/non_foods\non-food_inanimate_broom.jpg	1	5	1	non-food_inanimate_broom	0	V	15	0	164	0		0	0	143.736610100139	143.836569900159
73021	0.0999787002801895	598	hunger	stimuli/foods\figs.jpg	1	5	1	figs	1	S	13	0	48	0		0	0	143.886577799916	143.986556500196
73058.5	0.0999830001965165	599	hunger	stimuli/non_foods\non-food_animate_elephant.jpg	1	5	1	non-food_animate_elephant	0	D	2	0	111	0		0	0	144.036581200082	144.136564200278
73096	0.0999854998663068	600	hunger	stimuli/foods\chocolate_pralines.jpg	1	5	1	chocolate_pralines	1	X	17	0	28	0		0	0	144.186578300316	144.286563800182
73133.5	0.0999624999240041	601	hunger	stimuli/foods\chilli.jpg	1	5	1	chilli	1	Z	18	0	25	0		0	0	144.336596700363	144.436559200287
73171	0.0999755002558231	602	hunger	stimuli/non_foods\non-food_inanimate_fire_extinguisher.jpg	1	5	1	non-food_inanimate_fire_extinguisher	0	C	1	0	181	0		0	0	144.48658129992	144.586556800175
73208.5	0.0999871999956667	603	hunger	stimuli/foods\donut.jpg	1	5	1	donut	1	T	14	0	44	0		0	0	144.636569400318	144.736556600314
73246	0.0999866002239287	604	hunger	stimuli/non_foods\non-food_animate_seahorse.jpg	1	5	1	non-food_animate_seahorse	0	V	15	0	145	0		0	0	144.786568799987	144.886555400211
73283.5	0.0999586000107229	605	hunger	stimuli/foods\pineapple.jpg	1	5	1	pineapple	1	C	1	0	243	0		0	0	144.936566400342	145.036525000352
73321	0.100000999867916	606	hunger	stimuli/non_foods\non-food_inanimate_short_sleeved_shirt.jpg	1	5	1	non-food_inanimate_short_sleeved_shirt	0	J	6	0	207	0		0	0	145.086563700344	145.186564700212
73358.5	0.0999851999804378	607	hunger	stimuli/non_foods\non-food_animate_frog.jpg	1	5	1	non-food_animate_frog	0	M	9	0	113	0		0	0	145.236563800368	145.336549000349
73396	0.10003129998222	608	hunger	stimuli/foods\rice.jpg	1	5	1	rice	1	J	6	0	257	0		0	0	145.386559500359	145.486590800341
73433.5	0.0999636999331415	609	hunger	stimuli/foods\pork_and_rice.jpg	1	5	1	pork_and_rice	1	M	9	0	245	0		0	0	145.536577000283	145.636540700216
73471	0.099985099863261	610	hunger	stimuli/non_foods\non-food_animate_camel.jpg	1	5	1	non-food_animate_camel	0	J	6	0	97	0		0	0	145.686555600259	145.786540700123
73508.5	0.0999944000504911	611	hunger	stimuli/foods\beetroots.jpg	1	5	1	beetroots	1	W	16	0	10	0		0	0	145.836558400188	145.936552800238
73546	0.0999888996593654	612	hunger	stimuli/foods\cooked_prawn.jpg	1	5	1	cooked_prawn	1	K	7	0	36	0		0	0	145.986554600298	146.086543499958
73583.5	0.100015999749303	613	hunger	stimuli/foods\chestnut.jpg	1	5	1	chestnut	1	T	14	0	24	0		0	0	146.13655260019	146.236568599939
73621	0.0999759999103844	614	hunger	stimuli/foods\fruit_salad.jpg	1	5	1	fruit_salad	1	J	6	0	55	0		0	0	146.28656170005	146.38653769996
73658.5	0.0999861001037061	615	hunger	stimuli/non_foods\non-food_animate_mouse.jpg	1	5	1	non-food_animate_mouse	0	F	3	0	131	0		0	0	146.436547600199	146.536533700302
73696	0.0999982999637723	616	hunger	stimuli/non_foods\non-food_inanimate_protractor.jpg	1	5	1	non-food_inanimate_protractor	0	W	16	0	201	0		0	0	146.586546400096	146.68654470006
73733.5	0.0999877001158893	617	hunger	stimuli/foods\fennel.jpg	1	5	1	fennel	1	P	11	0	47	0		0	0	146.736544500105	146.836532200221
73771	0.0999676999635994	618	hunger	stimuli/non_foods\non-food_animate_tortoise.jpg	1	5	1	non-food_animate_tortoise	0	B	0	0	153	0		0	0	146.886543600354	146.986511300318
73808.5	0.0999909997917712	619	hunger	stimuli/non_foods\non-food_animate_cheetah.jpg	1	5	1	non-food_animate_cheetah	0	P	11	0	100	0		0	0	147.036539700348	147.13653070014
73846	0.0999980997294188	620	hunger	stimuli/non_foods\non-food_animate_horse.jpg	1	5	1	non-food_animate_horse	0	R	12	0	119	0		0	0	147.186540900264	147.286538999993
73883.5	0.099974500015378	621	hunger	stimuli/foods\ice_cream.jpg	1	5	1	ice_cream	1	I	21	1	68	0		0	0	147.336550000124	147.436524500139
73921	0.0999861001037061	622	hunger	stimuli/foods\cabbage.jpg	1	5	1	cabbage	1	N	10	0	16	0		0	0	147.486541000195	147.586527100299
73958.5	0.0999924996867776	623	hunger	stimuli/foods\celery.jpg	1	5	1	celery	1	H	5	0	21	0		0	0	147.636519700289	147.736512199976
73996	0.0999918002635241	624	hunger	stimuli/non_foods\non-food_inanimate_construction_helment.jpg	1	5	1	non-food_inanimate_construction_helment	0	V	15	0	175	0		0	0	147.786533500068	147.886525300331
74033.5	0.0999595001339912	625	hunger	stimuli/non_foods\non-food_inanimate_highlighter.jpg	1	5	1	non-food_inanimate_highlighter	0	J	6	0	189	0		0	0	147.93654520018	148.036504700314
74071	0.100011199712753	626	hunger	stimuli/non_foods\non-food_animate_green_bug.jpg	1	5	1	non-food_animate_green_bug	0	V	15	0	118	0		0	0	148.086503700353	148.186514900066
74108.5	0.0999843003228307	627	hunger	stimuli/non_foods\non-food_inanimate_stoplight.jpg	1	5	1	non-food_inanimate_stoplight	0	H	5	0	214	0		0	0	148.236528499983	148.336512800306
74146	0.0999950999394059	628	hunger	stimuli/foods\cauliflower.jpg	1	5	1	cauliflower	1	J	6	0	20	0		0	0	148.386524500325	148.486519600265
74183.5	0.09998709987849	629	hunger	stimuli/non_foods\non-food_inanimate_stapler.jpg	1	5	1	non-food_inanimate_stapler	0	L	8	0	213	0		0	0	148.536522600334	148.636509700213
74221	0.0999829997308552	630	hunger	stimuli/foods\rice_cake.jpg	1	5	1	rice_cake	1	D	2	0	258	0		0	0	148.68652380025	148.786506799981
74258.5	0.099984799977392	631	hunger	stimuli/foods\green_beans.jpg	1	5	1	green_beans	1	B	0	0	61	0		0	0	148.836518000346	148.936502800323
74296	0.0999711002223194	632	hunger	stimuli/non_foods\non-food_animate_chicken.jpg	1	5	1	non-food_animate_chicken	0	D	2	0	101	0		0	0	148.986516700126	149.086487800349
74333.5	0.0999890002422035	633	hunger	stimuli/non_foods\non-food_animate_polar_bear.jpg	1	5	1	non-food_animate_polar_bear	0	W	16	0	137	0		0	0	149.136510299984	149.236499300227
74371	0.0999763002619147	634	hunger	stimuli/non_foods\non-food_inanimate_waterlily.jpg	1	5	1	non-food_inanimate_waterlily	0	C	1	0	226	0		0	0	149.286506500095	149.386482800357
74408.5	0.0999916000291705	635	hunger	stimuli/foods\grilled_chicken_breast.jpg	1	5	1	grilled_chicken_breast	1	H	5	0	63	0		0	0	149.436501000077	149.536492600106
74446	0.100000899750739	636	hunger	stimuli/non_foods\non-food_animate_bat.jpg	1	5	1	non-food_animate_bat	0	P	11	0	94	0		0	0	149.5865120003	149.686512900051
74483.5	0.0999624999240041	637	hunger	stimuli/non_foods\non-food_animate_student_female.jpg	1	5	1	non-food_animate_student_female	0	N	10	0	151	0		0	0	149.736533000134	149.836495500058
74521	0.0999941998161376	638	hunger	stimuli/non_foods\non-food_inanimate_canoe.jpg	1	5	1	non-food_inanimate_canoe	0	H	5	0	170	0		0	0	149.886498700362	149.986492900178
74558.5	0.0999738001264632	639	hunger	stimuli/non_foods\non-food_animate_fox.jpg	1	5	1	non-food_animate_fox	0	T	14	0	112	0		0	0	150.036494900007	150.136468700133
74596	0.100016300100833	640	hunger	stimuli/foods\meatballs.jpg	1	5	1	meatballs	1	X	17	0	81	0		0	0	150.186481900048	150.286498200148
74633.5	0.0999776003882289	641	hunger	stimuli/non_foods\non-food_inanimate_bush.jpg	1	5	1	non-food_inanimate_bush	0	D	2	0	167	0		0	0	150.336496999953	150.436474600341
74671	0.0999867999926209	642	hunger	stimuli/foods\papaya.jpg	1	5	1	papaya	1	F	3	0	235	0		0	0	150.486492699943	150.586479499936
74708.5	0.0999829000793397	643	hunger	stimuli/foods\mussels.jpg	1	5	1	mussels	1	R	12	0	86	0		0	0	150.636488799937	150.736471700016
74746	0.100012100301683	644	hunger	stimuli/non_foods\non-food_inanimate_cactus_pot_plant.jpg	1	5	1	non-food_inanimate_cactus_pot_plant	0	D	2	0	169	0		0	0	150.786487800069	150.886499900371
74783.5	0.0999845997430384	645	hunger	stimuli/non_foods\non-food_inanimate_skateboard.jpg	1	5	1	non-food_inanimate_skateboard	0	V	15	0	208	0		0	0	150.936490000226	151.036474599969
74821	0.0999858998693526	646	hunger	stimuli/foods\stew_with_potatoes_and_carrots.jpg	1	5	1	stew_with_potatoes_and_carrots	1	C	1	0	271	0		0	0	151.086485600099	151.186471499968
74858.5	0.0999906999059021	647	hunger	stimuli/foods\fried_zucchini.jpg	1	5	1	fried_zucchini	1	R	12	0	51	0		0	0	151.236480700318	151.336471400224
74896	0.0999961998313665	648	hunger	stimuli/foods\cream_donuts.jpg	1	5	1	cream_donuts	1	S	13	0	39	0		0	0	151.38648320036	151.486479400191
