onset	duration	eventnumber	hunger_condition	stimfilename	blockno	trialno	is_faststream	stim	food_idx	letter	letter_idx	istarget	image_number	response	keypressed	rt	correct	time_stimon	time_stimoff
10890.5	0.099980500061065	0	hunger	stimuli/non_foods\non-food_animate_polar_bear.jpg	1	1	1	non-food_animate_polar_bear	0	W	16	0	137	0		0	0	59.5160293001682	59.6160098002292
10928	0.100042799953371	1	hunger	stimuli/non_foods\non-food_animate_student_female.jpg	1	1	1	non-food_animate_student_female	0	G	4	0	151	0		0	0	59.6660164999776	59.7660592999309
10965.5	0.0999630000442266	2	hunger	stimuli/foods\fried_zucchini.jpg	1	1	1	fried_zucchini	1	T	14	0	51	0		0	0	59.8160186000168	59.9159816000611
11003	0.0999797997064888	3	hunger	stimuli/foods\bagel.jpg	1	1	1	bagel	1	S	13	0	6	0		0	0	59.9660077001899	60.0659874998964
11040.5	0.0999939003959298	4	hunger	stimuli/non_foods\non-food_inanimate_lighter.jpg	1	1	1	non-food_inanimate_lighter	0	J	6	0	193	0		0	0	60.1160046998411	60.2159986002371
11078	0.0999878998845816	5	hunger	stimuli/foods\brownie.jpg	1	1	1	brownie	1	T	14	0	14	0		0	0	60.2660131002776	60.3660010001622
11115.5	0.09998539974913	6	hunger	stimuli/non_foods\non-food_inanimate_pine_cone.jpg	1	1	1	non-food_inanimate_pine_cone	0	V	15	0	200	0		0	0	60.4160124002956	60.5159978000447
11153	0.0999720999971032	7	hunger	stimuli/non_foods\non-food_inanimate_tree.jpg	1	1	1	non-food_inanimate_tree	0	W	16	0	223	0		0	0	60.5660244002938	60.6659965002909
11190.5	0.10000460036099	8	hunger	stimuli/non_foods\non-food_inanimate_wrench.jpg	1	1	1	non-food_inanimate_wrench	0	M	9	0	227	0		0	0	60.7160129998811	60.816017600242
11228	0.0999606000259519	9	hunger	stimuli/non_foods\non-food_inanimate_bicycle.jpg	1	1	1	non-food_inanimate_bicycle	0	W	16	0	161	0		0	0	60.8660296001472	60.9659902001731
11265.5	0.0999855999834836	10	hunger	stimuli/non_foods\non-food_inanimate_orchid.jpg	1	1	1	non-food_inanimate_orchid	0	X	17	0	198	0		0	0	61.0160059998743	61.1159915998578
11303	0.0999822001904249	11	hunger	stimuli/non_foods\non-food_animate_elephant.jpg	1	1	1	non-food_animate_elephant	0	R	12	0	111	0		0	0	61.1660072999075	61.2659895000979
11340.5	0.0999865997582674	12	hunger	stimuli/foods\eggplant.jpg	1	1	1	eggplant	1	V	15	0	46	0		0	0	61.3160005002283	61.4159870999865
11378	0.0997679997235537	13	hunger	stimuli/non_foods\non-food_inanimate_toilet.jpg	1	1	1	non-food_inanimate_toilet	0	W	16	0	220	0		0	0	61.4662331002764	61.5660011
11415.5	0.0999908996745944	14	hunger	stimuli/foods\taco.jpg	1	1	1	taco	1	S	13	0	274	0		0	0	61.6159935002215	61.7159843998961
11453	0.0999731998890638	15	hunger	stimuli/non_foods\non-food_inanimate_nailpolish.jpg	1	1	1	non-food_inanimate_nailpolish	0	C	1	0	195	0		0	0	61.765997200273	61.865970400162
11490.5	0.0999683998525143	16	hunger	stimuli/foods\red_beans.jpg	1	1	1	red_beans	1	V	15	0	255	0		0	0	61.9160134000704	62.0159817999229
11528	0.0999849000945687	17	hunger	stimuli/foods\rice_cake.jpg	1	1	1	rice_cake	1	T	14	0	258	0		0	0	62.0659954999574	62.1659804000519
11565.5	0.0999886998906732	18	hunger	stimuli/non_foods\non-food_inanimate_ring.jpg	1	1	1	non-food_inanimate_ring	0	M	9	0	203	0		0	0	62.2159922001883	62.315980900079
11603	0.0999861001037061	19	hunger	stimuli/foods\artichoke.jpg	1	1	1	artichoke	1	K	7	0	3	0		0	0	62.3659924999811	62.4659786000848
11640.5	0.1000188998878	20	hunger	stimuli/non_foods\non-food_inanimate_horn.jpg	1	1	1	non-food_inanimate_horn	0	B	0	0	190	0		0	0	62.5159958000295	62.6160146999173
11678	0.0999496998265386	21	hunger	stimuli/foods\potatoes.jpg	1	1	1	potatoes	1	M	9	0	248	0		0	0	62.6660223002546	62.7659720000811
11715.5	0.0999837000854313	22	hunger	stimuli/foods\asparagus.jpg	1	1	1	asparagus	1	D	2	0	4	0		0	0	62.8159889001399	62.9159726002254
11753	0.0999833000823855	23	hunger	stimuli/non_foods\non-food_animate_cheetah.jpg	1	1	1	non-food_animate_cheetah	0	S	13	0	100	0		0	0	62.9659858001396	63.065969100222
11790.5	0.0999777000397444	24	hunger	stimuli/foods\orange.jpg	1	1	1	orange	1	Z	18	0	230	0		0	0	63.1159836999141	63.2159613999538
11828	0.0999837997369468	25	hunger	stimuli/foods\mango.jpg	1	1	1	mango	1	C	1	0	80	0		0	0	63.2659829002805	63.3659667000175
11865.5	0.0999854998663068	26	hunger	stimuli/non_foods\non-food_inanimate_nettle.jpg	1	1	1	non-food_inanimate_nettle	0	J	6	0	197	0		0	0	63.4159810002893	63.5159665001556
11903	0.0999754997901618	27	hunger	stimuli/foods\swordfish.jpg	1	1	1	swordfish	1	H	5	0	273	0		0	0	63.5659857001156	63.6659611999057
11940.5	0.099983099848032	28	hunger	stimuli/foods\croissant.jpg	1	1	1	croissant	1	C	1	0	40	0		0	0	63.7159807002172	63.8159638000652
11978	0.0999806998297572	29	hunger	stimuli/foods\rockmelon.jpg	1	1	1	rockmelon	1	R	12	0	262	0		0	0	63.865978400223	63.9659591000527
12015.5	0.0999841000884771	30	hunger	stimuli/foods\risotto_with_zucchini.jpg	1	1	1	risotto_with_zucchini	1	J	6	0	260	0		0	0	64.0159729002044	64.1159570002928
12053	0.0999900996685028	31	hunger	stimuli/non_foods\non-food_inanimate_bush.jpg	1	1	1	non-food_inanimate_bush	0	M	9	0	167	0		0	0	64.1659726002254	64.2659626998939
12090.5	0.09999980032444	32	hunger	stimuli/non_foods\non-food_animate_green_bug.jpg	1	1	1	non-food_animate_green_bug	0	R	12	0	118	0		0	0	64.3159723998979	64.4159722002223
12128	0.0999682997353375	33	hunger	stimuli/foods\lasagna.jpg	1	1	1	lasagna	1	T	14	0	71	0		0	0	64.4659902001731	64.5659584999084
12165.5	0.0999755002558231	34	hunger	stimuli/foods\pickles.jpg	1	1	1	pickles	1	C	1	0	242	0		0	0	64.6159781999886	64.7159537002444
12203	0.0999839999713004	35	hunger	stimuli/non_foods\non-food_inanimate_toy_airplane.jpg	1	1	1	non-food_inanimate_toy_airplane	0	M	9	0	222	0		0	0	64.765968200285	64.8659522002563
12240.5	0.099978500045836	36	hunger	stimuli/foods\nectarine.jpg	1	1	1	nectarine	1	S	13	0	87	0		0	0	64.9159559998661	65.015934499912
12278	0.100000000093132	37	hunger	stimuli/foods\brie.jpg	1	1	1	brie	1	M	9	0	12	0		0	0	65.0659483000636	65.1659483001567
12315.5	0.0999831003136933	38	hunger	stimuli/foods\cucumber.jpg	1	1	1	cucumber	1	V	15	0	41	0		0	0	65.2159628998488	65.3159460001625
12353	0.0999982999637723	39	hunger	stimuli/foods\oven-roasted_tomatoes.jpg	1	1	1	oven-roasted_tomatoes	1	M	9	0	232	0		0	0	65.3659618999809	65.4659601999447
12390.5	0.0999841997399926	40	hunger	stimuli/non_foods\non-food_animate_snail.jpg	1	1	1	non-food_animate_snail	0	R	12	0	149	0		0	0	65.5159617001191	65.6159458998591
12428	0.100003600120544	41	hunger	stimuli/non_foods\non-food_inanimate_cactus_pot_plant.jpg	1	1	1	non-food_inanimate_cactus_pot_plant	0	S	13	0	169	0		0	0	65.6659305999056	65.7659342000261
12465.5	0.0999869001097977	42	hunger	stimuli/foods\cabbage.jpg	1	1	1	cabbage	1	R	12	0	16	0		0	0	65.8159555001184	65.9159424002282
12503	0.0999900000169873	43	hunger	stimuli/non_foods\non-food_animate_dachshund.jpg	1	1	1	non-food_animate_dachshund	0	C	1	0	104	0		0	0	65.9659501998685	66.0659401998855
12540.5	0.0999632999300957	44	hunger	stimuli/non_foods\non-food_animate_kangaroo.jpg	1	1	1	non-food_animate_kangaroo	0	H	5	0	122	0		0	0	66.1159756002016	66.2159389001317
12578	0.0999817997217178	45	hunger	stimuli/non_foods\non-food_animate_giraffe.jpg	1	1	1	non-food_animate_giraffe	0	X	17	0	115	0		0	0	66.2659526001662	66.3659343998879
12615.5	0.0999628999270499	46	hunger	stimuli/non_foods\non-food_inanimate_tulip.jpg	1	1	1	non-food_inanimate_tulip	0	R	12	0	224	0		0	0	66.4159490000457	66.5159118999727
12653	0.0999964000657201	47	hunger	stimuli/non_foods\non-food_animate_pigeon.jpg	1	1	1	non-food_animate_pigeon	0	J	6	0	136	0		0	0	66.5659352000803	66.665931600146
12690.5	0.0999805997125804	48	hunger	stimuli/non_foods\non-food_animate_Asian_man.jpg	1	1	1	non-food_animate_Asian_man	0	B	0	0	88	0		0	0	66.7159465001896	66.8159270999022
12728	0.099987399764359	49	hunger	stimuli/non_foods\non-food_inanimate_fire_extinguisher.jpg	1	1	1	non-food_inanimate_fire_extinguisher	0	C	1	0	181	0		0	0	66.865941000171	66.9659283999354
12765.5	0.0999823999591172	50	hunger	stimuli/foods\avocado.jpg	1	1	1	avocado	1	F	3	0	5	0		0	0	67.0159427002072	67.1159251001664
12803	0.100019900128245	51	hunger	stimuli/foods\carrot.jpg	1	1	1	carrot	1	K	7	0	19	0		0	0	67.1659392998554	67.2659591999836
12840.5	0.0999786001630127	52	hunger	stimuli/non_foods\non-food_inanimate_rope.jpg	1	1	1	non-food_inanimate_rope	0	P	11	0	204	0		0	0	67.3159461999312	67.4159248000942
12878	0.0999925001524389	53	hunger	stimuli/foods\prawn.jpg	1	1	1	prawn	1	G	4	0	249	0		0	0	67.4659373001195	67.565929800272
12915.5	0.0999871003441513	54	hunger	stimuli/foods\salmon.jpg	1	1	1	salmon	1	A	19	1	264	0		0	0	67.6159363999031	67.7159235002473
12953	0.0999937998130918	55	hunger	stimuli/non_foods\non-food_animate_young_girl.jpg	1	1	1	non-food_animate_young_girl	0	M	9	0	157	0		0	0	67.7659336002544	67.8659274000674
12990.5	0.0999814001843333	56	hunger	stimuli/non_foods\non-food_inanimate_couch.jpg	1	1	1	non-food_inanimate_couch	0	V	15	0	176	0		0	0	67.9159514000639	68.0159328002483
13028	0.0999743998982012	57	hunger	stimuli/non_foods\non-food_animate_slug.jpg	1	1	1	non-food_animate_slug	0	D	2	0	148	1	a	0.443274199962616	1	68.0659309001639	68.1659053000621
13065.5	0.0999618000350893	58	hunger	stimuli/non_foods\non-food_inanimate_desk.jpg	1	1	1	non-food_inanimate_desk	0	G	4	0	178	0		0	0	68.2159513002262	68.3159131002612
13103	0.100003300234675	59	hunger	stimuli/non_foods\non-food_animate_ant.jpg	1	1	1	non-food_animate_ant	0	V	15	0	91	0		0	0	68.3659053998999	68.4659087001346
13140.5	0.0999855999834836	60	hunger	stimuli/non_foods\non-food_inanimate_stoplight.jpg	1	1	1	non-food_inanimate_stoplight	0	C	1	0	214	0		0	0	68.5159219000489	68.6159075000323
13178	0.0999955995939672	61	hunger	stimuli/foods\broccoli.jpg	1	1	1	broccoli	1	P	11	0	13	0		0	0	68.6659174002707	68.7659129998647
13215.5	0.0999957998283207	62	hunger	stimuli/non_foods\non-food_inanimate_highlighter.jpg	1	1	1	non-food_inanimate_highlighter	0	D	2	0	189	0		0	0	68.8159226002172	68.9159184000455
13253	0.0999834998510778	63	hunger	stimuli/foods\lollies.jpg	1	1	1	lollies	1	X	17	0	78	0		0	0	68.9659233000129	69.065906799864
13290.5	0.0999867999926209	64	hunger	stimuli/foods\salami.jpg	1	1	1	salami	1	N	10	0	263	0		0	0	69.1159200002439	69.2159068002366
13328	0.0999815003015101	65	hunger	stimuli/non_foods\non-food_animate_swan.jpg	1	1	1	non-food_animate_swan	0	T	14	0	152	0		0	0	69.2659217999317	69.3659033002332
13365.5	0.0999730001203716	66	hunger	stimuli/non_foods\non-food_animate_iguana.jpg	1	1	1	non-food_animate_iguana	0	B	0	0	121	0		0	0	69.4159141001292	69.5158871002495
13403	0.0999978999607265	67	hunger	stimuli/foods\hotdog.jpg	1	1	1	hotdog	1	S	13	0	67	0		0	0	69.5659278002568	69.6659257002175
13440.5	0.0999401002191007	68	hunger	stimuli/foods\hamburger.jpg	1	1	1	hamburger	1	C	1	0	64	0		0	0	69.7159581999294	69.8158983001485
13478	0.0999874002300203	69	hunger	stimuli/non_foods\non-food_animate_gorilla.jpg	1	1	1	non-food_animate_gorilla	0	P	11	0	116	0		0	0	69.8659091000445	69.9658965002745
13515.5	0.0999823003076017	70	hunger	stimuli/foods\chilli.jpg	1	1	1	chilli	1	N	10	0	25	0		0	0	70.0159134999849	70.1158958002925
13553	0.0999838002026081	71	hunger	stimuli/non_foods\non-food_animate_bat.jpg	1	1	1	non-food_animate_bat	0	V	15	0	94	0		0	0	70.1659083999693	70.2658922001719
13590.5	0.0999874998815358	72	hunger	stimuli/foods\watermelon.jpg	1	1	1	watermelon	1	T	14	0	279	0		0	0	70.3159074001014	70.415894899983
13628	0.0999929001554847	73	hunger	stimuli/foods\spring_onions.jpg	1	1	1	spring_onions	1	D	2	0	269	0		0	0	70.465885899961	70.5658788001165
13665.5	0.0999843999743462	74	hunger	stimuli/non_foods\non-food_animate_alligator.jpg	1	1	1	non-food_animate_alligator	0	F	3	0	90	0		0	0	70.6159041002393	70.7158885002136
13703	0.099974200129509	75	hunger	stimuli/foods\rice.jpg	1	1	1	rice	1	V	15	0	257	0		0	0	70.7659168001264	70.8658910002559
13740.5	0.099989099893719	76	hunger	stimuli/foods\raisins.jpg	1	1	1	raisins	1	S	13	0	252	0		0	0	70.9158982001245	71.0158873000182
13778	0.099987699650228	77	hunger	stimuli/non_foods\non-food_animate_grasshopper.jpg	1	1	1	non-food_animate_grasshopper	0	G	4	0	117	0		0	0	71.0658976002596	71.1658852999099
13815.5	0.0999839999713004	78	hunger	stimuli/non_foods\non-food_inanimate_skirt.jpg	1	1	1	non-food_inanimate_skirt	0	H	5	0	209	0		0	0	71.2158972001635	71.3158812001348
13853	0.100000699982047	79	hunger	stimuli/non_foods\non-food_animate_chicken.jpg	1	1	1	non-food_animate_chicken	0	F	3	0	101	0		0	0	71.3659022999927	71.4659029999748
13890.5	0.0999451000243425	80	hunger	stimuli/foods\corncob.jpg	1	1	1	corncob	1	N	10	0	37	0		0	0	71.5159212001599	71.6158663001843
13928	0.100010199937969	81	hunger	stimuli/foods\capsicum.jpg	1	1	1	capsicum	1	W	16	0	18	0		0	0	71.6658692001365	71.7658794000745
13965.5	0.0999888000078499	82	hunger	stimuli/foods\blackberry.jpg	1	1	1	blackberry	1	D	2	0	11	0		0	0	71.8158887000754	71.9158775000833
14003	0.0999835999682546	83	hunger	stimuli/foods\cooked_ham.jpg	1	1	1	cooked_ham	1	V	15	0	35	0		0	0	71.9658917998895	72.0658753998578
14040.5	0.0999866998754442	84	hunger	stimuli/foods\grapes.jpg	1	1	1	grapes	1	G	4	0	60	0		0	0	72.1158854002133	72.2158721000887
14078	0.0999821000732481	85	hunger	stimuli/foods\oregano.jpg	1	1	1	oregano	1	W	16	0	231	0		0	0	72.2658886001445	72.3658707002178
14115.5	0.0999857001006603	86	hunger	stimuli/non_foods\non-food_inanimate_folding_chair.jpg	1	1	1	non-food_inanimate_folding_chair	0	S	13	0	182	0		0	0	72.4158844999038	72.5158702000044
14153	0.099980500061065	87	hunger	stimuli/non_foods\non-food_inanimate_speakers.jpg	1	1	1	non-food_inanimate_speakers	0	W	16	0	212	0		0	0	72.5658888998441	72.6658693999052
14190.5	0.0999815999530256	88	hunger	stimuli/foods\apple.jpg	1	1	1	apple	1	V	15	0	1	0		0	0	72.715884800069	72.8158664000221
14228	0.0999857001006603	89	hunger	stimuli/foods\pasta_carbonara.jpg	1	1	1	pasta_carbonara	1	R	12	0	236	0		0	0	72.8658798001707	72.9658655002713
14265.5	0.0999868996441364	90	hunger	stimuli/foods\cream_donuts.jpg	1	1	1	cream_donuts	1	D	2	0	39	0		0	0	73.0158807002008	73.1158675998449
14303	0.0999567001126707	91	hunger	stimuli/foods\cannoli.jpg	1	1	1	cannoli	1	K	7	0	17	0		0	0	73.1658809999935	73.2658377001062
14340.5	0.0999806001782417	92	hunger	stimuli/foods\raw_ham.jpg	1	1	1	raw_ham	1	L	8	0	253	0		0	0	73.315874800086	73.4158554002643
14378	0.0999998999759555	93	hunger	stimuli/non_foods\non-food_inanimate_jeans.jpg	1	1	1	non-food_inanimate_jeans	0	M	9	0	191	0		0	0	73.4658634001389	73.5658633001149
14415.5	0.0999635001644492	94	hunger	stimuli/foods\cherry.jpg	1	1	1	cherry	1	G	4	0	23	0		0	0	73.6158715998754	73.7158351000398
14453	0.0999953001737595	95	hunger	stimuli/foods\chocolate_pralines.jpg	1	1	1	chocolate_pralines	1	K	7	0	28	0		0	0	73.7658639000729	73.8658592002466
14490.5	0.0999759999103844	96	hunger	stimuli/foods\pumpkin.jpg	1	1	1	pumpkin	1	W	16	0	250	0		0	0	73.9158731000498	74.0158490999602
14528	0.0999859999865294	97	hunger	stimuli/non_foods\non-food_animate_seahorse.jpg	1	1	1	non-food_animate_seahorse	0	D	2	0	145	0		0	0	74.0658613000996	74.1658473000862
14565.5	0.0999631001614034	98	hunger	stimuli/foods\chocolate_bar.jpg	1	1	1	chocolate_bar	1	H	5	0	26	0		0	0	74.2158707999624	74.3158339001238
14603	0.0999596999026835	99	hunger	stimuli/non_foods\non-food_inanimate_bowling_ball.jpg	1	1	1	non-food_inanimate_bowling_ball	0	J	6	0	162	0		0	0	74.3658888000064	74.465848499909
14640.5	0.0999885001219809	100	hunger	stimuli/non_foods\non-food_inanimate_moss.jpg	1	1	1	non-food_inanimate_moss	0	W	16	0	194	0		0	0	74.5158625999466	74.6158511000685
14678	0.0999861001037061	101	hunger	stimuli/foods\ice_cream.jpg	1	1	1	ice_cream	1	H	5	0	68	0		0	0	74.6658613001928	74.7658474002965
14715.5	0.0999906999059021	102	hunger	stimuli/foods\strawberry.jpg	1	1	1	strawberry	1	N	10	0	272	0		0	0	74.8158586001955	74.9158493001014
14753	0.0999849000945687	103	hunger	stimuli/foods\figs.jpg	1	1	1	figs	1	G	4	0	48	0		0	0	74.9658738998696	75.0658587999642
14790.5	0.0999614000320435	104	hunger	stimuli/non_foods\non-food_animate_sea_turtle.jpg	1	1	1	non-food_animate_sea_turtle	0	J	6	0	144	0		0	0	75.1158802001737	75.2158416002057
14828	0.0999944997020066	105	hunger	stimuli/non_foods\non-food_animate_hummingbird.jpg	1	1	1	non-food_animate_hummingbird	0	C	1	0	120	0		0	0	75.2658474002965	75.3658418999985
14865.5	0.0999811999499798	106	hunger	stimuli/foods\cauliflower.jpg	1	1	1	cauliflower	1	W	16	0	20	0		0	0	75.415856000036	75.515837199986
14903	0.0999803999438882	107	hunger	stimuli/foods\savory_pie.jpg	1	1	1	savory_pie	1	V	15	0	265	0		0	0	75.565857199952	75.6658375998959
14940.5	0.0999837997369468	108	hunger	stimuli/non_foods\non-food_inanimate_buds.jpg	1	1	1	non-food_inanimate_buds	0	Z	18	0	166	0		0	0	75.7158519001678	75.8158356999047
14978	0.0999878998845816	109	hunger	stimuli/non_foods\non-food_animate_millipede.jpg	1	1	1	non-food_animate_millipede	0	F	3	0	129	0		0	0	75.8658477002755	75.9658356001601
15015.5	0.0999924000352621	110	hunger	stimuli/non_foods\non-food_inanimate_alarm_clock.jpg	1	1	1	non-food_inanimate_alarm_clock	0	N	10	0	158	0		0	0	76.0158456000499	76.1158380000852
15053	0.0999826001934707	111	hunger	stimuli/foods\cereal.jpg	1	1	1	cereal	1	D	2	0	22	0		0	0	76.1658478998579	76.2658305000514
15090.5	0.0999867999926209	112	hunger	stimuli/non_foods\non-food_animate_dolphin.jpg	1	1	1	non-food_animate_dolphin	0	Z	18	0	106	0		0	0	76.3158424999565	76.4158292999491
15128	0.100001499988139	113	hunger	stimuli/non_foods\non-food_animate_woman.jpg	1	1	1	non-food_animate_woman	0	P	11	0	154	0		0	0	76.4658412998542	76.5658427998424
15165.5	0.0999889997765422	114	hunger	stimuli/foods\tomato.jpg	1	1	1	tomato	1	K	7	0	276	0		0	0	76.615843700245	76.7158327000216
15203	0.0999550996348262	115	hunger	stimuli/non_foods\non-food_inanimate_chandelier.jpg	1	1	1	non-food_inanimate_chandelier	0	M	9	0	173	0		0	0	76.7658629002981	76.8658179999329
15240.5	0.0999841000884771	116	hunger	stimuli/foods\risotto_with_peas_and_asparagus_tips.jpg	1	1	1	risotto_with_peas_and_asparagus_tips	1	G	4	0	259	0		0	0	76.9158331002109	77.0158172002994
15278	0.0999859999865294	117	hunger	stimuli/foods\raw_sausage.jpg	1	1	1	raw_sausage	1	D	2	0	254	0		0	0	77.0658316998743	77.1658176998608
15315.5	0.0999834998510778	118	hunger	stimuli/non_foods\non-food_inanimate_hay.jpg	1	1	1	non-food_inanimate_hay	0	N	10	0	187	0		0	0	77.2158272000961	77.3158106999472
15353	0.100003200117499	119	hunger	stimuli/foods\green_beans.jpg	1	1	1	green_beans	1	S	13	0	61	0		0	0	77.3658166001551	77.4658198002726
15390.5	0.099985099863261	120	hunger	stimuli/foods\apricot.jpg	1	1	1	apricot	1	U	23	1	2	0		0	0	77.5158307002857	77.615815800149
15428	0.0999740995466709	121	hunger	stimuli/non_foods\non-food_animate_monkey.jpg	1	1	1	non-food_animate_monkey	0	V	15	0	130	0		0	0	77.6658288002945	77.7658028998412
15465.5	0.0999873001128435	122	hunger	stimuli/foods\oyster.jpg	1	1	1	oyster	1	Z	18	0	233	0		0	0	77.8158228001557	77.9158101002686
15503	0.0999930999241769	123	hunger	stimuli/foods\cinnamon_sroll.jpg	1	1	1	cinnamon_sroll	1	F	3	0	31	0		0	0	77.9658185001463	78.0658116000704
15540.5	0.099983099848032	124	hunger	stimuli/foods\banana.jpg	1	1	1	banana	1	K	7	0	9	0		0	0	78.1158197000623	78.2158027999103
15578	0.0999866998754442	125	hunger	stimuli/foods\hazelnuts.jpg	1	1	1	hazelnuts	1	H	5	0	65	0		0	0	78.2658167001791	78.3658034000546
15615.5	0.100015100091696	126	hunger	stimuli/non_foods\non-food_animate_raccoon.jpg	1	1	1	non-food_animate_raccoon	0	W	16	0	139	0		0	0	78.4158148001879	78.5158299002796
15653	0.0999421998858452	127	hunger	stimuli/non_foods\non-food_animate_seal.jpg	1	1	1	non-food_animate_seal	0	J	6	0	146	0		0	0	78.5658374000341	78.6657795999199
15690.5	0.0999801000580192	128	hunger	stimuli/non_foods\non-food_inanimate_protractor.jpg	1	1	1	non-food_inanimate_protractor	0	V	15	0	201	0		0	0	78.7158145001158	78.8157946001738
15728	0.0999678000807762	129	hunger	stimuli/non_foods\non-food_inanimate_shell.jpg	1	1	1	non-food_inanimate_shell	0	T	14	0	206	1	a	1.35637109959498	1	78.8658121000044	78.9657799000852
15765.5	0.0999881001189351	130	hunger	stimuli/non_foods\non-food_animate_young_boy.jpg	1	1	1	non-food_animate_young_boy	0	L	8	0	156	0		0	0	79.0158143001609	79.1158024002798
15803	0.0999961001798511	131	hunger	stimuli/non_foods\non-food_animate_lizard.jpg	1	1	1	non-food_animate_lizard	0	C	1	0	126	0		0	0	79.1658067000099	79.2658028001897
15840.5	0.0999833000823855	132	hunger	stimuli/non_foods\non-food_inanimate_broom.jpg	1	1	1	non-food_inanimate_broom	0	K	7	0	164	0		0	0	79.315816000104	79.4157993001863
15878	0.100002699997276	133	hunger	stimuli/foods\fruit_pie.jpg	1	1	1	fruit_pie	1	F	3	0	54	0		0	0	79.4657884999178	79.5657911999151
15915.5	0.0999859999865294	134	hunger	stimuli/foods\fennel.jpg	1	1	1	fennel	1	N	10	0	47	0		0	0	79.6158034000546	79.7157894000411
15953	0.0999869001097977	135	hunger	stimuli/foods\pineapple.jpg	1	1	1	pineapple	1	G	4	0	243	0		0	0	79.7658025999554	79.8657895000651
15990.5	0.099974500015378	136	hunger	stimuli/non_foods\non-food_animate_ram.jpg	1	1	1	non-food_animate_ram	0	W	16	0	140	0		0	0	79.9158010999672	80.0157755999826
16028	0.100010599941015	137	hunger	stimuli/non_foods\non-food_animate_donkey.jpg	1	1	1	non-food_animate_donkey	0	R	12	0	107	0		0	0	80.0657807001844	80.1657913001254
16065.5	0.100015399977565	138	hunger	stimuli/foods\brussel_sprouts.jpg	1	1	1	brussel_sprouts	1	V	15	0	15	0		0	0	80.2157987002283	80.3158141002059
16103	0.0999385002069175	139	hunger	stimuli/non_foods\non-food_inanimate_fern.jpg	1	1	1	non-food_inanimate_fern	0	Z	18	0	180	0		0	0	80.3658487000503	80.4657872002572
17098.75	0.0999432997778058	140	hunger	stimuli/non_foods\non-food_animate_Causasian_man.jpg	1	2	1	non-food_animate_Causasian_man	0	C	1	0	89	0		0	0	84.3491370002739	84.4490803000517
17136.25	0.0999817000702024	141	hunger	stimuli/foods\celery.jpg	1	2	1	celery	1	X	17	0	21	0		0	0	84.4990926999599	84.5990744000301
17173.75	0.0999839003197849	142	hunger	stimuli/foods\chocolate_pudding.jpg	1	2	1	chocolate_pudding	1	G	4	0	29	0		0	0	84.6490919999778	84.7490759002976
17211.25	0.0999863999895751	143	hunger	stimuli/foods\toasted_bread_with_tomatoes.jpg	1	2	1	toasted_bread_with_tomatoes	1	F	3	0	275	0		0	0	84.7990906001069	84.8990770000964
17248.75	0.0999818998388946	144	hunger	stimuli/non_foods\non-food_animate_cow.jpg	1	2	1	non-food_animate_cow	0	Z	18	0	103	0		0	0	84.9490875001065	85.0490693999454
17286.25	0.099987399764359	145	hunger	stimuli/foods\waffle.jpg	1	2	1	waffle	1	V	15	0	278	0		0	0	85.0990861002356	85.1990734999999
17323.75	0.09997220011428	146	hunger	stimuli/foods\lamb_chops.jpg	1	2	1	lamb_chops	1	F	3	0	70	0		0	0	85.249084699899	85.3490569000132
17361.25	0.0999694997444749	147	hunger	stimuli/non_foods\non-food_animate_dragonfly.jpg	1	2	1	non-food_animate_dragonfly	0	Z	18	0	108	0		0	0	85.3990970002487	85.4990664999932
17398.75	0.0999978999607265	148	hunger	stimuli/foods\kiwi.jpg	1	2	1	kiwi	1	J	6	0	69	0		0	0	85.5490633998998	85.6490612998605
17436.25	0.0999857001006603	149	hunger	stimuli/non_foods\non-food_inanimate_sun_flower.jpg	1	2	1	non-food_inanimate_sun_flower	0	X	17	0	216	0		0	0	85.6990732001141	85.7990589002147
17473.75	0.0999817997217178	150	hunger	stimuli/non_foods\non-food_inanimate_short_sleeved_shirt.jpg	1	2	1	non-food_inanimate_short_sleeved_shirt	0	D	2	0	207	0		0	0	85.8490709001198	85.9490526998416
17511.25	0.0999720999971032	151	hunger	stimuli/non_foods\non-food_animate_eagle.jpg	1	2	1	non-food_animate_eagle	0	T	14	0	110	0		0	0	85.9990842998959	86.099056399893
17548.75	0.0999597003683448	152	hunger	stimuli/foods\omelette.jpg	1	2	1	omelette	1	V	15	0	228	0		0	0	86.149075999856	86.2490357002243
17586.25	0.0999837997369468	153	hunger	stimuli/foods\pea_pod.jpg	1	2	1	pea_pod	1	H	5	0	237	0		0	0	86.2990775001235	86.3990612998605
17623.75	0.099985099863261	154	hunger	stimuli/foods\lentils.jpg	1	2	1	lentils	1	Z	18	0	74	0		0	0	86.4490710999817	86.5490561998449
17661.25	0.0999857001006603	155	hunger	stimuli/non_foods\non-food_inanimate_padlock.jpg	1	2	1	non-food_inanimate_padlock	0	F	3	0	199	0		0	0	86.5990728000179	86.6990585001186
17698.75	0.0999818998388946	156	hunger	stimuli/non_foods\non-food_inanimate_gloves.jpg	1	2	1	non-food_inanimate_gloves	0	J	6	0	183	0		0	0	86.7490693000145	86.8490511998534
17736.25	0.0999842998571694	157	hunger	stimuli/foods\museli_bars.jpg	1	2	1	museli_bars	1	L	8	0	84	0		0	0	86.8990668002516	86.9990511001088
17773.75	0.0999861001037061	158	hunger	stimuli/foods\green_olives.jpg	1	2	1	green_olives	1	F	3	0	62	0		0	0	87.049043700099	87.1490298002027
17811.25	0.0999598996713758	159	hunger	stimuli/non_foods\non-food_inanimate_hammer.jpg	1	2	1	non-food_inanimate_hammer	0	B	0	0	186	0		0	0	87.1990872002207	87.2990470998921
17848.75	0.0999845000915229	160	hunger	stimuli/non_foods\non-food_inanimate_rack.jpg	1	2	1	non-food_inanimate_rack	0	F	3	0	202	0		0	0	87.3490659999661	87.4490505000576
17886.25	0.0999815999530256	161	hunger	stimuli/foods\onion.jpg	1	2	1	onion	1	D	2	0	229	0		0	0	87.4990636999719	87.5990452999249
17923.75	0.0999906002543867	162	hunger	stimuli/non_foods\non-food_animate_sea_lion.jpg	1	2	1	non-food_animate_sea_lion	0	X	17	0	143	0		0	0	87.6490588998422	87.7490495000966
17961.25	0.0999860996380448	163	hunger	stimuli/non_foods\non-food_inanimate_soccer_ball.jpg	1	2	1	non-food_inanimate_soccer_ball	0	D	2	0	210	0		0	0	87.7990744002163	87.8990604998544
17998.75	0.0999698000960052	164	hunger	stimuli/foods\spaghetti_with_meat_sauce.jpg	1	2	1	spaghetti_with_meat_sauce	1	C	1	0	267	0		0	0	87.9490704000928	88.0490402001888
18036.25	0.099995699711144	165	hunger	stimuli/foods\fruit_salad.jpg	1	2	1	fruit_salad	1	H	5	0	55	0		0	0	88.0990571002476	88.1990527999587
18073.75	0.0999942002817988	166	hunger	stimuli/non_foods\non-food_inanimate_scissors.jpg	1	2	1	non-food_inanimate_scissors	0	N	10	0	205	0		0	0	88.2490530000068	88.3490472002886
18111.25	0.0999855999834836	167	hunger	stimuli/non_foods\non-food_inanimate_grass.jpg	1	2	1	non-food_inanimate_grass	0	T	14	0	184	0		0	0	88.3990513999015	88.499036999885
18148.75	0.099985699634999	168	hunger	stimuli/non_foods\non-food_animate_tortoise.jpg	1	2	1	non-food_animate_tortoise	0	J	6	0	153	0		0	0	88.549051400274	88.649037099909
18186.25	0.099984799977392	169	hunger	stimuli/foods\steak.jpg	1	2	1	steak	1	G	4	0	270	0		0	0	88.699051800184	88.7990366001613
18223.75	0.0999790001660585	170	hunger	stimuli/non_foods\non-food_animate_bee.jpg	1	2	1	non-food_animate_bee	0	H	5	0	95	0		0	0	88.8490482000634	88.9490272002295
18261.25	0.100000800099224	171	hunger	stimuli/non_foods\non-food_animate_parrot.jpg	1	2	1	non-food_animate_parrot	0	M	9	0	133	0		0	0	88.9990445999429	89.0990454000421
18298.75	0.0999838998541236	172	hunger	stimuli/non_foods\non-food_animate_lion.jpg	1	2	1	non-food_animate_lion	0	T	14	0	125	0		0	0	89.1490374002606	89.2490213001147
18336.25	0.0999834001995623	173	hunger	stimuli/non_foods\non-food_animate_german_shepherd.jpg	1	2	1	non-food_animate_german_shepherd	0	P	11	0	114	0		0	0	89.29903679993	89.3990202001296
18373.75	0.100013299845159	174	hunger	stimuli/foods\beetroots.jpg	1	2	1	beetroots	1	K	7	0	10	0		0	0	89.4490332002752	89.5490465001203
18411.25	0.0999839999713004	175	hunger	stimuli/non_foods\non-food_animate_baby_crawling.jpg	1	2	1	non-food_animate_baby_crawling	0	Z	18	0	92	0		0	0	89.599043500144	89.6990275001153
18448.75	0.0999934999272227	176	hunger	stimuli/foods\baked_lamb_with_potatoes.jpg	1	2	1	baked_lamb_with_potatoes	1	C	1	0	8	0		0	0	89.7490229001269	89.8490164000541
18486.25	0.0999802001751959	177	hunger	stimuli/non_foods\non-food_animate_yellow_bug.jpg	1	2	1	non-food_animate_yellow_bug	0	L	8	0	155	0		0	0	89.8990306998603	89.9990109000355
18523.75	0.09998539974913	178	hunger	stimuli/non_foods\non-food_inanimate_nest.jpg	1	2	1	non-food_inanimate_nest	0	Z	18	0	196	0		0	0	90.0490282000974	90.1490135998465
18561.25	0.0999912996776402	179	hunger	stimuli/foods\fries.jpg	1	2	1	fries	1	W	16	0	52	0		0	0	90.1990276002325	90.2990188999102
18598.75	0.0999857001006603	180	hunger	stimuli/non_foods\non-food_inanimate_briefcase.jpg	1	2	1	non-food_inanimate_briefcase	0	H	5	0	163	0		0	0	90.3490249998868	90.4490106999874
18636.25	0.0999839999713004	181	hunger	stimuli/non_foods\non-food_animate_owl.jpg	1	2	1	non-food_animate_owl	0	U	23	1	132	0		0	0	90.4990246002562	90.5990086002275
18673.75	0.0999838002026081	182	hunger	stimuli/non_foods\non-food_animate_ladybug.jpg	1	2	1	non-food_animate_ladybug	0	D	2	0	124	0		0	0	90.6490231999196	90.7490070001222
18711.25	0.0999845000915229	183	hunger	stimuli/non_foods\non-food_animate_mouse.jpg	1	2	1	non-food_animate_mouse	0	H	5	0	131	0		0	0	90.7990215001628	90.8990060002543
18748.75	0.0999834001995623	184	hunger	stimuli/foods\radish.jpg	1	2	1	radish	1	K	7	0	251	0		0	0	90.9490189999342	91.0490024001338
18786.25	0.0999835999682546	185	hunger	stimuli/non_foods\non-food_inanimate_table.jpg	1	2	1	non-food_inanimate_table	0	G	4	0	217	0		0	0	91.0990182003006	91.1990018002689
18823.75	0.10000679967925	186	hunger	stimuli/foods\grilled_chicken_breast.jpg	1	2	1	grilled_chicken_breast	1	W	16	0	63	0		0	0	91.2490146001801	91.3490213998593
18861.25	0.0999497002921999	187	hunger	stimuli/foods\fruit_flan.jpg	1	2	1	fruit_flan	1	D	2	0	53	0		0	0	91.3990482999943	91.4989980002865
18898.75	0.0999944000504911	188	hunger	stimuli/non_foods\non-food_animate_clown.jpg	1	2	1	non-food_animate_clown	0	S	13	0	102	0		0	0	91.5489948000759	91.6489892001264
18936.25	0.0999597003683448	189	hunger	stimuli/foods\chestnut.jpg	1	2	1	chestnut	1	P	11	0	24	0		0	0	91.6990451999009	91.7990049002692
18973.75	0.099983099848032	190	hunger	stimuli/non_foods\non-food_inanimate_bed.jpg	1	2	1	non-food_inanimate_bed	0	K	7	0	160	0		0	0	91.8490182003006	91.9490013001487
19011.25	0.0999814001843333	191	hunger	stimuli/foods\dates.jpg	1	2	1	dates	1	N	10	0	43	0		0	0	91.9990191999823	92.0990006001666
19048.75	0.0999871999956667	192	hunger	stimuli/foods\mussels.jpg	1	2	1	mussels	1	S	13	0	86	0		0	0	92.1490131998435	92.2490003998391
19086.25	0.0999871999956667	193	hunger	stimuli/foods\meatballs.jpg	1	2	1	meatballs	1	W	16	0	81	0		0	0	92.2990125999786	92.3989997999743
19123.75	0.0999655998311937	194	hunger	stimuli/foods\lime.jpg	1	2	1	lime	1	H	5	0	76	0		0	0	92.4490304002538	92.548996000085
19161.25	0.0999867999926209	195	hunger	stimuli/foods\coffee_beans.jpg	1	2	1	coffee_beans	1	V	15	0	34	0		0	0	92.5990079999901	92.6989947999828
19198.75	0.0999946002848446	196	hunger	stimuli/foods\lettuce.jpg	1	2	1	lettuce	1	C	1	0	75	0		0	0	92.7489914000034	92.8489860002883
19236.25	0.0999839999713004	197	hunger	stimuli/non_foods\non-food_inanimate_towel.jpg	1	2	1	non-food_inanimate_towel	0	X	17	0	221	0		0	0	92.8989997999743	92.9989837999456
19273.75	0.0999901001341641	198	hunger	stimuli/foods\chocolate_chip_cookies.jpg	1	2	1	chocolate_chip_cookies	1	G	4	0	27	0		0	0	93.0489953998476	93.1489854999818
19311.25	0.0999834998510778	199	hunger	stimuli/non_foods\non-food_inanimate_tent.jpg	1	2	1	non-food_inanimate_tent	0	Z	18	0	219	0		0	0	93.1990040000528	93.2989874999039
19348.75	0.0999827003106475	200	hunger	stimuli/foods\frankfurter_and_provolone_salad.jpg	1	2	1	frankfurter_and_provolone_salad	1	H	5	0	49	0		0	0	93.3490023999475	93.4489851002581
19386.25	0.0999858998693526	201	hunger	stimuli/foods\pomegranate.jpg	1	2	1	pomegranate	1	R	12	0	244	0		0	0	93.4990007001907	93.59898660006
19423.75	0.0999840004369617	202	hunger	stimuli/non_foods\non-food_animate_camel.jpg	1	2	1	non-food_animate_camel	0	T	14	0	97	0		0	0	93.6490000998601	93.7489841002971
19461.25	0.099989099893719	203	hunger	stimuli/non_foods\non-food_inanimate_drum_set.jpg	1	2	1	non-food_inanimate_drum_set	0	M	9	0	179	0		0	0	93.7989936000668	93.8989826999605
19498.75	0.0999839999713004	204	hunger	stimuli/non_foods\non-food_inanimate_cap.jpg	1	2	1	non-food_inanimate_cap	0	C	1	0	171	0		0	0	93.9489974002354	94.0489814002067
19536.25	0.100022600032389	205	hunger	stimuli/foods\papaya.jpg	1	2	1	papaya	1	K	7	0	235	0		0	0	94.098966000136	94.1989886001684
19573.75	0.0999989002011716	206	hunger	stimuli/non_foods\non-food_animate_fox.jpg	1	2	1	non-food_animate_fox	0	D	2	0	112	0		0	0	94.2489801999182	94.3489791001193
19611.25	0.0999824996106327	207	hunger	stimuli/foods\minestrone_soup.jpg	1	2	1	minestrone_soup	1	S	13	0	82	0		0	0	94.3989917002618	94.4989741998725
19648.75	0.0999866998754442	208	hunger	stimuli/foods\donut.jpg	1	2	1	donut	1	W	16	0	44	0		0	0	94.5489900000393	94.6489766999148
19686.25	0.0999859999865294	209	hunger	stimuli/non_foods\non-food_inanimate_leaf.jpg	1	2	1	non-food_inanimate_leaf	0	H	5	0	192	0		0	0	94.6989875002764	94.7989735002629
19723.75	0.0999987004324794	210	hunger	stimuli/foods\ginger_root.jpg	1	2	1	ginger_root	1	Z	18	0	57	0		0	0	94.8489903998561	94.9489891002886
19761.25	0.099963900167495	211	hunger	stimuli/non_foods\non-food_animate_frog.jpg	1	2	1	non-food_animate_frog	0	W	16	0	113	0		0	0	94.9990055998787	95.0989695000462
19798.75	0.099980500061065	212	hunger	stimuli/non_foods\non-food_inanimate_canoe.jpg	1	2	1	non-food_inanimate_canoe	0	C	1	0	170	0		0	0	95.1489857002161	95.2489662002772
19836.25	0.0999823999591172	213	hunger	stimuli/non_foods\non-food_inanimate_teddy_bear.jpg	1	2	1	non-food_inanimate_teddy_bear	0	V	15	0	218	0		0	0	95.2989787003025	95.3989611002617
19873.75	0.0999820996075869	214	hunger	stimuli/foods\pepperoni_pizza.jpg	1	2	1	pepperoni_pizza	1	S	13	0	241	0		0	0	95.4489724002779	95.5489544998854
19911.25	0.0999850002117455	215	hunger	stimuli/non_foods\non-food_animate_skunk.jpg	1	2	1	non-food_animate_skunk	0	L	8	0	147	0		0	0	95.5989695000462	95.698954500258
19948.75	0.0999854002147913	216	hunger	stimuli/non_foods\non-food_animate_duck.jpg	1	2	1	non-food_animate_duck	0	Z	18	0	109	0		0	0	95.748970199842	95.8489556000568
19986.25	0.0999835003167391	217	hunger	stimuli/non_foods\non-food_inanimate_bucket.jpg	1	2	1	non-food_inanimate_bucket	0	S	13	0	165	0		0	0	95.8989691999741	95.9989527002908
20023.75	0.0999938999302685	218	hunger	stimuli/foods\garlic.jpg	1	2	1	garlic	1	H	5	0	56	0		0	0	96.0489616999403	96.1489555998705
20061.25	0.0999889001250267	219	hunger	stimuli/non_foods\non-food_animate_llama.jpg	1	2	1	non-food_animate_llama	0	J	6	0	127	0		0	0	96.1989727001637	96.2989616002887
20098.75	0.099985099863261	220	hunger	stimuli/foods\stew_with_potatoes_and_carrots.jpg	1	2	1	stew_with_potatoes_and_carrots	1	V	15	0	271	0		0	0	96.3489693002775	96.4489544001408
20136.25	0.0999750997871161	221	hunger	stimuli/non_foods\non-food_animate_horse.jpg	1	2	1	non-food_animate_horse	0	G	4	0	119	0		0	0	96.4989682002924	96.5989433000796
20173.75	0.0999714001081884	222	hunger	stimuli/foods\grapefruits.jpg	1	2	1	grapefruits	1	D	2	0	59	0		0	0	96.6489750999026	96.7489465000108
20211.25	0.0999738997779787	223	hunger	stimuli/foods\pancakes.jpg	1	2	1	pancakes	1	L	8	0	234	0		0	0	96.7989682001062	96.8989420998842
20248.75	0.0999970999546349	224	hunger	stimuli/non_foods\non-food_animate_killer_whale.jpg	1	2	1	non-food_animate_killer_whale	0	F	3	0	123	0		0	0	96.9489561002702	97.0489532002248
20286.25	0.099976500030607	225	hunger	stimuli/foods\mandarin.jpg	1	2	1	mandarin	1	O	22	1	79	0		0	0	97.0989621002227	97.1989386002533
20323.75	0.0999898002482951	226	hunger	stimuli/foods\honey.jpg	1	2	1	honey	1	H	5	0	66	0		0	0	97.2489493000321	97.3489391002804
20361.25	0.0999826001934707	227	hunger	stimuli/non_foods\non-food_inanimate_skateboard.jpg	1	2	1	non-food_inanimate_skateboard	0	J	6	0	208	0		0	0	97.3989531998523	97.4989358000457
20398.75	0.0999846002086997	228	hunger	stimuli/foods\roasted_chicken.jpg	1	2	1	roasted_chicken	1	T	14	0	261	0		0	0	97.5489507000893	97.648935300298
20436.25	0.0999862002208829	229	hunger	stimuli/foods\mushroom.jpg	1	2	1	mushroom	1	F	3	0	85	0		0	0	97.6989482999779	97.7989345001988
20473.75	0.099970200099051	230	hunger	stimuli/foods\smoked_ham.jpg	1	2	1	smoked_ham	1	M	9	0	266	0		0	0	97.848960199859	97.948930399958
20511.25	0.0999843999743462	231	hunger	stimuli/foods\peas.jpg	1	2	1	peas	1	B	0	0	240	0		0	0	97.9989455998875	98.0989299998619
20548.75	0.0999873001128435	232	hunger	stimuli/foods\fried_calamari.jpg	1	2	1	fried_calamari	1	X	17	0	50	0		0	0	98.1489439001307	98.2489312002435
20586.25	0.0999934999272227	233	hunger	stimuli/non_foods\non-food_inanimate_stapler.jpg	1	2	1	non-food_inanimate_stapler	0	M	9	0	213	0		0	0	98.2989420001395	98.3989355000667
20623.75	0.0999572002328932	234	hunger	stimuli/non_foods\non-food_inanimate_clover.jpg	1	2	1	non-food_inanimate_clover	0	L	8	0	174	0		0	0	98.448968200013	98.5489254002459
20661.25	0.0999712999910116	235	hunger	stimuli/foods\clams.jpg	1	2	1	clams	1	K	7	0	32	0		0	0	98.5989512000233	98.6989225000143
20698.75	0.0999780995771289	236	hunger	stimuli/non_foods\non-food_animate_runner.jpg	1	2	1	non-food_animate_runner	0	D	2	0	142	0		0	0	98.748935600277	98.8489136998542
20736.25	0.0999984997324646	237	hunger	stimuli/non_foods\non-food_inanimate_suitcase.jpg	1	2	1	non-food_inanimate_suitcase	0	N	10	0	215	0		0	0	98.8989304001443	98.9989288998768
20773.75	0.0999881001189351	238	hunger	stimuli/foods\red_cabbage.jpg	1	2	1	red_cabbage	1	V	15	0	256	0		0	0	99.0489403000101	99.1489284001291
20811.25	0.0999890002422035	239	hunger	stimuli/non_foods\non-food_animate_squirrel.jpg	1	2	1	non-food_animate_squirrel	0	W	16	0	150	0		0	0	99.1989376000129	99.2989266002551
20848.75	0.0999828996136785	240	hunger	stimuli/non_foods\non-food_inanimate_socks.jpg	1	2	1	non-food_inanimate_socks	0	H	5	0	211	0		0	0	99.3489403002895	99.4489231999032
20886.25	0.0999941998161376	241	hunger	stimuli/foods\spinach.jpg	1	2	1	spinach	1	Z	18	0	268	0		0	0	99.498938600067	99.5989327998832
20923.75	0.0999936000443995	242	hunger	stimuli/foods\cracker.jpg	1	2	1	cracker	1	D	2	0	38	0		0	0	99.648929100018	99.7489227000624
20961.25	0.099984799977392	243	hunger	stimuli/foods\mortadella.jpg	1	2	1	mortadella	1	G	4	0	83	0		0	0	99.7989325001836	99.898917300161
20998.75	0.0999758997932076	244	hunger	stimuli/non_foods\non-food_inanimate_cupboard.jpg	1	2	1	non-food_inanimate_cupboard	0	Z	18	0	177	0		0	0	99.9489365001209	100.048912399914
21036.25	0.100002000108361	245	hunger	stimuli/foods\cinnamon.jpg	1	2	1	cinnamon	1	N	10	0	30	0		0	0	100.098923500162	100.19892550027
21073.75	0.0999615998007357	246	hunger	stimuli/foods\egg.jpg	1	2	1	egg	1	R	12	0	45	0		0	0	100.248945900239	100.34890750004
21111.25	0.0999902999028563	247	hunger	stimuli/foods\linguine_with_clams.jpg	1	2	1	linguine_with_clams	1	L	8	0	77	0		0	0	100.398919700179	100.498910000082
21148.75	0.0999833000823855	248	hunger	stimuli/non_foods\non-food_animate_caterpillar.jpg	1	2	1	non-food_animate_caterpillar	0	D	2	0	99	0		0	0	100.548921099864	100.648904399946
21186.25	0.0999825000762939	249	hunger	stimuli/foods\cooked_prawn.jpg	1	2	1	cooked_prawn	1	J	6	0	36	0		0	0	100.698920099996	100.798902600072
21223.75	0.0999854998663068	250	hunger	stimuli/non_foods\non-food_animate_peacock.jpg	1	2	1	non-food_animate_peacock	0	B	0	0	134	0		0	0	100.848905700259	100.948891200125
21261.25	0.0999688999727368	251	hunger	stimuli/non_foods\non-food_animate_butterfly.jpg	1	2	1	non-food_animate_butterfly	0	M	9	0	96	0		0	0	100.998922700062	101.098891600035
21298.75	0.0999869001097977	252	hunger	stimuli/foods\peach.jpg	1	2	1	peach	1	D	2	0	238	0		0	0	101.148919600062	101.248906500172
21336.25	0.0999837000854313	253	hunger	stimuli/non_foods\non-food_inanimate_waterlily.jpg	1	2	1	non-food_inanimate_waterlily	0	L	8	0	226	0		0	0	101.298919700086	101.398903400172
21373.75	0.0999843999743462	254	hunger	stimuli/foods\almonds.jpg	1	2	1	almonds	1	Z	18	0	0	0		0	0	101.448915699963	101.548900099937
21411.25	0.0999858002178371	255	hunger	stimuli/non_foods\non-food_animate_penguin.jpg	1	2	1	non-food_animate_penguin	0	H	5	0	135	0		0	0	101.598915799987	101.698901600204
21448.75	0.0999831999652088	256	hunger	stimuli/foods\gnocchi.jpg	1	2	1	gnocchi	1	L	8	0	58	0		0	0	101.748916199896	101.848899399862
21486.25	0.100013100076467	257	hunger	stimuli/non_foods\non-food_inanimate_headphones.jpg	1	2	1	non-food_inanimate_headphones	0	V	15	0	188	0		0	0	101.898909700103	101.99892280018
21523.75	0.0999579997733235	258	hunger	stimuli/non_foods\non-food_inanimate_chair.jpg	1	2	1	non-food_inanimate_chair	0	N	10	0	172	0		0	0	102.048917500302	102.148875500076
21561.25	0.0999849997460842	259	hunger	stimuli/foods\pear.jpg	1	2	1	pear	1	F	3	0	239	0		0	0	102.198909600265	102.298894600011
21598.75	0.0999874998815358	260	hunger	stimuli/non_foods\non-food_inanimate_bamboo.jpg	1	2	1	non-food_inanimate_bamboo	0	M	9	0	159	0		0	0	102.348907900043	102.448895399924
21636.25	0.0999829000793397	261	hunger	stimuli/foods\potato_chips.jpg	1	2	1	potato_chips	1	J	6	0	247	0		0	0	102.498906500172	102.598889400251
21673.75	0.0999973001889884	262	hunger	stimuli/foods\cupcake.jpg	1	2	1	cupcake	1	V	15	0	42	0		0	0	102.648903700057	102.748901000246
21711.25	0.0999866998754442	263	hunger	stimuli/foods\lemon.jpg	1	2	1	lemon	1	H	5	0	72	0		0	0	102.798896700144	102.898883400019
21748.75	0.0999835999682546	264	hunger	stimuli/non_foods\non-food_inanimate_button.jpg	1	2	1	non-food_inanimate_button	0	G	4	0	168	0		0	0	102.948897300288	103.048880900256
21786.25	0.099985699634999	265	hunger	stimuli/non_foods\non-food_inanimate_guitar.jpg	1	2	1	non-food_inanimate_guitar	0	N	10	0	185	0		0	0	103.098891800269	103.198877499904
21823.75	0.0999878998845816	266	hunger	stimuli/non_foods\non-food_animate_rhino.jpg	1	2	1	non-food_animate_rhino	0	C	1	0	141	0		0	0	103.248896399979	103.348884299863
21861.25	0.0999824996106327	267	hunger	stimuli/foods\coconut.jpg	1	2	1	coconut	1	H	5	0	33	0		0	0	103.39889710024	103.498879599851
21898.75	0.100010000169277	268	hunger	stimuli/foods\potato_and_green_bean_salad.jpg	1	2	1	potato_and_green_bean_salad	1	P	11	0	246	0		0	0	103.548893699888	103.648903700057
21936.25	0.10000229999423	269	hunger	stimuli/foods\wafer.jpg	1	2	1	wafer	1	S	13	0	277	0		0	0	103.698895799927	103.798898099922
21973.75	0.0999640999361873	270	hunger	stimuli/non_foods\non-food_animate_mammoth.jpg	1	2	1	non-food_animate_mammoth	0	B	0	0	128	0		0	0	103.848929699976	103.948893799912
22011.25	0.0999829997308552	271	hunger	stimuli/non_foods\non-food_animate_cat.jpg	1	2	1	non-food_animate_cat	0	G	4	0	98	0		0	0	103.998891400173	104.098874399904
22048.75	0.0999802998267114	272	hunger	stimuli/non_foods\non-food_animate_porcupine.jpg	1	2	1	non-food_animate_porcupine	0	K	7	0	138	0		0	0	104.148885900155	104.248866199981
22086.25	0.0999829000793397	273	hunger	stimuli/non_foods\non-food_inanimate_construction_helment.jpg	1	2	1	non-food_inanimate_construction_helment	0	N	10	0	175	0		0	0	104.298881500028	104.398864400107
22123.75	0.0999989998526871	274	hunger	stimuli/non_foods\non-food_animate_baby_sitting.jpg	1	2	1	non-food_animate_baby_sitting	0	T	14	0	93	0		0	0	104.448873400223	104.548872400075
22161.25	0.0999889997765422	275	hunger	stimuli/non_foods\non-food_animate_deer.jpg	1	2	1	non-food_animate_deer	0	S	13	0	105	0		0	0	104.598879400175	104.698868399952
22198.75	0.099965900182724	276	hunger	stimuli/foods\lemon_meringue_pie.jpg	1	2	1	lemon_meringue_pie	1	V	15	0	73	0		0	0	104.748903600033	104.848869500216
22236.25	0.0999936000443995	277	hunger	stimuli/non_foods\non-food_inanimate_watering_can.jpg	1	2	1	non-food_inanimate_watering_can	0	W	16	0	225	0		0	0	104.898872599937	104.998866199981
22273.75	0.099987399764359	278	hunger	stimuli/foods\pork_and_rice.jpg	1	2	1	pork_and_rice	1	D	2	0	245	0		0	0	105.048879300244	105.148866700009
22311.25	0.0999779002740979	279	hunger	stimuli/foods\baked_cod_with_carrots_and_green_beans.jpg	1	2	1	baked_cod_with_carrots_and_green_beans	1	S	13	0	7	0		0	0	105.19887949992	105.298857400194
23394.5	0.0999782998114824	280	hunger	stimuli/foods\artichoke.jpg	1	3	1	artichoke	1	C	1	0	3	0		0	0	109.532173400279	109.632151700091
23432	0.099980500061065	281	hunger	stimuli/foods\beetroots.jpg	1	3	1	beetroots	1	N	10	0	10	0		0	0	109.682165700011	109.782146200072
23469.5	0.0999863999895751	282	hunger	stimuli/foods\lasagna.jpg	1	3	1	lasagna	1	D	2	0	71	0		0	0	109.83216380002	109.932150200009
23507	0.0999859999865294	283	hunger	stimuli/non_foods\non-food_inanimate_construction_helment.jpg	1	3	1	non-food_inanimate_construction_helment	0	B	0	0	175	0		0	0	109.98216120014	110.082147200126
23544.5	0.0999829000793397	284	hunger	stimuli/foods\taco.jpg	1	3	1	taco	1	L	8	0	274	0		0	0	110.132162800059	110.232145700138
23582	0.0999569999985397	285	hunger	stimuli/foods\chestnut.jpg	1	3	1	chestnut	1	Z	18	0	24	0		0	0	110.282162399963	110.382119399961
23619.5	0.0999839999713004	286	hunger	stimuli/non_foods\non-food_animate_green_bug.jpg	1	3	1	non-food_animate_green_bug	0	V	15	0	118	0		0	0	110.432158099953	110.532142099924
23657	0.0999692003242671	287	hunger	stimuli/non_foods\non-food_animate_eagle.jpg	1	3	1	non-food_animate_eagle	0	L	8	0	110	0		0	0	110.582156099845	110.682125300169
23694.5	0.100006599910557	288	hunger	stimuli/foods\rockmelon.jpg	1	3	1	rockmelon	1	G	4	0	262	0		0	0	110.732155200094	110.832161800005
23732	0.0999338002875447	289	hunger	stimuli/foods\cereal.jpg	1	3	1	cereal	1	P	11	0	22	0		0	0	110.882201700006	110.982135500293
23769.5	0.0999666000716388	290	hunger	stimuli/non_foods\non-food_inanimate_padlock.jpg	1	3	1	non-food_inanimate_padlock	0	X	17	0	199	0		0	0	111.032168500125	111.132135100197
23807	0.0999829000793397	291	hunger	stimuli/non_foods\non-food_animate_grasshopper.jpg	1	3	1	non-food_animate_grasshopper	0	C	1	0	117	0		0	0	111.182151800022	111.282134700101
23844.5	0.0999773000366986	292	hunger	stimuli/non_foods\non-food_inanimate_toilet.jpg	1	3	1	non-food_inanimate_toilet	0	W	16	0	220	0		0	0	111.332142699976	111.432120000012
23882	0.0999776003882289	293	hunger	stimuli/non_foods\non-food_animate_chicken.jpg	1	3	1	non-food_animate_chicken	0	P	11	0	101	0		0	0	111.482140299864	111.582117900252
23919.5	0.100009699817747	294	hunger	stimuli/foods\cracker.jpg	1	3	1	cracker	1	X	17	0	38	0		0	0	111.632122700103	111.73213239992
23957	0.0999826998449862	295	hunger	stimuli/non_foods\non-food_animate_hummingbird.jpg	1	3	1	non-food_animate_hummingbird	0	K	7	0	120	0		0	0	111.78214460006	111.882127299905
23994.5	0.099993399810046	296	hunger	stimuli/foods\blackberry.jpg	1	3	1	blackberry	1	E	20	1	11	0		0	0	111.932158000302	112.032151400112
24032	0.0999809000641108	297	hunger	stimuli/foods\oregano.jpg	1	3	1	oregano	1	G	4	0	231	0		0	0	112.082143600099	112.182124500163
24069.5	0.0999830001965165	298	hunger	stimuli/non_foods\non-food_animate_runner.jpg	1	3	1	non-food_animate_runner	0	T	14	0	142	0		0	0	112.232139300089	112.332122300286
24107	0.0999850002117455	299	hunger	stimuli/non_foods\non-food_inanimate_fern.jpg	1	3	1	non-food_inanimate_fern	0	H	5	0	180	1	a	0.555987899657339	1	112.382138799876	112.482123800088
24144.5	0.0999950999394059	300	hunger	stimuli/foods\eggplant.jpg	1	3	1	eggplant	1	G	4	0	46	0		0	0	112.532134999987	112.632130099926
24182	0.0999622000381351	301	hunger	stimuli/foods\fennel.jpg	1	3	1	fennel	1	F	3	0	47	0		0	0	112.682160499971	112.782122700009
24219.5	0.0999818998388946	302	hunger	stimuli/non_foods\non-food_animate_caterpillar.jpg	1	3	1	non-food_animate_caterpillar	0	V	15	0	99	0		0	0	112.832138500176	112.932120400015
24257	0.0999888000078499	303	hunger	stimuli/non_foods\non-food_animate_alligator.jpg	1	3	1	non-food_animate_alligator	0	N	10	0	90	0		0	0	112.982129500248	113.082118300255
24294.5	0.0999893001280725	304	hunger	stimuli/foods\corncob.jpg	1	3	1	corncob	1	V	15	0	37	0		0	0	113.132126899902	113.23211620003
24332	0.100004999898374	305	hunger	stimuli/foods\mortadella.jpg	1	3	1	mortadella	1	J	6	0	83	0		0	0	113.282108200248	113.382113200147
24369.5	0.0999850002117455	306	hunger	stimuli/foods\donut.jpg	1	3	1	donut	1	T	14	0	44	0		0	0	113.432123200037	113.532108200248
24407	0.0999854002147913	307	hunger	stimuli/non_foods\non-food_animate_iguana.jpg	1	3	1	non-food_animate_iguana	0	R	12	0	121	0		0	0	113.582127199974	113.682112600189
24444.5	0.0999722997657955	308	hunger	stimuli/foods\cannoli.jpg	1	3	1	cannoli	1	V	15	0	17	0		0	0	113.732134300284	113.83210660005
24482	0.0999852996319532	309	hunger	stimuli/foods\radish.jpg	1	3	1	radish	1	G	4	0	251	0		0	0	113.882121200208	113.98210649984
24519.5	0.0999722997657955	310	hunger	stimuli/foods\strawberry.jpg	1	3	1	strawberry	1	T	14	0	272	0		0	0	114.032134400215	114.132106699981
24557	0.0999990003183484	311	hunger	stimuli/non_foods\non-food_animate_bee.jpg	1	3	1	non-food_animate_bee	0	Z	18	0	95	0		0	0	114.182095299941	114.282094300259
24594.5	0.099934000056237	312	hunger	stimuli/foods\onion.jpg	1	3	1	onion	1	G	4	0	229	0		0	0	114.332148999907	114.432082999963
24632	0.0999761000275612	313	hunger	stimuli/non_foods\non-food_animate_mammoth.jpg	1	3	1	non-food_animate_mammoth	0	L	8	0	128	0		0	0	114.482122300193	114.58209840022
24669.5	0.0999862998723984	314	hunger	stimuli/non_foods\non-food_inanimate_headphones.jpg	1	3	1	non-food_inanimate_headphones	0	X	17	0	188	0		0	0	114.632113300264	114.732099600136
24707	0.0999865001067519	315	hunger	stimuli/foods\omelette.jpg	1	3	1	omelette	1	F	3	0	228	0		0	0	114.782110699918	114.882097200025
24744.5	0.0999916000291705	316	hunger	stimuli/non_foods\non-food_animate_owl.jpg	1	3	1	non-food_animate_owl	0	S	13	0	132	0		0	0	114.932107400149	115.032099000178
24782	0.0999829000793397	317	hunger	stimuli/foods\fried_zucchini.jpg	1	3	1	fried_zucchini	1	H	5	0	51	0		0	0	115.082113800105	115.182096700184
24819.5	0.0999591997824609	318	hunger	stimuli/foods\swordfish.jpg	1	3	1	swordfish	1	K	7	0	273	0		0	0	115.232119600289	115.332078800071
24857	0.0999848996289074	319	hunger	stimuli/foods\salmon.jpg	1	3	1	salmon	1	P	11	0	264	0		0	0	115.382107700221	115.48209259985
24894.5	0.100014999974519	320	hunger	stimuli/non_foods\non-food_animate_camel.jpg	1	3	1	non-food_animate_camel	0	J	6	0	97	0		0	0	115.532114600297	115.632129600272
24932	0.0999830001965165	321	hunger	stimuli/non_foods\non-food_inanimate_socks.jpg	1	3	1	non-food_inanimate_socks	0	R	12	0	211	0		0	0	115.682103300001	115.782086300198
24969.5	0.0999837997369468	322	hunger	stimuli/non_foods\non-food_animate_clown.jpg	1	3	1	non-food_animate_clown	0	D	2	0	102	0		0	0	115.83210360026	115.932087399997
25007	0.100002899765968	323	hunger	stimuli/non_foods\non-food_animate_fox.jpg	1	3	1	non-food_animate_fox	0	M	9	0	112	0		0	0	115.98209880013	116.082101699896
25044.5	0.0999842998571694	324	hunger	stimuli/foods\pea_pod.jpg	1	3	1	pea_pod	1	G	4	0	237	0		0	0	116.13211310003	116.232097399887
25082	0.0999644999392331	325	hunger	stimuli/foods\raisins.jpg	1	3	1	raisins	1	H	5	0	252	0		0	0	116.28211800009	116.382082500029
25119.5	0.0999869997613132	326	hunger	stimuli/non_foods\non-food_inanimate_table.jpg	1	3	1	non-food_inanimate_table	0	M	9	0	217	0		0	0	116.432093600277	116.532080600038
25157	0.0999901001341641	327	hunger	stimuli/foods\chocolate_bar.jpg	1	3	1	chocolate_bar	1	B	0	0	26	0		0	0	116.582093399949	116.682083500084
25194.5	0.099982799962163	328	hunger	stimuli/foods\waffle.jpg	1	3	1	waffle	1	P	11	0	278	0		0	0	116.732094400097	116.832077200059
25232	0.0999831999652088	329	hunger	stimuli/non_foods\non-food_inanimate_gloves.jpg	1	3	1	non-food_inanimate_gloves	0	J	6	0	183	0		0	0	116.882090100087	116.982073300052
25269.5	0.0999792995862663	330	hunger	stimuli/non_foods\non-food_animate_penguin.jpg	1	3	1	non-food_animate_penguin	0	T	14	0	135	0		0	0	117.032097500283	117.13207679987
25307	0.0999834998510778	331	hunger	stimuli/foods\peas.jpg	1	3	1	peas	1	S	13	0	240	0		0	0	117.182083200198	117.282066700049
25344.5	0.099984799977392	332	hunger	stimuli/non_foods\non-food_inanimate_skateboard.jpg	1	3	1	non-food_inanimate_skateboard	0	N	10	0	208	0		0	0	117.332092500292	117.432077300269
25382	0.0999763999134302	333	hunger	stimuli/foods\ginger_root.jpg	1	3	1	ginger_root	1	I	21	1	57	0		0	0	117.482079199981	117.582055599894
25419.5	0.0999838002026081	334	hunger	stimuli/foods\peach.jpg	1	3	1	peach	1	R	12	0	238	0		0	0	117.632057299837	117.73204110004
25457	0.0999929998070002	335	hunger	stimuli/foods\brownie.jpg	1	3	1	brownie	1	K	7	0	14	0		0	0	117.782081600279	117.882074600086
25494.5	0.0999648002907634	336	hunger	stimuli/non_foods\non-food_animate_tortoise.jpg	1	3	1	non-food_animate_tortoise	0	M	9	0	153	0		0	0	117.93211269984	118.032077500131
25532	0.0999719998799264	337	hunger	stimuli/foods\cupcake.jpg	1	3	1	cupcake	1	J	6	0	42	0		0	0	118.082092100289	118.182064100169
25569.5	0.0999837000854313	338	hunger	stimuli/foods\lemon.jpg	1	3	1	lemon	1	L	8	0	72	0		0	0	118.232078900095	118.332062600181
25607	0.100000800099224	339	hunger	stimuli/foods\grilled_chicken_breast.jpg	1	3	1	grilled_chicken_breast	1	W	16	0	63	0		0	0	118.382061699871	118.48206249997
25644.5	0.0999888000078499	340	hunger	stimuli/non_foods\non-food_inanimate_stoplight.jpg	1	3	1	non-food_inanimate_stoplight	0	Z	18	0	214	0		0	0	118.532074300107	118.632063100114
25682	0.0999992000870407	341	hunger	stimuli/foods\honey.jpg	1	3	1	honey	1	M	9	0	66	0		0	0	118.682055599988	118.782054800075
25719.5	0.0999847003258765	342	hunger	stimuli/non_foods\non-food_inanimate_bucket.jpg	1	3	1	non-food_inanimate_bucket	0	G	4	0	165	0		0	0	118.832071499899	118.932056200225
25757	0.0999863999895751	343	hunger	stimuli/non_foods\non-food_inanimate_alarm_clock.jpg	1	3	1	non-food_inanimate_alarm_clock	0	V	15	0	158	0		0	0	118.982068900019	119.082055300009
25794.5	0.0999818998388946	344	hunger	stimuli/non_foods\non-food_animate_lizard.jpg	1	3	1	non-food_animate_lizard	0	L	8	0	126	0		0	0	119.132067400031	119.23204929987
25832	0.0999898002482951	345	hunger	stimuli/non_foods\non-food_inanimate_skirt.jpg	1	3	1	non-food_inanimate_skirt	0	J	6	0	209	0		0	0	119.28206379991	119.382053600159
25869.5	0.099983399733901	346	hunger	stimuli/non_foods\non-food_inanimate_sun_flower.jpg	1	3	1	non-food_inanimate_sun_flower	0	P	11	0	216	0		0	0	119.432065800298	119.532049200032
25907	0.0999779002740979	347	hunger	stimuli/foods\hazelnuts.jpg	1	3	1	hazelnuts	1	B	0	0	65	0		0	0	119.582063499838	119.682041400112
25944.5	0.0999477999284863	348	hunger	stimuli/non_foods\non-food_inanimate_orchid.jpg	1	3	1	non-food_inanimate_orchid	0	G	4	0	198	0		0	0	119.732088900171	119.8320367001
25982	0.0999834001995623	349	hunger	stimuli/foods\smoked_ham.jpg	1	3	1	smoked_ham	1	J	6	0	266	0		0	0	119.882052700035	119.982036100235
26019.5	0.0999743998982012	350	hunger	stimuli/non_foods\non-food_inanimate_highlighter.jpg	1	3	1	non-food_inanimate_highlighter	0	Z	18	0	189	0		0	0	120.032056100201	120.132030500099
26057	0.100015699863434	351	hunger	stimuli/foods\fruit_pie.jpg	1	3	1	fruit_pie	1	V	15	0	54	0		0	0	120.182042700239	120.282058400102
26094.5	0.0999851003289223	352	hunger	stimuli/non_foods\non-food_animate_cow.jpg	1	3	1	non-food_animate_cow	0	T	14	0	103	0		0	0	120.332055599894	120.432040700223
26132	0.0999822001904249	353	hunger	stimuli/foods\lollies.jpg	1	3	1	lollies	1	H	5	0	78	0		0	0	120.482056899928	120.582039100118
26169.5	0.0999861001037061	354	hunger	stimuli/foods\ice_cream.jpg	1	3	1	ice_cream	1	R	12	0	68	0		0	0	120.632050999906	120.73203710001
26207	0.099980500061065	355	hunger	stimuli/non_foods\non-food_inanimate_wrench.jpg	1	3	1	non-food_inanimate_wrench	0	M	9	0	227	0		0	0	120.782048900146	120.882029400207
26244.5	0.0999921998009086	356	hunger	stimuli/foods\pear.jpg	1	3	1	pear	1	F	3	0	239	0		0	0	120.932042300235	121.032034500036
26282	0.09998709987849	357	hunger	stimuli/foods\chocolate_pralines.jpg	1	3	1	chocolate_pralines	1	T	14	0	28	0		0	0	121.082040000241	121.18202710012
26319.5	0.0999843999743462	358	hunger	stimuli/foods\celery.jpg	1	3	1	celery	1	K	7	0	21	0		0	0	121.232030900195	121.33201530017
26357	0.100037000142038	359	hunger	stimuli/foods\carrot.jpg	1	3	1	carrot	1	C	1	0	19	0		0	0	121.382020500023	121.482057500165
26394.5	0.0999393998645246	360	hunger	stimuli/foods\gnocchi.jpg	1	3	1	gnocchi	1	G	4	0	58	0		0	0	121.532089299988	121.632028699853
26432	0.0999825000762939	361	hunger	stimuli/foods\pickles.jpg	1	3	1	pickles	1	B	0	0	242	0		0	0	121.682041800115	121.782024300192
26469.5	0.0999841997399926	362	hunger	stimuli/foods\wafer.jpg	1	3	1	wafer	1	T	14	0	277	0		0	0	121.832038800232	121.932022999972
26507	0.0999868996441364	363	hunger	stimuli/foods\grapes.jpg	1	3	1	grapes	1	D	2	0	60	0		0	0	121.982036900241	122.082023799885
26544.5	0.0999831999652088	364	hunger	stimuli/non_foods\non-food_animate_dachshund.jpg	1	3	1	non-food_animate_dachshund	0	B	0	0	104	0		0	0	122.132037000265	122.23202020023
26582	0.0999844996258616	365	hunger	stimuli/non_foods\non-food_inanimate_waterlily.jpg	1	3	1	non-food_inanimate_waterlily	0	H	5	0	226	0		0	0	122.282037500292	122.382021999918
26619.5	0.099995999597013	366	hunger	stimuli/non_foods\non-food_inanimate_shell.jpg	1	3	1	non-food_inanimate_shell	0	G	4	0	206	0		0	0	122.432013300247	122.532009299845
26657	0.0999826998449862	367	hunger	stimuli/non_foods\non-food_inanimate_button.jpg	1	3	1	non-food_inanimate_button	0	T	14	0	168	0		0	0	122.582024700008	122.682007399853
26694.5	0.0999810001812875	368	hunger	stimuli/non_foods\non-food_inanimate_bed.jpg	1	3	1	non-food_inanimate_bed	0	G	4	0	160	0		0	0	122.7320359	122.832016900182
26732	0.0999843003228307	369	hunger	stimuli/non_foods\non-food_inanimate_moss.jpg	1	3	1	non-food_inanimate_moss	0	Z	18	0	194	0		0	0	122.88202879997	122.982013100293
26769.5	0.099976500030607	370	hunger	stimuli/foods\cinnamon_sroll.jpg	1	3	1	cinnamon_sroll	1	R	12	0	31	0		0	0	123.032041000202	123.132017500233
26807	0.100005799904466	371	hunger	stimuli/non_foods\non-food_inanimate_chair.jpg	1	3	1	non-food_inanimate_chair	0	N	10	0	172	0		0	0	123.182027800009	123.282033599913
26844.5	0.0999581003561616	372	hunger	stimuli/non_foods\non-food_animate_young_boy.jpg	1	3	1	non-food_animate_young_boy	0	K	7	0	156	0		0	0	123.332050399855	123.432008500211
26882	0.0999857997521758	373	hunger	stimuli/non_foods\non-food_inanimate_broom.jpg	1	3	1	non-food_inanimate_broom	0	E	20	1	164	0		0	0	123.482023800258	123.58200960001
26919.5	0.099961300380528	374	hunger	stimuli/foods\fried_calamari.jpg	1	3	1	fried_calamari	1	V	15	0	50	0		0	0	123.632020399906	123.731981700286
26957	0.0999861001037061	375	hunger	stimuli/non_foods\non-food_animate_german_shepherd.jpg	1	3	1	non-food_animate_german_shepherd	0	Z	18	0	114	0		0	0	123.782011900097	123.881998000201
26994.5	0.0999982999637723	376	hunger	stimuli/foods\cabbage.jpg	1	3	1	cabbage	1	N	10	0	16	1	a	0.541817399673164	1	123.932011900004	124.032010199968
27032	0.0999842002056539	377	hunger	stimuli/foods\chocolate_chip_cookies.jpg	1	3	1	chocolate_chip_cookies	1	H	5	0	27	0		0	0	124.082010800019	124.181995000225
27069.5	0.0999820996075869	378	hunger	stimuli/non_foods\non-food_inanimate_canoe.jpg	1	3	1	non-food_inanimate_canoe	0	X	17	0	170	0		0	0	124.232005500235	124.331987599842
27107	0.0999922999180853	379	hunger	stimuli/non_foods\non-food_animate_ant.jpg	1	3	1	non-food_animate_ant	0	S	13	0	91	0		0	0	124.382006000262	124.48199830018
27144.5	0.0999851999804378	380	hunger	stimuli/foods\pork_and_rice.jpg	1	3	1	pork_and_rice	1	L	8	0	245	0		0	0	124.532013799995	124.631998999976
27182	0.0999725996516645	381	hunger	stimuli/non_foods\non-food_inanimate_bowling_ball.jpg	1	3	1	non-food_inanimate_bowling_ball	0	G	4	0	162	0		0	0	124.682022800203	124.781995399855
27219.5	0.0999881997704506	382	hunger	stimuli/non_foods\non-food_animate_gorilla.jpg	1	3	1	non-food_animate_gorilla	0	K	7	0	116	0		0	0	124.8320061001	124.93199429987
27257	0.100035199895501	383	hunger	stimuli/foods\cooked_prawn.jpg	1	3	1	cooked_prawn	1	N	10	0	36	0		0	0	124.982019400224	125.08205460012
27294.5	0.09995560022071	384	hunger	stimuli/non_foods\non-food_animate_llama.jpg	1	3	1	non-food_animate_llama	0	L	8	0	127	0		0	0	125.132038800046	125.231994400267
27332	0.099982799962163	385	hunger	stimuli/foods\pomegranate.jpg	1	3	1	pomegranate	1	C	1	0	244	0		0	0	125.282007500064	125.381990300026
27369.5	0.0999862002208829	386	hunger	stimuli/non_foods\non-food_inanimate_towel.jpg	1	3	1	non-food_inanimate_towel	0	H	5	0	221	0		0	0	125.432002299931	125.531988500152
27407	0.0999847003258765	387	hunger	stimuli/non_foods\non-food_animate_woman.jpg	1	3	1	non-food_animate_woman	0	K	7	0	154	0		0	0	125.582001599949	125.681986300275
27444.5	0.0999881001189351	388	hunger	stimuli/foods\lamb_chops.jpg	1	3	1	lamb_chops	1	N	10	0	70	0		0	0	125.731997699942	125.831985800061
27482	0.0999617003835738	389	hunger	stimuli/foods\chilli.jpg	1	3	1	chilli	1	P	11	0	25	0		0	0	125.881999299861	125.981961000245
27519.5	0.0999730997718871	390	hunger	stimuli/non_foods\non-food_animate_seahorse.jpg	1	3	1	non-food_animate_seahorse	0	Z	18	0	145	0		0	0	126.031999700237	126.131972800009
27557	0.0999845000915229	391	hunger	stimuli/foods\brussel_sprouts.jpg	1	3	1	brussel_sprouts	1	H	5	0	15	0		0	0	126.182007099967	126.281991600059
27594.5	0.0999855999834836	392	hunger	stimuli/foods\fruit_flan.jpg	1	3	1	fruit_flan	1	K	7	0	53	0		0	0	126.33198520029	126.431970800273
27632	0.0999843999743462	393	hunger	stimuli/foods\mandarin.jpg	1	3	1	mandarin	1	J	6	0	79	0		0	0	126.481985399965	126.58196979994
27669.5	0.100002699997276	394	hunger	stimuli/non_foods\non-food_animate_killer_whale.jpg	1	3	1	non-food_animate_killer_whale	0	D	2	0	123	0		0	0	126.631975300144	126.731978000142
27707	0.09997220011428	395	hunger	stimuli/non_foods\non-food_animate_dragonfly.jpg	1	3	1	non-food_animate_dragonfly	0	X	17	0	108	0		0	0	126.782005200163	126.881977400277
27744.5	0.1000019996427	396	hunger	stimuli/non_foods\non-food_inanimate_suitcase.jpg	1	3	1	non-food_inanimate_suitcase	0	W	16	0	215	0		0	0	126.931981100235	127.031983099878
27782	0.09998539974913	397	hunger	stimuli/foods\frankfurter_and_provolone_salad.jpg	1	3	1	frankfurter_and_provolone_salad	1	H	5	0	49	0		0	0	127.081989800092	127.181975199841
27819.5	0.0999861997552216	398	hunger	stimuli/non_foods\non-food_inanimate_rope.jpg	1	3	1	non-food_inanimate_rope	0	R	12	0	204	0		0	0	127.231984000187	127.331970199943
27857	0.0999893001280725	399	hunger	stimuli/non_foods\non-food_animate_frog.jpg	1	3	1	non-food_animate_frog	0	H	5	0	113	0		0	0	127.381979499944	127.481968800072
27894.5	0.0999769000336528	400	hunger	stimuli/foods\egg.jpg	1	3	1	egg	1	J	6	0	45	0		0	0	127.53199090017	127.631967800204
27932	0.100013200193644	401	hunger	stimuli/non_foods\non-food_inanimate_stapler.jpg	1	3	1	non-food_inanimate_stapler	0	G	4	0	213	0		0	0	127.681951100007	127.7819643002
27969.5	0.0999847003258765	402	hunger	stimuli/non_foods\non-food_inanimate_horn.jpg	1	3	1	non-food_inanimate_horn	0	X	17	0	190	0		0	0	127.831980899908	127.931965600234
28007	0.0999447000212967	403	hunger	stimuli/foods\orange.jpg	1	3	1	orange	1	C	1	0	230	0		0	0	127.981990800239	128.08193550026
28044.5	0.0999821997247636	404	hunger	stimuli/foods\dates.jpg	1	3	1	dates	1	R	12	0	43	0		0	0	128.131977400277	128.231959600002
28082	0.0999194998294115	405	hunger	stimuli/foods\bagel.jpg	1	3	1	bagel	1	F	3	0	6	0		0	0	128.282019800041	128.38193929987
28119.5	0.09998539974913	406	hunger	stimuli/non_foods\non-food_animate_yellow_bug.jpg	1	3	1	non-food_animate_yellow_bug	0	G	4	0	155	0		0	0	128.431971900165	128.531957299914
28157	0.0999862998723984	407	hunger	stimuli/foods\cherry.jpg	1	3	1	cherry	1	W	16	0	23	0		0	0	128.581971500069	128.681957799941
28194.5	0.0999725996516645	408	hunger	stimuli/foods\risotto_with_peas_and_asparagus_tips.jpg	1	3	1	risotto_with_peas_and_asparagus_tips	1	J	6	0	259	0		0	0	128.731978900265	128.831951499917
28232	0.100000899750739	409	hunger	stimuli/non_foods\non-food_animate_polar_bear.jpg	1	3	1	non-food_animate_polar_bear	0	R	12	0	137	0		0	0	128.881967800204	128.981968699954
28269.5	0.0999960000626743	410	hunger	stimuli/foods\spaghetti_with_meat_sauce.jpg	1	3	1	spaghetti_with_meat_sauce	1	C	1	0	267	0		0	0	129.031955500133	129.131951500196
28307	0.0999679998494685	411	hunger	stimuli/foods\salami.jpg	1	3	1	salami	1	M	9	0	263	0		0	0	129.181963900104	129.281931899954
28344.5	0.0999854002147913	412	hunger	stimuli/non_foods\non-food_inanimate_lighter.jpg	1	3	1	non-food_inanimate_lighter	0	Z	18	0	193	0		0	0	129.331964700017	129.431950100232
28382	0.09995949966833	413	hunger	stimuli/foods\banana.jpg	1	3	1	banana	1	G	4	0	9	0		0	0	129.481961000245	129.581920499913
28419.5	0.0999969001859426	414	hunger	stimuli/non_foods\non-food_animate_seal.jpg	1	3	1	non-food_animate_seal	0	D	2	0	146	0		0	0	129.63195020007	129.731947100256
28457	0.0999977998435497	415	hunger	stimuli/non_foods\non-food_animate_duck.jpg	1	3	1	non-food_animate_duck	0	K	7	0	109	0		0	0	129.781945600174	129.881943400018
28494.5	0.100005799904466	416	hunger	stimuli/foods\hotdog.jpg	1	3	1	hotdog	1	F	3	0	67	0		0	0	129.931948699988	130.031954499893
28532	0.0999867999926209	417	hunger	stimuli/foods\green_beans.jpg	1	3	1	green_beans	1	L	8	0	61	0		0	0	130.08193970006	130.181926500052
28569.5	0.0999992000870407	418	hunger	stimuli/foods\pineapple.jpg	1	3	1	pineapple	1	N	10	0	243	0		0	0	130.231955000199	130.331954200286
28607	0.0999570996500552	419	hunger	stimuli/non_foods\non-food_animate_raccoon.jpg	1	3	1	non-food_animate_raccoon	0	J	6	0	139	0		0	0	130.381984500214	130.481941599865
30340.5	0.0999897997826338	420	hunger	stimuli/non_foods\non-food_inanimate_bamboo.jpg	1	4	1	non-food_inanimate_bamboo	0	K	7	0	159	0		0	0	137.315210900269	137.415200700052
30378	0.0999831999652088	421	hunger	stimuli/foods\oven-roasted_tomatoes.jpg	1	4	1	oven-roasted_tomatoes	1	B	0	0	232	0		0	0	137.465216299985	137.56519949995
30415.5	0.0999889997765422	422	hunger	stimuli/non_foods\non-food_animate_horse.jpg	1	4	1	non-food_animate_horse	0	R	12	0	119	0		0	0	137.615212500095	137.715201499872
30453	0.0999839999713004	423	hunger	stimuli/non_foods\non-food_animate_squirrel.jpg	1	4	1	non-food_animate_squirrel	0	T	14	0	150	0		0	0	137.765215900261	137.865199900232
30490.5	0.0999631998129189	424	hunger	stimuli/foods\almonds.jpg	1	4	1	almonds	1	X	17	0	0	0		0	0	137.915234500077	138.01519769989
30528	0.0999851999804378	425	hunger	stimuli/non_foods\non-food_animate_ladybug.jpg	1	4	1	non-food_animate_ladybug	0	F	3	0	124	0		0	0	138.06520920014	138.165194400121
30565.5	0.099982799962163	426	hunger	stimuli/foods\broccoli.jpg	1	4	1	broccoli	1	K	7	0	13	0		0	0	138.215207600035	138.315190399997
30603	0.0999828004278243	427	hunger	stimuli/non_foods\non-food_inanimate_leaf.jpg	1	4	1	non-food_inanimate_leaf	0	M	9	0	192	0		0	0	138.365197999869	138.465180800296
30640.5	0.0999821997247636	428	hunger	stimuli/foods\potatoes.jpg	1	4	1	potatoes	1	R	12	0	248	0		0	0	138.515203600284	138.615185800008
30678	0.0999886002391577	429	hunger	stimuli/non_foods\non-food_animate_cheetah.jpg	1	4	1	non-food_animate_cheetah	0	B	0	0	100	0		0	0	138.66519910004	138.765187700279
30715.5	0.099978799931705	430	hunger	stimuli/non_foods\non-food_inanimate_pine_cone.jpg	1	4	1	non-food_inanimate_pine_cone	0	V	15	0	200	0		0	0	138.815200100187	138.915178900119
30753	0.0999884000048041	431	hunger	stimuli/non_foods\non-food_inanimate_grass.jpg	1	4	1	non-food_inanimate_grass	0	L	8	0	184	0		0	0	138.965188600123	139.065177000128
30790.5	0.100007200147957	432	hunger	stimuli/non_foods\non-food_animate_kangaroo.jpg	1	4	1	non-food_animate_kangaroo	0	Z	18	0	122	0		0	0	139.115172000136	139.215179200284
30828	0.0999814998358488	433	hunger	stimuli/foods\garlic.jpg	1	4	1	garlic	1	P	11	0	56	0		0	0	139.265191600192	139.365173100028
30865.5	0.099983099848032	434	hunger	stimuli/foods\lettuce.jpg	1	4	1	lettuce	1	R	12	0	75	0		0	0	139.415186800063	139.515169899911
30903	0.0999892000108957	435	hunger	stimuli/foods\spinach.jpg	1	4	1	spinach	1	P	11	0	268	0		0	0	139.565184600186	139.665173800196
30940.5	0.0999964997172356	436	hunger	stimuli/non_foods\non-food_inanimate_hay.jpg	1	4	1	non-food_inanimate_hay	0	T	14	0	187	0		0	0	139.715178800281	139.815175299998
30978	0.0999833000823855	437	hunger	stimuli/non_foods\non-food_animate_snail.jpg	1	4	1	non-food_animate_snail	0	G	4	0	149	0		0	0	139.86519209994	139.965175400022
31015.5	0.100004599895328	438	hunger	stimuli/foods\roasted_chicken.jpg	1	4	1	roasted_chicken	1	P	11	0	261	0		0	0	140.015171400271	140.115176000167
31053	0.0999849000945687	439	hunger	stimuli/non_foods\non-food_inanimate_ring.jpg	1	4	1	non-food_inanimate_ring	0	G	4	0	203	0		0	0	140.165188100189	140.265173000284
31090.5	0.0999886002391577	440	hunger	stimuli/non_foods\non-food_inanimate_desk.jpg	1	4	1	non-food_inanimate_desk	0	L	8	0	178	0		0	0	140.31518559996	140.4151742002
31128	0.0999869997613132	441	hunger	stimuli/foods\mango.jpg	1	4	1	mango	1	G	4	0	80	0		0	0	140.465181500185	140.565168499947
31165.5	0.0999557999894023	442	hunger	stimuli/non_foods\non-food_inanimate_jeans.jpg	1	4	1	non-food_inanimate_jeans	0	Z	18	0	191	0		0	0	140.615215400234	140.715171200223
31203	0.0999686000868678	443	hunger	stimuli/foods\museli_bars.jpg	1	4	1	museli_bars	1	N	10	0	84	0		0	0	140.765187799931	140.865156400017
31240.5	0.0999762997962534	444	hunger	stimuli/non_foods\non-food_animate_pigeon.jpg	1	4	1	non-food_animate_pigeon	0	L	8	0	136	0		0	0	140.915171900298	141.015148200095
31278	0.0999857001006603	445	hunger	stimuli/non_foods\non-food_inanimate_hammer.jpg	1	4	1	non-food_inanimate_hammer	0	G	4	0	186	0		0	0	141.065171599854	141.165157299954
31315.5	0.100003700237721	446	hunger	stimuli/non_foods\non-food_inanimate_bush.jpg	1	4	1	non-food_inanimate_bush	0	K	7	0	167	0		0	0	141.215167399962	141.315171100199
31353	0.0999937001615763	447	hunger	stimuli/foods\lime.jpg	1	4	1	lime	1	P	11	0	76	0		0	0	141.365168800112	141.465162500273
31390.5	0.0999582996591926	448	hunger	stimuli/non_foods\non-food_animate_ram.jpg	1	4	1	non-food_animate_ram	0	H	5	0	140	0		0	0	141.515174600296	141.615132899955
31428	0.0999736995436251	449	hunger	stimuli/foods\pancakes.jpg	1	4	1	pancakes	1	W	16	0	234	0		0	0	141.665171500295	141.765145199839
31465.5	0.0999799999408424	450	hunger	stimuli/foods\risotto_with_zucchini.jpg	1	4	1	risotto_with_zucchini	1	P	11	0	260	0		0	0	141.815170499962	141.915150499903
31503	0.100005999673158	451	hunger	stimuli/foods\rice_cake.jpg	1	4	1	rice_cake	1	W	16	0	258	0		0	0	141.965150600299	142.065156599972
31540.5	0.0999874002300203	452	hunger	stimuli/non_foods\non-food_animate_skunk.jpg	1	4	1	non-food_animate_skunk	0	N	10	0	147	0		0	0	142.115169900004	142.215157300234
31578	0.0999802998267114	453	hunger	stimuli/non_foods\non-food_animate_swan.jpg	1	4	1	non-food_animate_swan	0	R	12	0	152	0		0	0	142.265168200247	142.365148500074
31615.5	0.0999849997460842	454	hunger	stimuli/non_foods\non-food_animate_lion.jpg	1	4	1	non-food_animate_lion	0	G	4	0	125	0		0	0	142.415156000294	142.51514100004
31653	0.0999797000549734	455	hunger	stimuli/foods\chocolate_pudding.jpg	1	4	1	chocolate_pudding	1	T	14	0	29	0		0	0	142.565160600003	142.665140300058
31690.5	0.0999830001965165	456	hunger	stimuli/foods\lemon_meringue_pie.jpg	1	4	1	lemon_meringue_pie	1	X	17	0	73	0		0	0	142.715153600089	142.815136600286
31728	0.0999943003989756	457	hunger	stimuli/foods\asparagus.jpg	1	4	1	asparagus	1	A	19	1	4	0		0	0	142.865152699873	142.965147000272
31765.5	0.0999849000945687	458	hunger	stimuli/non_foods\non-food_animate_Asian_man.jpg	1	4	1	non-food_animate_Asian_man	0	S	13	0	88	0		0	0	143.015159999952	143.115144900046
31803	0.0999958999454975	459	hunger	stimuli/non_foods\non-food_animate_parrot.jpg	1	4	1	non-food_animate_parrot	0	W	16	0	133	0		0	0	143.16515630018	143.265152200125
31840.5	0.0999946002848446	460	hunger	stimuli/foods\papaya.jpg	1	4	1	papaya	1	R	12	0	235	0		0	0	143.315142999869	143.415137600154
31878	0.0999960000626743	461	hunger	stimuli/foods\apricot.jpg	1	4	1	apricot	1	C	1	0	2	0		0	0	143.465141800232	143.565137800295
31915.5	0.10000059986487	462	hunger	stimuli/foods\kiwi.jpg	1	4	1	kiwi	1	R	12	0	69	1	a	0.743194300215691	1	143.615149400197	143.715150000062
31953	0.0999696999788284	463	hunger	stimuli/foods\stew_with_potatoes_and_carrots.jpg	1	4	1	stew_with_potatoes_and_carrots	1	F	3	0	271	0		0	0	143.765149800107	143.865119500086
31990.5	0.100016399752349	464	hunger	stimuli/foods\baked_lamb_with_potatoes.jpg	1	4	1	baked_lamb_with_potatoes	1	W	16	0	8	0		0	0	143.915118500125	144.015134899877
32028	0.100001599639654	465	hunger	stimuli/foods\steak.jpg	1	4	1	steak	1	L	8	0	270	0		0	0	144.065133800264	144.165135399904
32065.5	0.100004599895328	466	hunger	stimuli/foods\cauliflower.jpg	1	4	1	cauliflower	1	W	16	0	20	0		0	0	144.21511830017	144.315122900065
32103	0.0999866998754442	467	hunger	stimuli/foods\potato_and_green_bean_salad.jpg	1	4	1	potato_and_green_bean_salad	1	Z	18	0	246	0		0	0	144.365135900211	144.465122600086
32140.5	0.099995999597013	468	hunger	stimuli/non_foods\non-food_animate_dolphin.jpg	1	4	1	non-food_animate_dolphin	0	G	4	0	106	0		0	0	144.515126500279	144.615122499876
32178	0.0999862002208829	469	hunger	stimuli/foods\apple.jpg	1	4	1	apple	1	C	1	0	1	0		0	0	144.6651327	144.765118900221
32215.5	0.0999858002178371	470	hunger	stimuli/non_foods\non-food_inanimate_cactus_pot_plant.jpg	1	4	1	non-food_inanimate_cactus_pot_plant	0	G	4	0	169	0		0	0	144.815131600015	144.915117400233
32253	0.0999937998130918	471	hunger	stimuli/foods\coconut.jpg	1	4	1	coconut	1	T	14	0	33	0		0	0	144.965130200144	145.065123999957
32290.5	0.0999867003411055	472	hunger	stimuli/non_foods\non-food_inanimate_couch.jpg	1	4	1	non-food_inanimate_couch	0	D	2	0	176	0		0	0	145.115137599874	145.215124300215
32328	0.0999868996441364	473	hunger	stimuli/foods\rice.jpg	1	4	1	rice	1	J	6	0	257	0		0	0	145.265126100276	145.36511299992
32365.5	0.0999824996106327	474	hunger	stimuli/foods\pepperoni_pizza.jpg	1	4	1	pepperoni_pizza	1	T	14	0	241	0		0	0	145.415126600303	145.515109099913
32403	0.0999880000017583	475	hunger	stimuli/non_foods\non-food_inanimate_nailpolish.jpg	1	4	1	non-food_inanimate_nailpolish	0	P	11	0	195	0		0	0	145.565122500062	145.665110500064
32440.5	0.0999826001934707	476	hunger	stimuli/non_foods\non-food_inanimate_nettle.jpg	1	4	1	non-food_inanimate_nettle	0	S	13	0	197	0		0	0	145.715124499984	145.815107100178
32478	0.0999862002208829	477	hunger	stimuli/non_foods\non-food_animate_cat.jpg	1	4	1	non-food_animate_cat	0	V	15	0	98	0		0	0	145.865119399969	145.965105600189
32515.5	0.0999862998723984	478	hunger	stimuli/non_foods\non-food_animate_donkey.jpg	1	4	1	non-food_animate_donkey	0	H	5	0	107	0		0	0	146.015118000098	146.11510429997
32553	0.0999865997582674	479	hunger	stimuli/non_foods\non-food_inanimate_toy_airplane.jpg	1	4	1	non-food_inanimate_toy_airplane	0	K	7	0	222	0		0	0	146.165117700119	146.265104299877
32590.5	0.0999888000078499	480	hunger	stimuli/non_foods\non-food_animate_baby_crawling.jpg	1	4	1	non-food_animate_baby_crawling	0	X	17	0	92	0		0	0	146.315113599878	146.415102399886
32628	0.09998709987849	481	hunger	stimuli/foods\cinnamon.jpg	1	4	1	cinnamon	1	B	0	0	30	0		0	0	146.465113200247	146.565100300126
32665.5	0.099995800293982	482	hunger	stimuli/foods\potato_chips.jpg	1	4	1	potato_chips	1	J	6	0	247	0		0	0	146.615110199898	146.715106000192
32703	0.0999842002056539	483	hunger	stimuli/foods\toasted_bread_with_tomatoes.jpg	1	4	1	toasted_bread_with_tomatoes	1	Z	18	0	275	0		0	0	146.765111499932	146.865095700137
32740.5	0.0999892000108957	484	hunger	stimuli/non_foods\non-food_animate_monkey.jpg	1	4	1	non-food_animate_monkey	0	V	15	0	130	0		0	0	146.91511829989	147.015107499901
32778	0.0999795999377966	485	hunger	stimuli/non_foods\non-food_inanimate_scissors.jpg	1	4	1	non-food_inanimate_scissors	0	F	3	0	205	0		0	0	147.06511620013	147.165095800068
32815.5	0.10000400012359	486	hunger	stimuli/non_foods\non-food_animate_Causasian_man.jpg	1	4	1	non-food_animate_Causasian_man	0	Z	18	0	89	0		0	0	147.215096599888	147.315100600012
32853	0.0999925001524389	487	hunger	stimuli/foods\pasta_carbonara.jpg	1	4	1	pasta_carbonara	1	V	15	0	236	0		0	0	147.365102800075	147.465095300227
32890.5	0.0999586996622384	488	hunger	stimuli/foods\watermelon.jpg	1	4	1	watermelon	1	S	13	0	279	0		0	0	147.515113300178	147.61507199984
32928	0.0999904000200331	489	hunger	stimuli/non_foods\non-food_animate_deer.jpg	1	4	1	non-food_animate_deer	0	F	3	0	105	0		0	0	147.665098399855	147.765088799875
32965.5	0.0999949998222291	490	hunger	stimuli/non_foods\non-food_inanimate_protractor.jpg	1	4	1	non-food_inanimate_protractor	0	M	9	0	201	0		0	0	147.815102000255	147.915097000077
33003	0.0999603001400828	491	hunger	stimuli/foods\cucumber.jpg	1	4	1	cucumber	1	R	12	0	41	0		0	0	147.965109500103	148.065069800243
33040.5	0.0999849000945687	492	hunger	stimuli/non_foods\non-food_inanimate_guitar.jpg	1	4	1	non-food_inanimate_guitar	0	P	11	0	185	0		0	0	148.115098100156	148.21508300025
33078	0.0999957998283207	493	hunger	stimuli/non_foods\non-food_animate_baby_sitting.jpg	1	4	1	non-food_animate_baby_sitting	0	S	13	0	93	0		0	0	148.265095700044	148.365091499873
33115.5	0.0999875999987125	494	hunger	stimuli/foods\pumpkin.jpg	1	4	1	pumpkin	1	D	2	0	250	0		0	0	148.415094099939	148.515081699938
33153	0.0999614000320435	495	hunger	stimuli/non_foods\non-food_inanimate_nest.jpg	1	4	1	non-food_inanimate_nest	0	K	7	0	196	0		0	0	148.56511570001	148.665077100042
33190.5	0.0999747002497315	496	hunger	stimuli/non_foods\non-food_animate_bat.jpg	1	4	1	non-food_animate_bat	0	B	0	0	94	0		0	0	148.715101900045	148.815076600295
33228	0.0999835003167391	497	hunger	stimuli/foods\lentils.jpg	1	4	1	lentils	1	P	11	0	74	0		0	0	148.865091499873	148.965075000189
33265.5	0.0999753000214696	498	hunger	stimuli/non_foods\non-food_animate_sea_lion.jpg	1	4	1	non-food_animate_sea_lion	0	W	16	0	143	0		0	0	149.015090399887	149.115065699909
33303	0.0999890002422035	499	hunger	stimuli/foods\raw_sausage.jpg	1	4	1	raw_sausage	1	H	5	0	254	0		0	0	149.165081299841	149.265070300084
33340.5	0.0999797997064888	500	hunger	stimuli/non_foods\non-food_animate_student_female.jpg	1	4	1	non-food_animate_student_female	0	G	4	0	151	0		0	0	149.315087600145	149.415067399852
33378	0.0999874002300203	501	hunger	stimuli/foods\savory_pie.jpg	1	4	1	savory_pie	1	L	8	0	265	0		0	0	149.465083099902	149.565070500132
33415.5	0.099985099863261	502	hunger	stimuli/non_foods\non-food_inanimate_briefcase.jpg	1	4	1	non-food_inanimate_briefcase	0	H	5	0	163	0		0	0	149.615081800148	149.715066900011
33453	0.0999834001995623	503	hunger	stimuli/non_foods\non-food_animate_elephant.jpg	1	4	1	non-food_animate_elephant	0	J	6	0	111	0		0	0	149.765086099971	149.865069500171
33490.5	0.100019999779761	504	hunger	stimuli/foods\grapefruits.jpg	1	4	1	grapefruits	1	P	11	0	59	0		0	0	149.915062200278	150.015082200058
33528	0.0999878002330661	505	hunger	stimuli/foods\cream_donuts.jpg	1	4	1	cream_donuts	1	N	10	0	39	0		0	0	150.065085500013	150.165073300246
33565.5	0.0999778001569211	506	hunger	stimuli/foods\oyster.jpg	1	4	1	oyster	1	V	15	0	233	0		0	0	150.21508600004	150.315063800197
33603	0.0999479000456631	507	hunger	stimuli/non_foods\non-food_animate_millipede.jpg	1	4	1	non-food_animate_millipede	0	M	9	0	129	0		0	0	150.365094900131	150.465042800177
33640.5	0.100013799965382	508	hunger	stimuli/non_foods\non-food_inanimate_short_sleeved_shirt.jpg	1	4	1	non-food_inanimate_short_sleeved_shirt	0	H	5	0	207	0		0	0	150.515051099937	150.615064899903
33678	0.0999896000139415	509	hunger	stimuli/non_foods\non-food_animate_giraffe.jpg	1	4	1	non-food_animate_giraffe	0	D	2	0	115	0		0	0	150.665074300021	150.765063900035
33715.5	0.0999773000366986	510	hunger	stimuli/non_foods\non-food_inanimate_cap.jpg	1	4	1	non-food_inanimate_cap	0	P	11	0	171	0		0	0	150.815074900165	150.915052200202
33753	0.0999871999956667	511	hunger	stimuli/non_foods\non-food_animate_mouse.jpg	1	4	1	non-food_animate_mouse	0	A	19	1	131	0		0	0	150.965076900087	151.065064100083
33790.5	0.0999841000884771	512	hunger	stimuli/foods\hamburger.jpg	1	4	1	hamburger	1	J	6	0	64	0		0	0	151.115077400114	151.215061500203
33828	0.0999986999668181	513	hunger	stimuli/foods\avocado.jpg	1	4	1	avocado	1	N	10	0	5	0		0	0	151.265049099922	151.365047799889
33865.5	0.099989399779588	514	hunger	stimuli/non_foods\non-food_inanimate_rack.jpg	1	4	1	non-food_inanimate_rack	0	V	15	0	202	1	a	0.541808700188994	1	151.415062200278	151.515051600058
33903	0.0999853000976145	515	hunger	stimuli/non_foods\non-food_inanimate_tulip.jpg	1	4	1	non-food_inanimate_tulip	0	J	6	0	224	0		0	0	151.56506319996	151.665048500057
33940.5	0.099984799977392	516	hunger	stimuli/non_foods\non-food_inanimate_soccer_ball.jpg	1	4	1	non-food_inanimate_soccer_ball	0	D	2	0	210	0		0	0	151.715063299984	151.815048099961
33978	0.0999841000884771	517	hunger	stimuli/foods\fries.jpg	1	4	1	fries	1	Z	18	0	52	0		0	0	151.865053399932	151.96503750002
34015.5	0.0999877997674048	518	hunger	stimuli/foods\red_cabbage.jpg	1	4	1	red_cabbage	1	W	16	0	256	0		0	0	152.015067200176	152.115054999944
34053	0.0999837000854313	519	hunger	stimuli/non_foods\non-food_animate_sea_turtle.jpg	1	4	1	non-food_animate_sea_turtle	0	S	13	0	144	0		0	0	152.165070400108	152.265054100193
34090.5	0.099991699680686	520	hunger	stimuli/non_foods\non-food_animate_butterfly.jpg	1	4	1	non-food_animate_butterfly	0	V	15	0	96	0		0	0	152.315040800255	152.415032499935
34128	0.0999831999652088	521	hunger	stimuli/foods\croissant.jpg	1	4	1	croissant	1	J	6	0	40	0		0	0	152.465063100215	152.56504630018
34165.5	0.099974799901247	522	hunger	stimuli/foods\mushroom.jpg	1	4	1	mushroom	1	F	3	0	85	0		0	0	152.615061100107	152.715035900008
34203	0.0999957998283207	523	hunger	stimuli/foods\green_olives.jpg	1	4	1	green_olives	1	N	10	0	62	0		0	0	152.765045600012	152.86504139984
34240.5	0.0999846002086997	524	hunger	stimuli/non_foods\non-food_animate_porcupine.jpg	1	4	1	non-food_animate_porcupine	0	R	12	0	138	0		0	0	152.915058000013	153.015042600222
34278	0.0999737000092864	525	hunger	stimuli/non_foods\non-food_animate_slug.jpg	1	4	1	non-food_animate_slug	0	D	2	0	148	0		0	0	153.065057700034	153.165031400044
34315.5	0.0999841000884771	526	hunger	stimuli/non_foods\non-food_animate_peacock.jpg	1	4	1	non-food_animate_peacock	0	G	4	0	134	0		0	0	153.215043799952	153.31502790004
34353	0.099974500015378	527	hunger	stimuli/foods\raw_ham.jpg	1	4	1	raw_ham	1	M	9	0	253	0		0	0	153.365042100195	153.46501660021
34390.5	0.0999770001508296	528	hunger	stimuli/foods\linguine_with_clams.jpg	1	4	1	linguine_with_clams	1	H	5	0	77	0		0	0	153.515041700099	153.615018700249
34428	0.0999841000884771	529	hunger	stimuli/foods\mussels.jpg	1	4	1	mussels	1	G	4	0	86	0		0	0	153.665051300079	153.765035400167
34465.5	0.0999845000915229	530	hunger	stimuli/foods\capsicum.jpg	1	4	1	capsicum	1	B	0	0	18	0		0	0	153.815050799865	153.915035299957
34503	0.0999778001569211	531	hunger	stimuli/non_foods\non-food_inanimate_buds.jpg	1	4	1	non-food_inanimate_buds	0	S	13	0	166	0		0	0	153.96504619997	154.065024000127
34540.5	0.0999880996532738	532	hunger	stimuli/non_foods\non-food_inanimate_speakers.jpg	1	4	1	non-food_inanimate_speakers	0	H	5	0	212	0		0	0	154.115037000272	154.215025099926
34578	0.100005200132728	533	hunger	stimuli/non_foods\non-food_inanimate_tent.jpg	1	4	1	non-food_inanimate_tent	0	N	10	0	219	0		0	0	154.265025400091	154.365030600224
34615.5	0.0999835999682546	534	hunger	stimuli/non_foods\non-food_inanimate_watering_can.jpg	1	4	1	non-food_inanimate_watering_can	0	F	3	0	225	0		0	0	154.415040799882	154.515024399851
34653	0.0999964997172356	535	hunger	stimuli/foods\clams.jpg	1	4	1	clams	1	T	14	0	32	0		0	0	154.56501220027	154.665008699987
34690.5	0.100005400367081	536	hunger	stimuli/non_foods\non-food_inanimate_fire_extinguisher.jpg	1	4	1	non-food_inanimate_fire_extinguisher	0	O	22	1	181	0		0	0	154.715017099865	154.815022500232
34728	0.0999712003394961	537	hunger	stimuli/foods\meatballs.jpg	1	4	1	meatballs	1	T	14	0	81	0		0	0	154.865031899884	154.965003100224
34765.5	0.0999798998236656	538	hunger	stimuli/foods\tomato.jpg	1	4	1	tomato	1	F	3	0	276	0		0	0	155.015036600176	155.1150165
34803	0.100002200342715	539	hunger	stimuli/foods\cooked_ham.jpg	1	4	1	cooked_ham	1	V	15	0	35	0		0	0	155.165028499905	155.265030700248
34840.5	0.0999937001615763	540	hunger	stimuli/foods\coffee_beans.jpg	1	4	1	coffee_beans	1	J	6	0	34	0		0	0	155.315025799908	155.415019500069
34878	0.0999855999834836	541	hunger	stimuli/non_foods\non-food_animate_rhino.jpg	1	4	1	non-food_animate_rhino	0	X	17	0	141	0		0	0	155.465032599866	155.56501819985
34915.5	0.0999799999408424	542	hunger	stimuli/non_foods\non-food_inanimate_clover.jpg	1	4	1	non-food_inanimate_clover	0	T	14	0	174	0		0	0	155.615037099924	155.715017099865
34953	0.0999744003638625	543	hunger	stimuli/non_foods\non-food_inanimate_tree.jpg	1	4	1	non-food_inanimate_tree	0	M	9	0	223	0		0	0	155.765027599875	155.865002000239
34990.5	0.0999763002619147	544	hunger	stimuli/non_foods\non-food_inanimate_drum_set.jpg	1	4	1	non-food_inanimate_drum_set	0	S	13	0	179	0		0	0	155.915026600007	156.015002900269
35028	0.0999953998252749	545	hunger	stimuli/foods\baked_cod_with_carrots_and_green_beans.jpg	1	4	1	baked_cod_with_carrots_and_green_beans	1	R	12	0	7	0		0	0	156.065017200075	156.1650125999
35065.5	0.0999586000107229	546	hunger	stimuli/foods\fruit_salad.jpg	1	4	1	fruit_salad	1	M	9	0	55	0		0	0	156.215025000274	156.314983600285
35103	0.0999834998510778	547	hunger	stimuli/non_foods\non-food_inanimate_bicycle.jpg	1	4	1	non-food_inanimate_bicycle	0	N	10	0	161	0		0	0	156.365021000151	156.465004500002
35140.5	0.0999930002726614	548	hunger	stimuli/foods\prawn.jpg	1	4	1	prawn	1	D	2	0	249	0		0	0	156.515010999981	156.615004000254
35178	0.10003300011158	549	hunger	stimuli/foods\spring_onions.jpg	1	4	1	spring_onions	1	L	8	0	269	0		0	0	156.665006400086	156.765039400198
35215.5	0.100000199861825	550	hunger	stimuli/non_foods\non-food_inanimate_teddy_bear.jpg	1	4	1	non-food_inanimate_teddy_bear	0	Z	18	0	218	0		0	0	156.815020800103	156.915020999964
35253	0.0999851999804378	551	hunger	stimuli/foods\red_beans.jpg	1	4	1	red_beans	1	J	6	0	255	0		0	0	156.965018799994	157.065003999975
35290.5	0.0999842998571694	552	hunger	stimuli/foods\brie.jpg	1	4	1	brie	1	M	9	0	12	0		0	0	157.115015500225	157.214999800082
35328	0.0999878002330661	553	hunger	stimuli/foods\minestrone_soup.jpg	1	4	1	minestrone_soup	1	W	16	0	82	0		0	0	157.265004300047	157.36499210028
35365.5	0.099970200099051	554	hunger	stimuli/foods\nectarine.jpg	1	4	1	nectarine	1	V	15	0	87	0		0	0	157.415006800089	157.514977000188
35403	0.099984799977392	555	hunger	stimuli/non_foods\non-food_inanimate_folding_chair.jpg	1	4	1	non-food_inanimate_folding_chair	0	Z	18	0	182	0		0	0	157.565013200045	157.664998000022
35440.5	0.0999858998693526	556	hunger	stimuli/foods\figs.jpg	1	4	1	figs	1	C	1	0	48	0		0	0	157.71500910027	157.814995000139
35478	0.0999761000275612	557	hunger	stimuli/non_foods\non-food_inanimate_cupboard.jpg	1	4	1	non-food_inanimate_cupboard	0	X	17	0	177	0		0	0	157.865007400047	157.964983500075
35515.5	0.099989699665457	558	hunger	stimuli/non_foods\non-food_animate_young_girl.jpg	1	4	1	non-food_animate_young_girl	0	H	5	0	157	0		0	0	158.01499650022	158.114986199886
35553	0.09998539974913	559	hunger	stimuli/non_foods\non-food_inanimate_chandelier.jpg	1	4	1	non-food_inanimate_chandelier	0	B	0	0	173	0		0	0	158.16499690013	158.264982299879
36407	0.0999862998723984	560	hunger	stimuli/foods\figs.jpg	1	5	1	figs	1	B	0	0	48	0		0	0	161.581634200178	161.68162050005
36444.5	0.100000500213355	561	hunger	stimuli/foods\strawberry.jpg	1	5	1	strawberry	1	J	6	0	272	0		0	0	161.731652299874	161.831652800087
36482	0.0999803002923727	562	hunger	stimuli/non_foods\non-food_inanimate_orchid.jpg	1	5	1	non-food_inanimate_orchid	0	D	2	0	198	0		0	0	161.881630099844	161.981610400137
36519.5	0.0999846998602152	563	hunger	stimuli/foods\broccoli.jpg	1	5	1	broccoli	1	B	0	0	13	0		0	0	162.031623400282	162.131608100142
36557	0.0999858998693526	564	hunger	stimuli/foods\pomegranate.jpg	1	5	1	pomegranate	1	N	10	0	244	0		0	0	162.181622900069	162.281608799938
36594.5	0.0999841997399926	565	hunger	stimuli/foods\banana.jpg	1	5	1	banana	1	R	12	0	9	0		0	0	162.331621500198	162.431605699938
36632	0.0999878998845816	566	hunger	stimuli/foods\meatballs.jpg	1	5	1	meatballs	1	P	11	0	81	0		0	0	162.481616700068	162.581604599953
36669.5	0.0999815003015101	567	hunger	stimuli/non_foods\non-food_inanimate_skateboard.jpg	1	5	1	non-food_inanimate_skateboard	0	Z	18	0	208	0		0	0	162.631620999891	162.731602500193
36707	0.0999588998965919	568	hunger	stimuli/non_foods\non-food_animate_millipede.jpg	1	5	1	non-food_animate_millipede	0	F	3	0	129	0		0	0	162.78162530018	162.881584200077
36744.5	0.0999937001615763	569	hunger	stimuli/foods\raisins.jpg	1	5	1	raisins	1	S	13	0	252	0		0	0	162.931621300057	163.031615000218
36782	0.100004400126636	570	hunger	stimuli/non_foods\non-food_animate_skunk.jpg	1	5	1	non-food_animate_skunk	0	D	2	0	147	0		0	0	163.081604599953	163.181609000079
36819.5	0.100014000199735	571	hunger	stimuli/foods\cracker.jpg	1	5	1	cracker	1	E	20	1	38	0		0	0	163.231591499876	163.331605500076
36857	0.100010300055146	572	hunger	stimuli/foods\lasagna.jpg	1	5	1	lasagna	1	V	15	0	71	0		0	0	163.381617799867	163.481628099922
36894.5	0.0999799999408424	573	hunger	stimuli/foods\omelette.jpg	1	5	1	omelette	1	S	13	0	228	0		0	0	163.531624400057	163.631604399998
36932	0.100011100061238	574	hunger	stimuli/non_foods\non-food_animate_Causasian_man.jpg	1	5	1	non-food_animate_Causasian_man	0	G	4	0	89	1	a	0.554487999994308	1	163.681590000167	163.781601100229
36969.5	0.0999885001219809	575	hunger	stimuli/foods\papaya.jpg	1	5	1	papaya	1	D	2	0	235	0		0	0	163.831606099848	163.93159459997
37007	0.0999746001325548	576	hunger	stimuli/foods\pickles.jpg	1	5	1	pickles	1	L	8	0	242	0		0	0	163.981613399927	164.081588000059
37044.5	0.0999942002817988	577	hunger	stimuli/non_foods\non-food_animate_young_girl.jpg	1	5	1	non-food_animate_young_girl	0	H	5	0	157	0		0	0	164.131603899878	164.231598100159
37082	0.0999877001158893	578	hunger	stimuli/foods\peach.jpg	1	5	1	peach	1	L	8	0	238	0		0	0	164.281600200105	164.381587900221
37119.5	0.0999845000915229	579	hunger	stimuli/foods\cereal.jpg	1	5	1	cereal	1	F	3	0	22	0		0	0	164.431597299874	164.531581799965
37157	0.100002699997276	580	hunger	stimuli/foods\minestrone_soup.jpg	1	5	1	minestrone_soup	1	G	4	0	82	0		0	0	164.581591300201	164.681594000198
37194.5	0.0999706001020968	581	hunger	stimuli/non_foods\non-food_animate_cat.jpg	1	5	1	non-food_animate_cat	0	T	14	0	98	0		0	0	164.731603799853	164.831574399956
37232	0.0999903003685176	582	hunger	stimuli/non_foods\non-food_animate_horse.jpg	1	5	1	non-food_animate_horse	0	D	2	0	119	0		0	0	164.881599499844	164.981589800213
37269.5	0.0999797000549734	583	hunger	stimuli/non_foods\non-food_animate_lion.jpg	1	5	1	non-food_animate_lion	0	X	17	0	125	0		0	0	165.031604399905	165.13158409996
37307	0.0999831999652088	584	hunger	stimuli/foods\garlic.jpg	1	5	1	garlic	1	K	7	0	56	0		0	0	165.181599000003	165.281582199968
37344.5	0.0999211999587715	585	hunger	stimuli/foods\chilli.jpg	1	5	1	chilli	1	Z	18	0	25	0		0	0	165.331662500277	165.431583700236
37382	0.0999871999956667	586	hunger	stimuli/foods\beetroots.jpg	1	5	1	beetroots	1	T	14	0	10	0		0	0	165.481594900135	165.581582100131
37419.5	0.0999888000078499	587	hunger	stimuli/non_foods\non-food_animate_bat.jpg	1	5	1	non-food_animate_bat	0	S	13	0	94	0		0	0	165.631591999903	165.731580799911
37457	0.0999917001463473	588	hunger	stimuli/non_foods\non-food_inanimate_toy_airplane.jpg	1	5	1	non-food_inanimate_toy_airplane	0	H	5	0	222	0		0	0	165.781585799996	165.881577500142
37494.5	0.0999854998663068	589	hunger	stimuli/foods\celery.jpg	1	5	1	celery	1	W	16	0	21	0		0	0	165.93159160018	166.031577100046
37532	0.0999722997657955	590	hunger	stimuli/foods\red_beans.jpg	1	5	1	red_beans	1	H	5	0	255	0		0	0	166.081595200114	166.18156749988
37569.5	0.100004099775106	591	hunger	stimuli/foods\potato_chips.jpg	1	5	1	potato_chips	1	C	1	0	247	0		0	0	166.231567100156	166.331571199931
37607	0.0999870002269745	592	hunger	stimuli/foods\pineapple.jpg	1	5	1	pineapple	1	N	10	0	243	0		0	0	166.381586899981	166.481573900208
37644.5	0.0999833000823855	593	hunger	stimuli/foods\cupcake.jpg	1	5	1	cupcake	1	L	8	0	42	0		0	0	166.5315884999	166.631571799982
37682	0.100007700268179	594	hunger	stimuli/non_foods\non-food_inanimate_towel.jpg	1	5	1	non-food_inanimate_towel	0	S	13	0	221	0		0	0	166.681557300035	166.781565000303
37719.5	0.0999882998876274	595	hunger	stimuli/non_foods\non-food_animate_rhino.jpg	1	5	1	non-food_animate_rhino	0	H	5	0	141	0		0	0	166.83158330014	166.931571600027
37757	0.100004999898374	596	hunger	stimuli/foods\salmon.jpg	1	5	1	salmon	1	R	12	0	264	0		0	0	166.981580100022	167.081585099921
37794.5	0.0999902999028563	597	hunger	stimuli/foods\red_cabbage.jpg	1	5	1	red_cabbage	1	W	16	0	256	0		0	0	167.131574300118	167.231564600021
37832	0.0999857001006603	598	hunger	stimuli/non_foods\non-food_inanimate_hay.jpg	1	5	1	non-food_inanimate_hay	0	T	14	0	187	0		0	0	167.281575900037	167.381561600138
37869.5	0.0999835999682546	599	hunger	stimuli/foods\brie.jpg	1	5	1	brie	1	B	0	0	12	0		0	0	167.431578900199	167.531562500168
37907	0.0999799999408424	600	hunger	stimuli/non_foods\non-food_animate_duck.jpg	1	5	1	non-food_animate_duck	0	F	3	0	109	0		0	0	167.581576100085	167.681556100026
37944.5	0.0999839999713004	601	hunger	stimuli/non_foods\non-food_inanimate_padlock.jpg	1	5	1	non-food_inanimate_padlock	0	G	4	0	199	0		0	0	167.731567500159	167.83155150013
37982	0.0999851999804378	602	hunger	stimuli/non_foods\non-food_inanimate_bucket.jpg	1	5	1	non-food_inanimate_bucket	0	Z	18	0	165	0		0	0	167.881565100048	167.981550300028
38019.5	0.0999840996228158	603	hunger	stimuli/foods\lime.jpg	1	5	1	lime	1	S	13	0	76	0		0	0	168.0315646003	168.131548699923
38057	0.0999815999530256	604	hunger	stimuli/foods\cherry.jpg	1	5	1	cherry	1	N	10	0	23	0		0	0	168.18156500021	168.281546600163
38094.5	0.099972799886018	605	hunger	stimuli/foods\apple.jpg	1	5	1	apple	1	R	12	0	1	0		0	0	168.331570100039	168.431542899925
38132	0.0999853000976145	606	hunger	stimuli/non_foods\non-food_inanimate_fern.jpg	1	5	1	non-food_inanimate_fern	0	V	15	0	180	0		0	0	168.481557900086	168.581543200184
38169.5	0.0999902999028563	607	hunger	stimuli/foods\mortadella.jpg	1	5	1	mortadella	1	F	3	0	83	0		0	0	168.631557099987	168.73154739989
38207	0.100001899991184	608	hunger	stimuli/foods\grapefruits.jpg	1	5	1	grapefruits	1	T	14	0	59	0		0	0	168.781541500241	168.881543400232
38244.5	0.0999517999589443	609	hunger	stimuli/foods\fried_calamari.jpg	1	5	1	fried_calamari	1	N	10	0	50	0		0	0	168.931583600119	169.031535400078
38282	0.0999878002330661	610	hunger	stimuli/foods\frankfurter_and_provolone_salad.jpg	1	5	1	frankfurter_and_provolone_salad	1	L	8	0	49	0		0	0	169.081557699945	169.181545500178
38319.5	0.0999905997887254	611	hunger	stimuli/non_foods\non-food_animate_elephant.jpg	1	5	1	non-food_animate_elephant	0	F	3	0	111	0		0	0	169.231550500263	169.331541100051
38357	0.0999926999211311	612	hunger	stimuli/non_foods\non-food_inanimate_protractor.jpg	1	5	1	non-food_inanimate_protractor	0	J	6	0	201	0		0	0	169.381549499929	169.48154219985
38394.5	0.0999726997688413	613	hunger	stimuli/foods\lettuce.jpg	1	5	1	lettuce	1	T	14	0	75	0		0	0	169.531567700207	169.631540399976
38432	0.100001300219446	614	hunger	stimuli/non_foods\non-food_inanimate_cupboard.jpg	1	5	1	non-food_inanimate_cupboard	0	L	8	0	177	0		0	0	169.681526999921	169.78152830014
38469.5	0.0999944997020066	615	hunger	stimuli/foods\brownie.jpg	1	5	1	brownie	1	D	2	0	14	0		0	0	169.831546000205	169.931540499907
38507	0.0999801997095346	616	hunger	stimuli/foods\asparagus.jpg	1	5	1	asparagus	1	W	16	0	4	0		0	0	169.981544100214	170.081524299923
38544.5	0.0999842998571694	617	hunger	stimuli/foods\fries.jpg	1	5	1	fries	1	V	15	0	52	0		0	0	170.131546000019	170.231530299876
38582	0.0999841000884771	618	hunger	stimuli/non_foods\non-food_animate_kangaroo.jpg	1	5	1	non-food_animate_kangaroo	0	G	4	0	122	0		0	0	170.281540799886	170.381524899974
38619.5	0.0999674000777304	619	hunger	stimuli/foods\dates.jpg	1	5	1	dates	1	T	14	0	43	0		0	0	170.431541800033	170.531509200111
38657	0.100001399870962	620	hunger	stimuli/non_foods\non-food_animate_green_bug.jpg	1	5	1	non-food_animate_green_bug	0	X	17	0	118	0		0	0	170.58155150013	170.681552900001
38694.5	0.0999545999802649	621	hunger	stimuli/non_foods\non-food_animate_deer.jpg	1	5	1	non-food_animate_deer	0	W	16	0	105	0		0	0	170.731574899983	170.831529499963
38732	0.0999871999956667	622	hunger	stimuli/foods\raw_ham.jpg	1	5	1	raw_ham	1	M	9	0	253	0		0	0	170.881543499883	170.981530699879
38769.5	0.100002699997276	623	hunger	stimuli/foods\mushroom.jpg	1	5	1	mushroom	1	K	7	0	85	0		0	0	171.031514700036	171.131517400034
38807	0.0999843003228307	624	hunger	stimuli/non_foods\non-food_animate_penguin.jpg	1	5	1	non-food_animate_penguin	0	J	6	0	135	0		0	0	171.181532599963	171.281516900286
38844.5	0.0999880000017583	625	hunger	stimuli/non_foods\non-food_animate_mammoth.jpg	1	5	1	non-food_animate_mammoth	0	K	7	0	128	0		0	0	171.331524500158	171.431512500159
38882	0.09998539974913	626	hunger	stimuli/foods\brussel_sprouts.jpg	1	5	1	brussel_sprouts	1	G	4	0	15	0		0	0	171.481528600212	171.581513999961
38919.5	0.0999870002269745	627	hunger	stimuli/non_foods\non-food_inanimate_bush.jpg	1	5	1	non-food_inanimate_bush	0	X	17	0	167	0		0	0	171.631528099999	171.731515100226
38957	0.0999920000322163	628	hunger	stimuli/non_foods\non-food_animate_frog.jpg	1	5	1	non-food_animate_frog	0	N	10	0	113	0		0	0	171.781539100222	171.881531100255
38994.5	0.100003600120544	629	hunger	stimuli/foods\watermelon.jpg	1	5	1	watermelon	1	B	0	0	279	0		0	0	171.931509600021	172.031513200141
39032	0.0999785996973515	630	hunger	stimuli/foods\carrot.jpg	1	5	1	carrot	1	R	12	0	19	0		0	0	172.081527300179	172.181505899876
39069.5	0.0999986999668181	631	hunger	stimuli/non_foods\non-food_animate_mouse.jpg	1	5	1	non-food_animate_mouse	0	G	4	0	131	0		0	0	172.231522200163	172.33152090013
39107	0.0999519000761211	632	hunger	stimuli/foods\tomato.jpg	1	5	1	tomato	1	T	14	0	276	0		0	0	172.381551300175	172.481503200252
39144.5	0.0999569999985397	633	hunger	stimuli/non_foods\non-food_animate_lizard.jpg	1	5	1	non-food_animate_lizard	0	J	6	0	126	0		0	0	172.531545199919	172.631502199918
39182	0.10000959970057	634	hunger	stimuli/foods\cinnamon.jpg	1	5	1	cinnamon	1	A	19	1	30	0		0	0	172.681505800225	172.781515399925
39219.5	0.0999879003502429	635	hunger	stimuli/non_foods\non-food_animate_owl.jpg	1	5	1	non-food_animate_owl	0	R	12	0	132	0		0	0	172.831519499887	172.931507400237
39257	0.0999777000397444	636	hunger	stimuli/foods\wafer.jpg	1	5	1	wafer	1	B	0	0	277	0		0	0	172.981520600151	173.081498300191
39294.5	0.0999835003167391	637	hunger	stimuli/non_foods\non-food_animate_iguana.jpg	1	5	1	non-food_animate_iguana	0	G	4	0	121	1	a	0.443191799800843	1	173.131514099892	173.231497600209
39332	0.099984799977392	638	hunger	stimuli/foods\capsicum.jpg	1	5	1	capsicum	1	D	2	0	18	0		0	0	173.281511500012	173.38149629999
39369.5	0.100013700313866	639	hunger	stimuli/non_foods\non-food_animate_llama.jpg	1	5	1	non-food_animate_llama	0	K	7	0	127	0		0	0	173.431501999963	173.531515700277
39407	0.0999998999759555	640	hunger	stimuli/foods\apricot.jpg	1	5	1	apricot	1	Z	18	0	2	0		0	0	173.581495600287	173.681495500263
39444.5	0.09998709987849	641	hunger	stimuli/non_foods\non-food_inanimate_pine_cone.jpg	1	5	1	non-food_inanimate_pine_cone	0	C	1	0	200	0		0	0	173.731504400261	173.831491500139
39482	0.10000120010227	642	hunger	stimuli/foods\fennel.jpg	1	5	1	fennel	1	P	11	0	47	0		0	0	173.881498700008	173.98149990011
39519.5	0.100002099759877	643	hunger	stimuli/foods\swordfish.jpg	1	5	1	swordfish	1	X	17	0	273	0		0	0	174.031511300243	174.131513400003
39557	0.0999664003029466	644	hunger	stimuli/foods\pea_pod.jpg	1	5	1	pea_pod	1	P	11	0	237	0		0	0	174.181526999921	174.281493400224
39594.5	0.0999855999834836	645	hunger	stimuli/foods\waffle.jpg	1	5	1	waffle	1	T	14	0	278	0		0	0	174.331498200074	174.431483800057
39632	0.099985099863261	646	hunger	stimuli/foods\lamb_chops.jpg	1	5	1	lamb_chops	1	K	7	0	70	0		0	0	174.481500300113	174.581485399976
39669.5	0.099989399779588	647	hunger	stimuli/non_foods\non-food_inanimate_bamboo.jpg	1	5	1	non-food_inanimate_bamboo	0	P	11	0	159	0		0	0	174.631495600101	174.73148499988
39707	0.0999831003136933	648	hunger	stimuli/foods\lemon.jpg	1	5	1	lemon	1	H	5	0	72	0		0	0	174.78149549989	174.881478600204
39744.5	0.100001600105315	649	hunger	stimuli/non_foods\non-food_animate_student_female.jpg	1	5	1	non-food_animate_student_female	0	K	7	0	151	0		0	0	174.931487999856	175.031489599962
39782	0.0999827003106475	650	hunger	stimuli/non_foods\non-food_animate_cheetah.jpg	1	5	1	non-food_animate_cheetah	0	M	9	0	100	0		0	0	175.081501599867	175.181484300178
39819.5	0.100031100213528	651	hunger	stimuli/foods\bagel.jpg	1	5	1	bagel	1	F	3	0	6	0		0	0	175.231498599984	175.331529700197
39857	0.0999858998693526	652	hunger	stimuli/non_foods\non-food_inanimate_headphones.jpg	1	5	1	non-food_inanimate_headphones	0	P	11	0	188	0		0	0	175.381496699993	175.481482599862
39894.5	0.0999849000945687	653	hunger	stimuli/non_foods\non-food_inanimate_broom.jpg	1	5	1	non-food_inanimate_broom	0	S	13	0	164	0		0	0	175.531492399983	175.631477300078
