onset	duration	eventnumber	hunger_condition	stimfilename	blockno	trialno	is_faststream	stim	food_idx	letter	letter_idx	istarget	image_number	response	keypressed	rt	correct	time_stimon	time_stimoff
6743.75	0.099983100022655	0	satiated	stimuli/non_foods\non-food_animate_polar_bear.jpg	1	1	1	non-food_animate_polar_bear	0	W	16	0	137	0		0	0	44.1923409999581	44.2923240999808
6781.25	0.10002730000997	1	satiated	stimuli/non_foods\non-food_animate_student_female.jpg	1	1	1	non-food_animate_student_female	0	G	4	0	151	0		0	0	44.3423318999703	44.4423591999803
6818.75	0.0999734000070021	2	satiated	stimuli/foods\fried_zucchini.jpg	1	1	1	fried_zucchini	1	T	14	0	51	0		0	0	44.492334999959	44.592308399966
6856.25	0.0999830999644473	3	satiated	stimuli/foods\bagel.jpg	1	1	1	bagel	1	S	13	0	6	0		0	0	44.6423198999837	44.7423029999482
6893.75	0.0999888000078499	4	satiated	stimuli/non_foods\non-food_inanimate_lighter.jpg	1	1	1	non-food_inanimate_lighter	0	J	6	0	193	0		0	0	44.7923129999544	44.8923017999623
6931.25	0.0999782999861054	5	satiated	stimuli/foods\brownie.jpg	1	1	1	brownie	1	T	14	0	14	0		0	0	44.9423155999975	45.0422938999836
6968.75	0.0999871999956667	6	satiated	stimuli/non_foods\non-food_inanimate_pine_cone.jpg	1	1	1	non-food_inanimate_pine_cone	0	V	15	0	200	0		0	0	45.0923355999985	45.1923227999941
7006.25	0.099965599947609	7	satiated	stimuli/non_foods\non-food_inanimate_tree.jpg	1	1	1	non-food_inanimate_tree	0	W	16	0	223	0		0	0	45.2423398999963	45.3423054999439
7043.75	0.0999936999869533	8	satiated	stimuli/non_foods\non-food_inanimate_wrench.jpg	1	1	1	non-food_inanimate_wrench	0	M	9	0	227	0		0	0	45.392311499978	45.4923051999649
7081.25	0.0999816000112332	9	satiated	stimuli/non_foods\non-food_inanimate_bicycle.jpg	1	1	1	non-food_inanimate_bicycle	0	W	16	0	161	0		0	0	45.5423213999602	45.6423029999714
7118.75	0.0999835999682546	10	satiated	stimuli/non_foods\non-food_inanimate_orchid.jpg	1	1	1	non-food_inanimate_orchid	0	X	17	0	198	0		0	0	45.6923142999876	45.7922978999559
7156.25	0.0999837000272237	11	satiated	stimuli/non_foods\non-food_animate_elephant.jpg	1	1	1	non-food_animate_elephant	0	R	12	0	111	0		0	0	45.842316699971	45.9423003999982
7193.75	0.0999914000276476	12	satiated	stimuli/foods\eggplant.jpg	1	1	1	eggplant	1	V	15	0	46	0		0	0	45.9923126999638	46.0923040999915
7231.5	0.0996990999556147	13	satiated	stimuli/non_foods\non-food_inanimate_toilet.jpg	1	1	1	non-food_inanimate_toilet	0	W	16	0	220	0		0	0	46.1425964999944	46.24229559995
7268.75	0.0999818000127561	14	satiated	stimuli/foods\taco.jpg	1	1	1	taco	1	S	13	0	274	0		0	0	46.292315699975	46.3922974999878
7306.25	0.100010299996939	15	satiated	stimuli/non_foods\non-food_inanimate_nailpolish.jpg	1	1	1	non-food_inanimate_nailpolish	0	C	1	0	195	0		0	0	46.4422837999882	46.5422940999852
7343.75	0.099980799946934	16	satiated	stimuli/foods\red_beans.jpg	1	1	1	red_beans	1	V	15	0	255	0		0	0	46.5923123999964	46.6922931999434
7381.25	0.0999940999899991	17	satiated	stimuli/foods\rice_cake.jpg	1	1	1	rice_cake	1	T	14	0	258	0		0	0	46.7423042999581	46.842298399948
7418.75	0.100019300007261	18	satiated	stimuli/non_foods\non-food_inanimate_ring.jpg	1	1	1	non-food_inanimate_ring	0	M	9	0	203	0		0	0	46.892326799978	46.9923460999853
7456.25	0.099961899977643	19	satiated	stimuli/foods\artichoke.jpg	1	1	1	artichoke	1	K	7	0	3	0		0	0	47.0423070999677	47.1422689999454
7493.75	0.0999848000355996	20	satiated	stimuli/non_foods\non-food_inanimate_horn.jpg	1	1	1	non-food_inanimate_horn	0	B	0	0	190	0		0	0	47.1922949999571	47.2922797999927
7531.25	0.0999800999998115	21	satiated	stimuli/foods\potatoes.jpg	1	1	1	potatoes	1	M	9	0	248	0		0	0	47.342293899972	47.4422739999718
7568.75	0.0999820999568328	22	satiated	stimuli/foods\asparagus.jpg	1	1	1	asparagus	1	D	2	0	4	0		0	0	47.4922940999968	47.5922761999536
7606.25	0.0999891000101343	23	satiated	stimuli/non_foods\non-food_animate_cheetah.jpg	1	1	1	non-food_animate_cheetah	0	S	13	0	100	0		0	0	47.6422862999607	47.7422753999708
7643.75	0.0999824000173248	24	satiated	stimuli/foods\orange.jpg	1	1	1	orange	1	Z	18	0	230	0		0	0	47.7923014999833	47.8922839000006
7681.25	0.0999926999793388	25	satiated	stimuli/foods\mango.jpg	1	1	1	mango	1	C	1	0	80	0		0	0	47.9422814999707	48.04227419995
7718.75	0.0999835000257008	26	satiated	stimuli/non_foods\non-food_inanimate_nettle.jpg	1	1	1	non-food_inanimate_nettle	0	J	6	0	197	0		0	0	48.0922828999464	48.1922663999721
7756.25	0.100008200039156	27	satiated	stimuli/foods\swordfish.jpg	1	1	1	swordfish	1	H	5	0	273	0		0	0	48.2422732999548	48.342281499994
7793.75	0.0999843000317924	28	satiated	stimuli/foods\croissant.jpg	1	1	1	croissant	1	C	1	0	40	0		0	0	48.3922873999691	48.4922717000009
7831.25	0.0999924999778159	29	satiated	stimuli/foods\rockmelon.jpg	1	1	1	rockmelon	1	R	12	0	262	0		0	0	48.5422851999756	48.6422776999534
7868.75	0.0999747000169009	30	satiated	stimuli/foods\risotto_with_zucchini.jpg	1	1	1	risotto_with_zucchini	1	J	6	0	260	0		0	0	48.6922960999655	48.7922707999824
7906.25	0.0999855000409298	31	satiated	stimuli/non_foods\non-food_inanimate_bush.jpg	1	1	1	non-food_inanimate_bush	0	M	9	0	167	0		0	0	48.8422845999594	48.9422701000003
7943.75	0.0999820999568328	32	satiated	stimuli/non_foods\non-food_animate_green_bug.jpg	1	1	1	non-food_animate_green_bug	0	R	12	0	118	0		0	0	48.9922859999933	49.0922680999502
7981.25	0.0999884000048041	33	satiated	stimuli/foods\lasagna.jpg	1	1	1	lasagna	1	T	14	0	71	0		0	0	49.1422789999633	49.2422673999681
8018.75	0.0999837000272237	34	satiated	stimuli/foods\pickles.jpg	1	1	1	pickles	1	C	1	0	242	0		0	0	49.2922813999467	49.3922650999739
8056.25	0.0999855000409298	35	satiated	stimuli/non_foods\non-food_inanimate_toy_airplane.jpg	1	1	1	non-food_inanimate_toy_airplane	0	M	9	0	222	0		0	0	49.4422783999471	49.542263899988
8093.75	0.0999872999964282	36	satiated	stimuli/foods\nectarine.jpg	1	1	1	nectarine	1	S	13	0	87	0		0	0	49.5922763999552	49.6922636999516
8131.25	0.0999806000036187	37	satiated	stimuli/foods\brie.jpg	1	1	1	brie	1	M	9	0	12	0		0	0	49.7422801999492	49.8422607999528
8168.75	0.0999793999944814	38	satiated	stimuli/foods\cucumber.jpg	1	1	1	cucumber	1	V	15	0	41	0		0	0	49.8922695999499	49.9922489999444
8206.25	0.0999908999656327	39	satiated	stimuli/foods\oven-roasted_tomatoes.jpg	1	1	1	oven-roasted_tomatoes	1	M	9	0	232	0		0	0	50.0422706999816	50.1422615999472
8243.75	0.0999750000191852	40	satiated	stimuli/non_foods\non-food_animate_snail.jpg	1	1	1	non-food_animate_snail	0	R	12	0	149	0		0	0	50.1922794999555	50.2922544999747
8281.25	0.100020000012591	41	satiated	stimuli/non_foods\non-food_inanimate_cactus_pot_plant.jpg	1	1	1	non-food_inanimate_cactus_pot_plant	0	S	13	0	169	0		0	0	50.3422677999479	50.4422877999605
8318.75	0.0999885000055656	42	satiated	stimuli/foods\cabbage.jpg	1	1	1	cabbage	1	R	12	0	16	0		0	0	50.4922654999536	50.5922539999592
8356.25	0.0999862999888137	43	satiated	stimuli/non_foods\non-food_animate_dachshund.jpg	1	1	1	non-food_animate_dachshund	0	C	1	0	104	0		0	0	50.6422654999769	50.7422517999657
8393.75	0.0999875999987125	44	satiated	stimuli/non_foods\non-food_animate_kangaroo.jpg	1	1	1	non-food_animate_kangaroo	0	H	5	0	122	0		0	0	50.792263499985	50.8922510999837
8431.25	0.0999855000409298	45	satiated	stimuli/non_foods\non-food_animate_giraffe.jpg	1	1	1	non-food_animate_giraffe	0	X	17	0	115	0		0	0	50.9422552999458	51.0422407999868
8468.75	0.0999949999968521	46	satiated	stimuli/non_foods\non-food_inanimate_tulip.jpg	1	1	1	non-food_inanimate_tulip	0	R	12	0	224	0		0	0	51.0922583999927	51.1922533999896
8506.25	0.0999655000050552	47	satiated	stimuli/non_foods\non-food_animate_pigeon.jpg	1	1	1	non-food_animate_pigeon	0	J	6	0	136	0		0	0	51.2422648999491	51.3422303999541
8543.75	0.100000499980524	48	satiated	stimuli/non_foods\non-food_animate_Asian_man.jpg	1	1	1	non-food_animate_Asian_man	0	B	0	0	88	0		0	0	51.3922362999874	51.4922367999679
8581.25	0.0999843000317924	49	satiated	stimuli/non_foods\non-food_inanimate_fire_extinguisher.jpg	1	1	1	non-food_inanimate_fire_extinguisher	0	C	1	0	181	0		0	0	51.5422519999556	51.6422362999874
8618.75	0.0999934999854304	50	satiated	stimuli/foods\avocado.jpg	1	1	1	avocado	1	F	3	0	5	0		0	0	51.6922497999622	51.7922432999476
8656.25	0.0999814999522641	51	satiated	stimuli/foods\carrot.jpg	1	1	1	carrot	1	K	7	0	19	0		0	0	51.8422515999991	51.9422330999514
8693.75	0.0999859999865294	52	satiated	stimuli/non_foods\non-food_inanimate_rope.jpg	1	1	1	non-food_inanimate_rope	0	P	11	0	204	0		0	0	51.9922540999833	52.0922400999698
8731.25	0.0999696999788284	53	satiated	stimuli/foods\prawn.jpg	1	1	1	prawn	1	G	4	0	249	0		0	0	52.142257599975	52.2422272999538
8768.75	0.0999864999903366	54	satiated	stimuli/foods\salmon.jpg	1	1	1	salmon	1	A	19	1	264	0		0	0	52.2922413999913	52.3922278999817
8806.25	0.0999855999834836	55	satiated	stimuli/non_foods\non-food_animate_young_girl.jpg	1	1	1	non-food_animate_young_girl	0	M	9	0	157	0		0	0	52.4422388999956	52.5422244999791
8843.75	0.0999810000066645	56	satiated	stimuli/non_foods\non-food_inanimate_couch.jpg	1	1	1	non-food_inanimate_couch	0	V	15	0	176	0		0	0	52.5922403999721	52.6922213999787
8881.25	0.100003600004129	57	satiated	stimuli/non_foods\non-food_animate_slug.jpg	1	1	1	non-food_animate_slug	0	D	2	0	148	1	a	0.541825799969956	1	52.7422358999611	52.8422394999652
8918.75	0.100001199985854	58	satiated	stimuli/non_foods\non-food_inanimate_desk.jpg	1	1	1	non-food_inanimate_desk	0	G	4	0	178	0		0	0	52.8922261999687	52.9922273999546
8956.25	0.0999939999892376	59	satiated	stimuli/non_foods\non-food_animate_ant.jpg	1	1	1	non-food_animate_ant	0	V	15	0	91	0		0	0	53.0422321999795	53.1422261999687
8993.75	0.0999761000275612	60	satiated	stimuli/non_foods\non-food_inanimate_stoplight.jpg	1	1	1	non-food_inanimate_stoplight	0	C	1	0	214	0		0	0	53.1922410999541	53.2922171999817
9031.25	0.0999782999861054	61	satiated	stimuli/foods\broccoli.jpg	1	1	1	broccoli	1	P	11	0	13	0		0	0	53.3422490999801	53.4422273999662
9068.75	0.0999851999804378	62	satiated	stimuli/non_foods\non-food_inanimate_highlighter.jpg	1	1	1	non-food_inanimate_highlighter	0	D	2	0	189	0		0	0	53.4922398999915	53.592225099972
9106.25	0.0999566000537015	63	satiated	stimuli/foods\lollies.jpg	1	1	1	lollies	1	X	17	0	78	0		0	0	53.6422687999438	53.7422253999976
9143.75	0.099986599991098	64	satiated	stimuli/foods\salami.jpg	1	1	1	salami	1	N	10	0	263	0		0	0	53.7922368999571	53.8922234999482
9181.25	0.0999872999964282	65	satiated	stimuli/non_foods\non-food_animate_swan.jpg	1	1	1	non-food_animate_swan	0	T	14	0	152	0		0	0	53.9422355999704	54.0422228999669
9218.75	0.0999868999933824	66	satiated	stimuli/non_foods\non-food_animate_iguana.jpg	1	1	1	non-food_animate_iguana	0	B	0	0	121	0		0	0	54.0922355999937	54.1922224999871
9256.25	0.099984799977392	67	satiated	stimuli/foods\hotdog.jpg	1	1	1	hotdog	1	S	13	0	67	0		0	0	54.2422320999904	54.3422168999678
9293.75	0.0999895000131801	68	satiated	stimuli/foods\hamburger.jpg	1	1	1	hamburger	1	C	1	0	64	0		0	0	54.3922313999501	54.4922208999633
9331.25	0.0999823000165634	69	satiated	stimuli/non_foods\non-food_animate_gorilla.jpg	1	1	1	non-food_animate_gorilla	0	P	11	0	116	0		0	0	54.5422317999764	54.642214099993
9368.75	0.099990600021556	70	satiated	stimuli/foods\chilli.jpg	1	1	1	chilli	1	N	10	0	25	0		0	0	54.6922131999745	54.7922037999961
9406.25	0.0999800999998115	71	satiated	stimuli/non_foods\non-food_animate_bat.jpg	1	1	1	non-food_animate_bat	0	V	15	0	94	0		0	0	54.8422203999944	54.9422004999942
9443.75	0.0999717999948189	72	satiated	stimuli/foods\watermelon.jpg	1	1	1	watermelon	1	T	14	0	279	0		0	0	54.9922133999644	55.0921851999592
9481.25	0.0999744999571703	73	satiated	stimuli/foods\spring_onions.jpg	1	1	1	spring_onions	1	D	2	0	269	0		0	0	55.1422216999927	55.2421961999498
9518.75	0.0999800999998115	74	satiated	stimuli/non_foods\non-food_animate_alligator.jpg	1	1	1	non-food_animate_alligator	0	F	3	0	90	0		0	0	55.2922204999486	55.3922005999484
9556.25	0.0999961000052281	75	satiated	stimuli/foods\rice.jpg	1	1	1	rice	1	V	15	0	257	0		0	0	55.4422076999908	55.5422037999961
9593.75	0.0999760999693535	76	satiated	stimuli/foods\raisins.jpg	1	1	1	raisins	1	S	13	0	252	0		0	0	55.5922184999799	55.6921945999493
9631.25	0.0999961000052281	77	satiated	stimuli/non_foods\non-food_animate_grasshopper.jpg	1	1	1	non-food_animate_grasshopper	0	G	4	0	117	0		0	0	55.7422075999784	55.8422036999837
9668.75	0.0999884999473579	78	satiated	stimuli/non_foods\non-food_inanimate_skirt.jpg	1	1	1	non-food_inanimate_skirt	0	H	5	0	209	0		0	0	55.8922149999999	55.9922034999472
9706.25	0.0999848000355996	79	satiated	stimuli/non_foods\non-food_animate_chicken.jpg	1	1	1	non-food_animate_chicken	0	F	3	0	101	0		0	0	56.0422148999642	56.1421996999998
9743.75	0.0999541999772191	80	satiated	stimuli/foods\corncob.jpg	1	1	1	corncob	1	N	10	0	37	0		0	0	56.1922120999661	56.2921662999433
9781.25	0.0999623999814503	81	satiated	stimuli/foods\capsicum.jpg	1	1	1	capsicum	1	W	16	0	18	0		0	0	56.3422248999705	56.4421872999519
9818.75	0.0999857999850065	82	satiated	stimuli/foods\blackberry.jpg	1	1	1	blackberry	1	D	2	0	11	0		0	0	56.4922080999822	56.5921938999672
9856.25	0.0999869999941438	83	satiated	stimuli/foods\cooked_ham.jpg	1	1	1	cooked_ham	1	V	15	0	35	0		0	0	56.6422074000002	56.7421943999943
9893.75	0.100000499980524	84	satiated	stimuli/foods\grapes.jpg	1	1	1	grapes	1	G	4	0	60	0		0	0	56.7921868999838	56.8921873999643
9931.25	0.0999692000332288	85	satiated	stimuli/foods\oregano.jpg	1	1	1	oregano	1	W	16	0	231	0		0	0	56.9422196999658	57.042188899999
9968.75	0.0999962000059895	86	satiated	stimuli/non_foods\non-food_inanimate_folding_chair.jpg	1	1	1	non-food_inanimate_folding_chair	0	S	13	0	182	0		0	0	57.0921962999855	57.1921924999915
10006.25	0.0999743000138551	87	satiated	stimuli/non_foods\non-food_inanimate_speakers.jpg	1	1	1	non-food_inanimate_speakers	0	W	16	0	212	0		0	0	57.2422029999434	57.3421772999573
10043.75	0.0999920999747701	88	satiated	stimuli/foods\apple.jpg	1	1	1	apple	1	V	15	0	1	0		0	0	57.3921921000001	57.4921841999749
10081.25	0.0999826000188477	89	satiated	stimuli/foods\pasta_carbonara.jpg	1	1	1	pasta_carbonara	1	R	12	0	236	0		0	0	57.5421984999557	57.6421810999746
10118.75	0.0999808000051416	90	satiated	stimuli/foods\cream_donuts.jpg	1	1	1	cream_donuts	1	D	2	0	39	0		0	0	57.6921981999767	57.7921789999818
10156.25	0.0999891000101343	91	satiated	stimuli/foods\cannoli.jpg	1	1	1	cannoli	1	K	7	0	17	0		0	0	57.8421951999771	57.9421842999873
10193.75	0.0999846999766305	92	satiated	stimuli/foods\raw_ham.jpg	1	1	1	raw_ham	1	L	8	0	253	0		0	0	57.9921855999855	58.0921702999622
10231.25	0.0999885000055656	93	satiated	stimuli/non_foods\non-food_inanimate_jeans.jpg	1	1	1	non-food_inanimate_jeans	0	M	9	0	191	0		0	0	58.1421846999438	58.2421731999493
10268.75	0.0999936999869533	94	satiated	stimuli/foods\cherry.jpg	1	1	1	cherry	1	G	4	0	23	0		0	0	58.2921945999842	58.3921882999712
10306.25	0.0999827000196092	95	satiated	stimuli/foods\chocolate_pralines.jpg	1	1	1	chocolate_pralines	1	K	7	0	28	0		0	0	58.4421965999645	58.5421792999841
10343.75	0.10002060001716	96	satiated	stimuli/foods\pumpkin.jpg	1	1	1	pumpkin	1	W	16	0	250	0		0	0	58.5921654999838	58.692186100001
10381.25	0.0999785999883898	97	satiated	stimuli/non_foods\non-food_animate_seahorse.jpg	1	1	1	non-food_animate_seahorse	0	D	2	0	145	0		0	0	58.7421855999855	58.8421641999739
10418.75	0.0999671999597922	98	satiated	stimuli/foods\chocolate_bar.jpg	1	1	1	chocolate_bar	1	H	5	0	26	0		0	0	58.8921840999974	58.9921512999572
10456.25	0.0999834000249393	99	satiated	stimuli/non_foods\non-food_inanimate_bowling_ball.jpg	1	1	1	non-food_inanimate_bowling_ball	0	J	6	0	162	0		0	0	59.042184699967	59.142168099992
10493.75	0.099994299991522	100	satiated	stimuli/non_foods\non-food_inanimate_moss.jpg	1	1	1	non-food_inanimate_moss	0	W	16	0	194	0		0	0	59.1921697999933	59.2921640999848
10531.25	0.0999994000303559	101	satiated	stimuli/foods\ice_cream.jpg	1	1	1	ice_cream	1	H	5	0	68	0		0	0	59.3421700999606	59.442169499991
10568.75	0.0999829000211321	102	satiated	stimuli/foods\strawberry.jpg	1	1	1	strawberry	1	N	10	0	272	0		0	0	59.492181199952	59.5921640999732
10606.25	0.0999772000359371	103	satiated	stimuli/foods\figs.jpg	1	1	1	figs	1	G	4	0	48	0		0	0	59.6421772999456	59.7421544999816
10643.75	0.0999806000036187	104	satiated	stimuli/non_foods\non-food_animate_sea_turtle.jpg	1	1	1	non-food_animate_sea_turtle	0	J	6	0	144	0		0	0	59.7921695999685	59.8921501999721
10681.25	0.0999755000229925	105	satiated	stimuli/non_foods\non-food_animate_hummingbird.jpg	1	1	1	non-food_animate_hummingbird	0	C	1	0	120	0		0	0	59.942164899956	60.042140399979
10718.75	0.0999746000161394	106	satiated	stimuli/foods\cauliflower.jpg	1	1	1	cauliflower	1	W	16	0	20	0		0	0	60.0921775999595	60.1921521999757
10756.25	0.0999920999747701	107	satiated	stimuli/foods\savory_pie.jpg	1	1	1	savory_pie	1	V	15	0	265	0		0	0	60.2421614999766	60.3421535999514
10793.75	0.0999881000025198	108	satiated	stimuli/non_foods\non-food_inanimate_buds.jpg	1	1	1	non-food_inanimate_buds	0	Z	18	0	166	0		0	0	60.3921609999961	60.4921490999986
10831.25	0.100017199991271	109	satiated	stimuli/non_foods\non-food_animate_millipede.jpg	1	1	1	non-food_animate_millipede	0	F	3	0	129	0		0	0	60.5421550999745	60.6421722999658
10868.75	0.0999872999964282	110	satiated	stimuli/non_foods\non-food_inanimate_alarm_clock.jpg	1	1	1	non-food_inanimate_alarm_clock	0	N	10	0	158	0		0	0	60.6921656999621	60.7921529999585
10906.25	0.0999808999476954	111	satiated	stimuli/foods\cereal.jpg	1	1	1	cereal	1	D	2	0	22	0		0	0	60.8421750999987	60.9421559999464
10943.75	0.0999863000470214	112	satiated	stimuli/non_foods\non-food_animate_dolphin.jpg	1	1	1	non-food_animate_dolphin	0	Z	18	0	106	0		0	0	60.9921654999489	61.0921517999959
10981.25	0.0999819999560714	113	satiated	stimuli/non_foods\non-food_animate_woman.jpg	1	1	1	non-food_animate_woman	0	P	11	0	154	0		0	0	61.1421537999995	61.2421357999556
11018.75	0.1000015999889	114	satiated	stimuli/foods\tomato.jpg	1	1	1	tomato	1	K	7	0	276	0		0	0	61.292143300001	61.3921448999899
11056.25	0.0999874999979511	115	satiated	stimuli/non_foods\non-food_inanimate_chandelier.jpg	1	1	1	non-food_inanimate_chandelier	0	M	9	0	173	0		0	0	61.4421574999578	61.5421449999558
11093.75	0.0999853999819607	116	satiated	stimuli/foods\risotto_with_peas_and_asparagus_tips.jpg	1	1	1	risotto_with_peas_and_asparagus_tips	1	G	4	0	259	0		0	0	61.5921595999971	61.6921449999791
11131.25	0.0999939999892376	117	satiated	stimuli/foods\raw_sausage.jpg	1	1	1	raw_sausage	1	D	2	0	254	0		0	0	61.7421552999876	61.8421492999769
11168.75	0.0999882000032812	118	satiated	stimuli/non_foods\non-food_inanimate_hay.jpg	1	1	1	non-food_inanimate_hay	0	N	10	0	187	0		0	0	61.8921578999725	61.9921460999758
11206.25	0.0999862999888137	119	satiated	stimuli/foods\green_beans.jpg	1	1	1	green_beans	1	S	13	0	61	0		0	0	62.0421563999844	62.1421426999732
11243.75	0.0999895000131801	120	satiated	stimuli/foods\apricot.jpg	1	1	1	apricot	1	U	23	1	2	0		0	0	62.192152899981	62.2921423999942
11281.25	0.0999836000264622	121	satiated	stimuli/non_foods\non-food_animate_monkey.jpg	1	1	1	non-food_animate_monkey	0	V	15	0	130	0		0	0	62.342154199956	62.4421377999824
11318.75	0.0999864999903366	122	satiated	stimuli/foods\oyster.jpg	1	1	1	oyster	1	Z	18	0	233	0		0	0	62.4921491999994	62.5921356999897
11356.25	0.0999880000017583	123	satiated	stimuli/foods\cinnamon_sroll.jpg	1	1	1	cinnamon_sroll	1	F	3	0	31	0		0	0	62.6421517999843	62.742139799986
11393.75	0.0999814000097103	124	satiated	stimuli/foods\banana.jpg	1	1	1	banana	1	K	7	0	9	0		0	0	62.7921493999893	62.892130799999
11431.25	0.0999909999663942	125	satiated	stimuli/foods\hazelnuts.jpg	1	1	1	hazelnuts	1	H	5	0	65	0		0	0	62.9421397999977	63.0421307999641
11468.75	0.0999990000273101	126	satiated	stimuli/non_foods\non-food_animate_raccoon.jpg	1	1	1	non-food_animate_raccoon	0	W	16	0	139	1	a	0.893317200010642	1	63.0921330999699	63.1921320999973
11506.25	0.0999843999743462	127	satiated	stimuli/non_foods\non-food_animate_seal.jpg	1	1	1	non-food_animate_seal	0	J	6	0	146	0		0	0	63.2421415999997	63.3421259999741
11543.75	0.100007599976379	128	satiated	stimuli/non_foods\non-food_inanimate_protractor.jpg	1	1	1	non-food_inanimate_protractor	0	V	15	0	201	0		0	0	63.3921606999938	63.4921682999702
11581.25	0.100011000002269	129	satiated	stimuli/non_foods\non-food_inanimate_shell.jpg	1	1	1	non-food_inanimate_shell	0	T	14	0	206	0		0	0	63.5421192999929	63.6421302999952
11618.75	0.0999887000070885	130	satiated	stimuli/non_foods\non-food_animate_young_boy.jpg	1	1	1	non-food_animate_young_boy	0	L	8	0	156	0		0	0	63.6921259999508	63.7921146999579
11656.25	0.0999854999827221	131	satiated	stimuli/non_foods\non-food_animate_lizard.jpg	1	1	1	non-food_animate_lizard	0	C	1	0	126	0		0	0	63.8421262999764	63.9421117999591
11693.75	0.0999659999506548	132	satiated	stimuli/non_foods\non-food_inanimate_broom.jpg	1	1	1	non-food_inanimate_broom	0	K	7	0	164	0		0	0	63.9921261999989	64.0920921999495
11731.25	0.0999825000180863	133	satiated	stimuli/foods\fruit_pie.jpg	1	1	1	fruit_pie	1	F	3	0	54	0		0	0	64.1421275999746	64.2421100999927
11768.75	0.0999853999819607	134	satiated	stimuli/foods\fennel.jpg	1	1	1	fennel	1	N	10	0	47	0		0	0	64.2921342999907	64.3921196999727
11806.25	0.0999873999971896	135	satiated	stimuli/foods\pineapple.jpg	1	1	1	pineapple	1	G	4	0	243	0		0	0	64.4421199999633	64.5421073999605
11843.75	0.0999796999967657	136	satiated	stimuli/non_foods\non-food_animate_ram.jpg	1	1	1	non-food_animate_ram	0	W	16	0	140	0		0	0	64.5921200999874	64.6920997999841
11881.25	0.100004900014028	137	satiated	stimuli/non_foods\non-food_animate_donkey.jpg	1	1	1	non-food_animate_donkey	0	R	12	0	107	0		0	0	64.7421000999748	64.8421049999888
11918.75	0.0999852000386454	138	satiated	stimuli/foods\brussel_sprouts.jpg	1	1	1	brussel_sprouts	1	V	15	0	15	0		0	0	64.8921163999476	64.9921015999862
11956.25	0.0999862999888137	139	satiated	stimuli/non_foods\non-food_inanimate_fern.jpg	1	1	1	non-food_inanimate_fern	0	Z	18	0	180	0		0	0	65.0421170999762	65.142103399965
12948	0.0999803000013344	140	satiated	stimuli/non_foods\non-food_animate_Causasian_man.jpg	1	2	1	non-food_animate_Causasian_man	0	C	1	0	89	0		0	0	69.0087586999871	69.1087389999884
12985.5	0.0999880000017583	141	satiated	stimuli/foods\celery.jpg	1	2	1	celery	1	X	17	0	21	0		0	0	69.1587511999533	69.258739199955
13023	0.0999707999872044	142	satiated	stimuli/foods\chocolate_pudding.jpg	1	2	1	chocolate_pudding	1	G	4	0	29	0		0	0	69.3087665999774	69.4087373999646
13060.5	0.0999854999827221	143	satiated	stimuli/foods\toasted_bread_with_tomatoes.jpg	1	2	1	toasted_bread_with_tomatoes	1	F	3	0	275	0		0	0	69.4587478999747	69.5587333999574
13098	0.0999841999728233	144	satiated	stimuli/non_foods\non-food_animate_cow.jpg	1	2	1	non-food_animate_cow	0	Z	18	0	103	0		0	0	69.6087477999972	69.70873199997
13135.5	0.0999846999766305	145	satiated	stimuli/foods\waffle.jpg	1	2	1	waffle	1	V	15	0	278	0		0	0	69.75874379999	69.8587284999667
13173	0.100015400035772	146	satiated	stimuli/foods\lamb_chops.jpg	1	2	1	lamb_chops	1	F	3	0	70	0		0	0	69.9087599999621	70.0087753999978
13210.5	0.099962999986019	147	satiated	stimuli/non_foods\non-food_animate_dragonfly.jpg	1	2	1	non-food_animate_dragonfly	0	Z	18	0	108	0		0	0	70.0587646999629	70.1587276999489
13248	0.0999840999720618	148	satiated	stimuli/foods\kiwi.jpg	1	2	1	kiwi	1	J	6	0	69	0		0	0	70.208741999988	70.30872609996
13285.5	0.0999834000249393	149	satiated	stimuli/non_foods\non-food_inanimate_sun_flower.jpg	1	2	1	non-food_inanimate_sun_flower	0	X	17	0	216	0		0	0	70.3587417999515	70.4587251999765
13323	0.0999854999827221	150	satiated	stimuli/non_foods\non-food_inanimate_short_sleeved_shirt.jpg	1	2	1	non-food_inanimate_short_sleeved_shirt	0	D	2	0	207	0		0	0	70.5087362999911	70.6087217999739
13360.5	0.0999845000333153	151	satiated	stimuli/non_foods\non-food_animate_eagle.jpg	1	2	1	non-food_animate_eagle	0	T	14	0	110	0		0	0	70.6587375999661	70.7587220999994
13398	0.0999742000130937	152	satiated	stimuli/foods\omelette.jpg	1	2	1	omelette	1	V	15	0	228	0		0	0	70.8087348999688	70.9087090999819
13435.5	0.0999925999785773	153	satiated	stimuli/foods\pea_pod.jpg	1	2	1	pea_pod	1	H	5	0	237	0		0	0	70.9587268999894	71.058719499968
13473	0.0999660000088625	154	satiated	stimuli/foods\lentils.jpg	1	2	1	lentils	1	Z	18	0	74	0		0	0	71.1087520999718	71.2087180999806
13510.5	0.0999840999720618	155	satiated	stimuli/non_foods\non-food_inanimate_padlock.jpg	1	2	1	non-food_inanimate_padlock	0	F	3	0	199	0		0	0	71.258728899993	71.3587129999651
13548	0.0999813000089489	156	satiated	stimuli/non_foods\non-food_inanimate_gloves.jpg	1	2	1	non-food_inanimate_gloves	0	J	6	0	183	0		0	0	71.4087313999771	71.5087126999861
13585.5	0.0999813000089489	157	satiated	stimuli/foods\museli_bars.jpg	1	2	1	museli_bars	1	L	8	0	84	0		0	0	71.5587197999703	71.6587010999792
13623	0.100014800031204	158	satiated	stimuli/foods\green_olives.jpg	1	2	1	green_olives	1	F	3	0	62	0		0	0	71.7087289999472	71.8087437999784
13660.5	0.0999822000158019	159	satiated	stimuli/non_foods\non-food_inanimate_hammer.jpg	1	2	1	non-food_inanimate_hammer	0	B	0	0	186	0		0	0	71.8587186999503	71.9587008999661
13698	0.0999853000394069	160	satiated	stimuli/non_foods\non-food_inanimate_rack.jpg	1	2	1	non-food_inanimate_rack	0	F	3	0	202	0		0	0	72.0087165999576	72.108701899997
13735.5	0.0999861999880522	161	satiated	stimuli/foods\onion.jpg	1	2	1	onion	1	D	2	0	229	0		0	0	72.158713999961	72.2587001999491
13773	0.099982799962163	162	satiated	stimuli/non_foods\non-food_animate_sea_lion.jpg	1	2	1	non-food_animate_sea_lion	0	X	17	0	143	0		0	0	72.3087144999881	72.4086972999503
13810.5	0.0999821000150405	163	satiated	stimuli/non_foods\non-food_inanimate_soccer_ball.jpg	1	2	1	non-food_inanimate_soccer_ball	0	D	2	0	210	0		0	0	72.4587137999479	72.5586958999629
13848	0.0999873999971896	164	satiated	stimuli/foods\spaghetti_with_meat_sauce.jpg	1	2	1	spaghetti_with_meat_sauce	1	C	1	0	267	0		0	0	72.6087087999913	72.7086961999885
13885.5	0.0999828000203706	165	satiated	stimuli/foods\fruit_salad.jpg	1	2	1	fruit_salad	1	H	5	0	55	0		0	0	72.7587072999449	72.8586900999653
13923	0.099979099992197	166	satiated	stimuli/non_foods\non-food_inanimate_scissors.jpg	1	2	1	non-food_inanimate_scissors	0	N	10	0	205	0		0	0	72.9087244999828	73.008703599975
13960.5	0.0999976999592036	167	satiated	stimuli/non_foods\non-food_inanimate_grass.jpg	1	2	1	non-food_inanimate_grass	0	T	14	0	184	0		0	0	73.0586992999888	73.158696999948
13998	0.099988600006327	168	satiated	stimuli/non_foods\non-food_animate_tortoise.jpg	1	2	1	non-food_animate_tortoise	0	J	6	0	153	0		0	0	73.2087103999802	73.3086989999865
14035.5	0.0999886999488808	169	satiated	stimuli/foods\steak.jpg	1	2	1	steak	1	G	4	0	270	0		0	0	73.3587094999966	73.4586981999455
14073	0.0999958000029437	170	satiated	stimuli/non_foods\non-food_animate_bee.jpg	1	2	1	non-food_animate_bee	0	H	5	0	95	0		0	0	73.5087123999838	73.6087081999867
14110.5	0.099962999986019	171	satiated	stimuli/non_foods\non-food_animate_parrot.jpg	1	2	1	non-food_animate_parrot	0	M	9	0	133	0		0	0	73.6587310999748	73.7586940999608
14148	0.0999833999667317	172	satiated	stimuli/non_foods\non-food_animate_lion.jpg	1	2	1	non-food_animate_lion	0	T	14	0	125	0		0	0	73.8087064999854	73.9086898999522
14185.5	0.0999875999987125	173	satiated	stimuli/non_foods\non-food_animate_german_shepherd.jpg	1	2	1	non-food_animate_german_shepherd	0	P	11	0	114	0		0	0	73.9587012999691	74.0586888999678
14223	0.0999883000040427	174	satiated	stimuli/foods\beetroots.jpg	1	2	1	beetroots	1	K	7	0	10	0		0	0	74.1087010999909	74.2086893999949
14260.5	0.0999845000333153	175	satiated	stimuli/non_foods\non-food_animate_baby_crawling.jpg	1	2	1	non-food_animate_baby_crawling	0	Z	18	0	92	0		0	0	74.2587023999658	74.3586868999992
14298	0.0999850000371225	176	satiated	stimuli/foods\baked_lamb_with_potatoes.jpg	1	2	1	baked_lamb_with_potatoes	1	C	1	0	8	0		0	0	74.4086980999564	74.5086830999935
14335.5	0.100007299974095	177	satiated	stimuli/non_foods\non-food_animate_yellow_bug.jpg	1	2	1	non-food_animate_yellow_bug	0	L	8	0	155	0		0	0	74.5586992999888	74.6587065999629
14373	0.0999689999734983	178	satiated	stimuli/non_foods\non-food_inanimate_nest.jpg	1	2	1	non-food_inanimate_nest	0	Z	18	0	196	0		0	0	74.7087111999863	74.8086801999598
14410.5	0.0999625999829732	179	satiated	stimuli/foods\fries.jpg	1	2	1	fries	1	W	16	0	52	0		0	0	74.8586992999772	74.9586618999601
14448	0.0999773999792524	180	satiated	stimuli/non_foods\non-food_inanimate_briefcase.jpg	1	2	1	non-food_inanimate_briefcase	0	H	5	0	163	0		0	0	75.0086947999662	75.1086721999454
14485.5	0.0999904000200331	181	satiated	stimuli/non_foods\non-food_animate_owl.jpg	1	2	1	non-food_animate_owl	0	U	23	1	132	0		0	0	75.1586812999449	75.2586716999649
14523	0.0999579000053927	182	satiated	stimuli/non_foods\non-food_animate_ladybug.jpg	1	2	1	non-food_animate_ladybug	0	D	2	0	124	0		0	0	75.3086995999911	75.4086574999965
14560.5	0.100010299996939	183	satiated	stimuli/non_foods\non-food_animate_mouse.jpg	1	2	1	non-food_animate_mouse	0	H	5	0	131	0		0	0	75.4586634999723	75.5586737999693
14598	0.099986599991098	184	satiated	stimuli/foods\radish.jpg	1	2	1	radish	1	K	7	0	251	0		0	0	75.6086862999946	75.7086728999857
14635.5	0.0999859999865294	185	satiated	stimuli/non_foods\non-food_inanimate_table.jpg	1	2	1	non-food_inanimate_table	0	G	4	0	217	0		0	0	75.7586889999802	75.8586749999668
14673	0.0999884000048041	186	satiated	stimuli/foods\grilled_chicken_breast.jpg	1	2	1	grilled_chicken_breast	1	W	16	0	63	0		0	0	75.908682499954	76.0086708999588
14710.5	0.0999890000093728	187	satiated	stimuli/foods\fruit_flan.jpg	1	2	1	fruit_flan	1	D	2	0	53	0		0	0	76.0586791999522	76.1586681999615
14748	0.0999882000032812	188	satiated	stimuli/non_foods\non-food_animate_clown.jpg	1	2	1	non-food_animate_clown	0	S	13	0	102	0		0	0	76.2086805999861	76.3086687999894
14785.5	0.0999526999657974	189	satiated	stimuli/foods\chestnut.jpg	1	2	1	chestnut	1	P	11	0	24	0		0	0	76.3586861999938	76.4586388999596
14823	0.0999869999941438	190	satiated	stimuli/non_foods\non-food_inanimate_bed.jpg	1	2	1	non-food_inanimate_bed	0	K	7	0	160	0		0	0	76.508681199979	76.6086681999732
14860.5	0.0999850000371225	191	satiated	stimuli/foods\dates.jpg	1	2	1	dates	1	N	10	0	43	0		0	0	76.6586761999642	76.7586612000014
14898	0.0999882000032812	192	satiated	stimuli/foods\mussels.jpg	1	2	1	mussels	1	S	13	0	86	0		0	0	76.8086739999708	76.9086621999741
14935.5	0.0999971000128426	193	satiated	stimuli/foods\meatballs.jpg	1	2	1	meatballs	1	W	16	0	81	0		0	0	76.9586760999518	77.0586731999647
14973	0.0999469000380486	194	satiated	stimuli/foods\lime.jpg	1	2	1	lime	1	H	5	0	76	0		0	0	77.1087122999597	77.2086591999978
15010.5	0.0999894999549724	195	satiated	stimuli/foods\coffee_beans.jpg	1	2	1	coffee_beans	1	V	15	0	34	0		0	0	77.2586687000003	77.3586581999552
15048	0.099987699999474	196	satiated	stimuli/foods\lettuce.jpg	1	2	1	lettuce	1	C	1	0	75	0		0	0	77.4086682999623	77.5086559999618
15085.5	0.0999870999949053	197	satiated	stimuli/non_foods\non-food_inanimate_towel.jpg	1	2	1	non-food_inanimate_towel	0	X	17	0	221	0		0	0	77.5586648999597	77.6586519999546
15123	0.0999921999755315	198	satiated	stimuli/foods\chocolate_chip_cookies.jpg	1	2	1	chocolate_chip_cookies	1	G	4	0	27	0		0	0	77.7086639999761	77.8086561999517
15160.5	0.0999885000055656	199	satiated	stimuli/non_foods\non-food_inanimate_tent.jpg	1	2	1	non-food_inanimate_tent	0	Z	18	0	219	0		0	0	77.8586623999872	77.9586508999928
15198	0.0999887999496423	200	satiated	stimuli/foods\frankfurter_and_provolone_salad.jpg	1	2	1	frankfurter_and_provolone_salad	1	H	5	0	49	0		0	0	78.0086611000006	78.1086498999503
15235.5	0.0999808000051416	201	satiated	stimuli/foods\pomegranate.jpg	1	2	1	pomegranate	1	R	12	0	244	0		0	0	78.1586602999596	78.2586410999647
15273	0.0999903999618255	202	satiated	stimuli/non_foods\non-food_animate_camel.jpg	1	2	1	non-food_animate_camel	0	T	14	0	97	0		0	0	78.3086547999992	78.408645199961
15310.5	0.0999802000005729	203	satiated	stimuli/non_foods\non-food_inanimate_drum_set.jpg	1	2	1	non-food_inanimate_drum_set	0	M	9	0	179	0		0	0	78.4586633999716	78.5586435999721
15348	0.0999843000317924	204	satiated	stimuli/non_foods\non-food_inanimate_cap.jpg	1	2	1	non-food_inanimate_cap	0	C	1	0	171	0		0	0	78.6086501999525	78.7086344999843
15385.5	0.100015800038818	205	satiated	stimuli/foods\papaya.jpg	1	2	1	papaya	1	K	7	0	235	0		0	0	78.7586461999454	78.8586619999842
15423	0.0999807000043802	206	satiated	stimuli/non_foods\non-food_animate_fox.jpg	1	2	1	non-food_animate_fox	0	D	2	0	112	0		0	0	78.908659699955	79.0086403999594
15460.5	0.0999826000188477	207	satiated	stimuli/foods\minestrone_soup.jpg	1	2	1	minestrone_soup	1	S	13	0	82	0		0	0	79.0586521999794	79.1586347999983
15498	0.0999933000421152	208	satiated	stimuli/foods\donut.jpg	1	2	1	donut	1	W	16	0	44	0		0	0	79.2086529999506	79.3086462999927
15535.5	0.0999841000302695	209	satiated	stimuli/non_foods\non-food_inanimate_leaf.jpg	1	2	1	non-food_inanimate_leaf	0	H	5	0	192	0		0	0	79.358649999951	79.4586340999813
15573	0.0999882000032812	210	satiated	stimuli/foods\ginger_root.jpg	1	2	1	ginger_root	1	Z	18	0	57	0		0	0	79.5086467999499	79.6086349999532
15610.5	0.0999861999880522	211	satiated	stimuli/non_foods\non-food_animate_frog.jpg	1	2	1	non-food_animate_frog	0	W	16	0	113	0		0	0	79.6586485999869	79.758634799975
15648	0.0999849999789149	212	satiated	stimuli/non_foods\non-food_inanimate_canoe.jpg	1	2	1	non-food_inanimate_canoe	0	C	1	0	170	0		0	0	79.8086441999767	79.9086291999556
15685.5	0.0999533000285737	213	satiated	stimuli/non_foods\non-food_inanimate_teddy_bear.jpg	1	2	1	non-food_inanimate_teddy_bear	0	V	15	0	218	0		0	0	79.9586769999587	80.0586302999873
15723	0.0999875999987125	214	satiated	stimuli/foods\pepperoni_pizza.jpg	1	2	1	pepperoni_pizza	1	S	13	0	241	0		0	0	80.1086420999491	80.2086296999478
15760.5	0.0999879000009969	215	satiated	stimuli/non_foods\non-food_animate_skunk.jpg	1	2	1	non-food_animate_skunk	0	L	8	0	147	0		0	0	80.2586390999495	80.3586269999505
15798	0.0999837999697775	216	satiated	stimuli/non_foods\non-food_animate_duck.jpg	1	2	1	non-food_animate_duck	0	Z	18	0	109	0		0	0	80.4086401999812	80.5086239999509
15835.5	0.100008899986278	217	satiated	stimuli/non_foods\non-food_inanimate_bucket.jpg	1	2	1	non-food_inanimate_bucket	0	S	13	0	165	0		0	0	80.558636199974	80.6586450999603
15873	0.0999400999862701	218	satiated	stimuli/foods\garlic.jpg	1	2	1	garlic	1	H	5	0	56	0		0	0	80.7086798999808	80.808619999967
15910.5	0.0999887000070885	219	satiated	stimuli/non_foods\non-food_animate_llama.jpg	1	2	1	non-food_animate_llama	0	J	6	0	127	0		0	0	80.8586343999486	80.9586230999557
15948	0.0999867999926209	220	satiated	stimuli/foods\stew_with_potatoes_and_carrots.jpg	1	2	1	stew_with_potatoes_and_carrots	1	V	15	0	271	0		0	0	81.0086319999536	81.1086187999463
15985.5	0.0999880000017583	221	satiated	stimuli/non_foods\non-food_animate_horse.jpg	1	2	1	non-food_animate_horse	0	G	4	0	119	0		0	0	81.158630299964	81.2586182999657
16023	0.0999866999918595	222	satiated	stimuli/foods\grapefruits.jpg	1	2	1	grapefruits	1	D	2	0	59	0		0	0	81.308630399988	81.4086170999799
16060.5	0.0999862000462599	223	satiated	stimuli/foods\pancakes.jpg	1	2	1	pancakes	1	L	8	0	234	0		0	0	81.4586298999493	81.5586160999956
16098	0.0999936999869533	224	satiated	stimuli/non_foods\non-food_animate_killer_whale.jpg	1	2	1	non-food_animate_killer_whale	0	F	3	0	123	0		0	0	81.608625199995	81.708618899982
16135.5	0.0999717999948189	225	satiated	stimuli/foods\mandarin.jpg	1	2	1	mandarin	1	O	22	1	79	0		0	0	81.7586391999503	81.8586109999451
16173	0.0999881000025198	226	satiated	stimuli/foods\honey.jpg	1	2	1	honey	1	H	5	0	66	0		0	0	81.908624099975	82.0086121999775
16210.5	0.0999852000386454	227	satiated	stimuli/non_foods\non-food_inanimate_skateboard.jpg	1	2	1	non-food_inanimate_skateboard	0	J	6	0	208	0		0	0	82.0586252999492	82.1586104999878
16248	0.0999779999838211	228	satiated	stimuli/foods\roasted_chicken.jpg	1	2	1	roasted_chicken	1	T	14	0	261	0		0	0	82.2086267999839	82.3086047999677
16285.5	0.100010099995416	229	satiated	stimuli/foods\mushroom.jpg	1	2	1	mushroom	1	F	3	0	85	0		0	0	82.3586378999753	82.4586479999707
16323	0.0999727000016719	230	satiated	stimuli/foods\smoked_ham.jpg	1	2	1	smoked_ham	1	M	9	0	266	1	a	0.850176200037822	1	82.5086401999579	82.6086128999596
16360.5	0.0999826000188477	231	satiated	stimuli/foods\peas.jpg	1	2	1	peas	1	B	0	0	240	0		0	0	82.6586228999658	82.7586054999847
16398	0.0999822000158019	232	satiated	stimuli/foods\fried_calamari.jpg	1	2	1	fried_calamari	1	X	17	0	50	0		0	0	82.8086189999594	82.9086011999752
16435.5	0.0999832000234164	233	satiated	stimuli/non_foods\non-food_inanimate_stapler.jpg	1	2	1	non-food_inanimate_stapler	0	M	9	0	213	0		0	0	82.9586156999576	83.058598899981
16473	0.0999862999888137	234	satiated	stimuli/non_foods\non-food_inanimate_clover.jpg	1	2	1	non-food_inanimate_clover	0	L	8	0	174	0		0	0	83.1086157999816	83.2086020999704
16510.5	0.099986599991098	235	satiated	stimuli/foods\clams.jpg	1	2	1	clams	1	K	7	0	32	0		0	0	83.2586091999547	83.3585957999458
16548	0.0999882000032812	236	satiated	stimuli/non_foods\non-food_animate_runner.jpg	1	2	1	non-food_animate_runner	0	D	2	0	142	0		0	0	83.4086079999688	83.5085961999721
16585.5	0.0999761000275612	237	satiated	stimuli/non_foods\non-food_inanimate_suitcase.jpg	1	2	1	non-food_inanimate_suitcase	0	N	10	0	215	0		0	0	83.5586202999693	83.6585963999969
16623	0.0999859000439756	238	satiated	stimuli/foods\red_cabbage.jpg	1	2	1	red_cabbage	1	V	15	0	256	0		0	0	83.7086068999488	83.8085927999928
16660.5	0.0999875999987125	239	satiated	stimuli/non_foods\non-food_animate_squirrel.jpg	1	2	1	non-food_animate_squirrel	0	W	16	0	150	0		0	0	83.8586033999454	83.9585909999441
16698	0.100018199998885	240	satiated	stimuli/non_foods\non-food_inanimate_socks.jpg	1	2	1	non-food_inanimate_socks	0	H	5	0	211	0		0	0	84.0086041999748	84.1086223999737
16735.5	0.100000699982047	241	satiated	stimuli/foods\spinach.jpg	1	2	1	spinach	1	Z	18	0	268	0		0	0	84.1586187999928	84.2586194999749
16773	0.0999747000169009	242	satiated	stimuli/foods\cracker.jpg	1	2	1	cracker	1	D	2	0	38	0		0	0	84.3086136999773	84.4085883999942
16810.5	0.0999848000355996	243	satiated	stimuli/foods\mortadella.jpg	1	2	1	mortadella	1	G	4	0	83	0		0	0	84.4585990999476	84.5585838999832
16848	0.0999889000086114	244	satiated	stimuli/non_foods\non-food_inanimate_cupboard.jpg	1	2	1	non-food_inanimate_cupboard	0	Z	18	0	177	0		0	0	84.6085972999572	84.7085861999658
16885.5	0.0999842999735847	245	satiated	stimuli/foods\cinnamon.jpg	1	2	1	cinnamon	1	N	10	0	30	0		0	0	84.7585976999835	84.8585819999571
16923	0.0999825000180863	246	satiated	stimuli/foods\egg.jpg	1	2	1	egg	1	R	12	0	45	0		0	0	84.9085984999547	85.0085809999728
16960.5	0.0999887000070885	247	satiated	stimuli/foods\linguine_with_clams.jpg	1	2	1	linguine_with_clams	1	L	8	0	77	0		0	0	85.0585914999829	85.15858019999
16998	0.0999836000264622	248	satiated	stimuli/non_foods\non-food_animate_caterpillar.jpg	1	2	1	non-food_animate_caterpillar	0	D	2	0	99	0		0	0	85.2085933999624	85.3085769999889
17035.5	0.0999925999785773	249	satiated	stimuli/foods\cooked_prawn.jpg	1	2	1	cooked_prawn	1	J	6	0	36	0		0	0	85.3585987999686	85.4585913999472
17073	0.0999862999888137	250	satiated	stimuli/non_foods\non-food_animate_peacock.jpg	1	2	1	non-food_animate_peacock	0	B	0	0	134	0		0	0	85.5085887999739	85.6085750999628
17110.5	0.099985699984245	251	satiated	stimuli/non_foods\non-food_animate_butterfly.jpg	1	2	1	non-food_animate_butterfly	0	M	9	0	96	0		0	0	85.6585890999995	85.7585747999838
17148	0.0999800999998115	252	satiated	stimuli/foods\peach.jpg	1	2	1	peach	1	D	2	0	238	0		0	0	85.8085870999494	85.9085671999492
17185.5	0.0999818999553099	253	satiated	stimuli/non_foods\non-food_inanimate_waterlily.jpg	1	2	1	non-food_inanimate_waterlily	0	L	8	0	226	0		0	0	85.9585894999909	86.0585713999462
17223	0.0999822000158019	254	satiated	stimuli/foods\almonds.jpg	1	2	1	almonds	1	Z	18	0	0	0		0	0	86.1085812999518	86.2085634999676
17260.5	0.0999843999743462	255	satiated	stimuli/non_foods\non-food_animate_penguin.jpg	1	2	1	non-food_animate_penguin	0	H	5	0	135	0		0	0	86.2585754999891	86.3585598999634
17298	0.0999721999978647	256	satiated	stimuli/foods\gnocchi.jpg	1	2	1	gnocchi	1	L	8	0	58	0		0	0	86.408574000001	86.5085461999988
17335.5	0.0999838000279851	257	satiated	stimuli/non_foods\non-food_inanimate_headphones.jpg	1	2	1	non-food_inanimate_headphones	0	V	15	0	188	0		0	0	86.5585804999573	86.6585642999853
17373	0.0999806000036187	258	satiated	stimuli/non_foods\non-food_inanimate_chair.jpg	1	2	1	non-food_inanimate_chair	0	N	10	0	172	0		0	0	86.7085737999878	86.8085543999914
17410.5	0.100009799993131	259	satiated	stimuli/foods\pear.jpg	1	2	1	pear	1	F	3	0	239	0		0	0	86.8585510999546	86.9585608999478
17448	0.100006899971049	260	satiated	stimuli/non_foods\non-food_inanimate_bamboo.jpg	1	2	1	non-food_inanimate_bamboo	0	M	9	0	159	0		0	0	87.0085761999944	87.1085830999655
17485.5	0.0999721999978647	261	satiated	stimuli/foods\potato_chips.jpg	1	2	1	potato_chips	1	J	6	0	247	0		0	0	87.1585899999482	87.258562199946
17523	0.0999878000002354	262	satiated	stimuli/foods\cupcake.jpg	1	2	1	cupcake	1	V	15	0	42	0		0	0	87.3085703999968	87.4085581999971
17560.5	0.0999868999933824	263	satiated	stimuli/foods\lemon.jpg	1	2	1	lemon	1	H	5	0	72	0		0	0	87.4585710999672	87.5585579999606
17598	0.0999841999728233	264	satiated	stimuli/non_foods\non-food_inanimate_button.jpg	1	2	1	non-food_inanimate_button	0	G	4	0	168	0		0	0	87.6085697999806	87.7085539999534
17635.5	0.0999849999789149	265	satiated	stimuli/non_foods\non-food_inanimate_guitar.jpg	1	2	1	non-food_inanimate_guitar	0	N	10	0	185	0		0	0	87.7585691999993	87.8585541999782
17673	0.0999720999971032	266	satiated	stimuli/non_foods\non-food_animate_rhino.jpg	1	2	1	non-food_animate_rhino	0	C	1	0	141	0		0	0	87.9085827999515	88.0085548999486
17710.5	0.0999763999716379	267	satiated	stimuli/foods\coconut.jpg	1	2	1	coconut	1	H	5	0	33	0		0	0	88.058563300001	88.1585396999726
17748	0.0999923999770544	268	satiated	stimuli/foods\potato_and_green_bean_salad.jpg	1	2	1	potato_and_green_bean_salad	1	P	11	0	246	0		0	0	88.2085590999923	88.3085514999693
17785.5	0.0999839000287466	269	satiated	stimuli/foods\wafer.jpg	1	2	1	wafer	1	S	13	0	277	0		0	0	88.3585608999711	88.4585447999998
17823	0.0999921000329778	270	satiated	stimuli/non_foods\non-food_animate_mammoth.jpg	1	2	1	non-food_animate_mammoth	0	B	0	0	128	0		0	0	88.5085554999532	88.6085475999862
17860.5	0.0999810000066645	271	satiated	stimuli/non_foods\non-food_animate_cat.jpg	1	2	1	non-food_animate_cat	0	G	4	0	98	0		0	0	88.6585619999678	88.7585429999745
17898	0.0999959000037052	272	satiated	stimuli/non_foods\non-food_animate_porcupine.jpg	1	2	1	non-food_animate_porcupine	0	K	7	0	138	0		0	0	88.8085559999454	88.9085518999491
17935.5	0.0999730000039563	273	satiated	stimuli/non_foods\non-food_inanimate_construction_helment.jpg	1	2	1	non-food_inanimate_construction_helment	0	N	10	0	175	0		0	0	88.9585669999942	89.0585399999982
17973	0.099981699953787	274	satiated	stimuli/non_foods\non-food_animate_baby_sitting.jpg	1	2	1	non-food_animate_baby_sitting	0	T	14	0	93	0		0	0	89.1085565999965	89.2085382999503
18010.5	0.0999899000162259	275	satiated	stimuli/non_foods\non-food_animate_deer.jpg	1	2	1	non-food_animate_deer	0	S	13	0	105	0		0	0	89.2585503999726	89.3585402999888
18048	0.0999943999922834	276	satiated	stimuli/foods\lemon_meringue_pie.jpg	1	2	1	lemon_meringue_pie	1	V	15	0	73	0		0	0	89.4085525999544	89.5085469999467
18085.5	0.100004100007936	277	satiated	stimuli/non_foods\non-food_inanimate_watering_can.jpg	1	2	1	non-food_inanimate_watering_can	0	W	16	0	225	0		0	0	89.5585618999903	89.6585659999982
18123	0.0999848999781534	278	satiated	stimuli/foods\pork_and_rice.jpg	1	2	1	pork_and_rice	1	D	2	0	245	0		0	0	89.7085502999835	89.8085351999616
18160.5	0.0999880000017583	279	satiated	stimuli/foods\baked_cod_with_carrots_and_green_beans.jpg	1	2	1	baked_cod_with_carrots_and_green_beans	1	S	13	0	7	0		0	0	89.858545599971	89.9585335999727
18714.5	0.0999888999504037	280	satiated	stimuli/foods\artichoke.jpg	1	3	1	artichoke	1	C	1	0	3	0		0	0	92.0752039999934	92.1751928999438
18752	0.0999752000207081	281	satiated	stimuli/foods\beetroots.jpg	1	3	1	beetroots	1	N	10	0	10	0		0	0	92.2252019999432	92.3251771999639
18789.5	0.0999887999496423	282	satiated	stimuli/foods\lasagna.jpg	1	3	1	lasagna	1	D	2	0	71	0		0	0	92.3751907999977	92.4751795999473
18827	0.0999873999971896	283	satiated	stimuli/non_foods\non-food_inanimate_construction_helment.jpg	1	3	1	non-food_inanimate_construction_helment	0	B	0	0	175	0		0	0	92.5251904999604	92.6251778999576
18864.5	0.0999849999789149	284	satiated	stimuli/foods\taco.jpg	1	3	1	taco	1	L	8	0	274	0		0	0	92.6751894999761	92.775174499955
18902	0.0999766999739222	285	satiated	stimuli/foods\chestnut.jpg	1	3	1	chestnut	1	Z	18	0	24	0		0	0	92.8251871999819	92.9251638999558
18939.5	0.09999830002198	286	satiated	stimuli/non_foods\non-food_animate_green_bug.jpg	1	3	1	non-food_animate_green_bug	0	V	15	0	118	0		0	0	92.9751657999586	93.0751640999806
18977	0.0999814000097103	287	satiated	stimuli/non_foods\non-food_animate_eagle.jpg	1	3	1	non-food_animate_eagle	0	L	8	0	110	0		0	0	93.1251857999596	93.2251671999693
19014.5	0.100010300055146	288	satiated	stimuli/foods\rockmelon.jpg	1	3	1	rockmelon	1	G	4	0	262	0		0	0	93.2751807999448	93.3751910999999
19052	0.0999617999768816	289	satiated	stimuli/foods\cereal.jpg	1	3	1	cereal	1	P	11	0	22	0		0	0	93.4252001999994	93.5251619999763
19089.5	0.100002899998799	290	satiated	stimuli/non_foods\non-food_inanimate_padlock.jpg	1	3	1	non-food_inanimate_padlock	0	X	17	0	199	0		0	0	93.5751680999529	93.6751709999517
19127	0.099982000014279	291	satiated	stimuli/non_foods\non-food_animate_grasshopper.jpg	1	3	1	non-food_animate_grasshopper	0	C	1	0	117	0		0	0	93.725173099956	93.8251550999703
19164.5	0.099982000014279	292	satiated	stimuli/non_foods\non-food_inanimate_toilet.jpg	1	3	1	non-food_inanimate_toilet	0	W	16	0	220	0		0	0	93.8751711999648	93.9751531999791
19202	0.0999779999838211	293	satiated	stimuli/non_foods\non-food_animate_chicken.jpg	1	3	1	non-food_animate_chicken	0	P	11	0	101	0		0	0	94.0251849999768	94.1251629999606
19239.5	0.0999842999735847	294	satiated	stimuli/foods\cracker.jpg	1	3	1	cracker	1	X	17	0	38	0		0	0	94.1751740999753	94.2751583999489
19277	0.0999875999987125	295	satiated	stimuli/non_foods\non-food_animate_hummingbird.jpg	1	3	1	non-food_animate_hummingbird	0	K	7	0	120	0		0	0	94.3251695999643	94.425157199963
19314.5	0.0999792999937199	296	satiated	stimuli/foods\blackberry.jpg	1	3	1	blackberry	1	E	20	1	11	0		0	0	94.4751676999731	94.5751469999668
19352	0.0999690999742597	297	satiated	stimuli/foods\oregano.jpg	1	3	1	oregano	1	G	4	0	231	0		0	0	94.6251604999998	94.725129599974
19389.5	0.0999782000435516	298	satiated	stimuli/non_foods\non-food_animate_runner.jpg	1	3	1	non-food_animate_runner	0	T	14	0	142	0		0	0	94.7751667999546	94.8751449999982
19427	0.0999820999568328	299	satiated	stimuli/non_foods\non-food_inanimate_fern.jpg	1	3	1	non-food_inanimate_fern	0	H	5	0	180	0		0	0	94.9251693999977	95.0251514999545
19464.5	0.0999753000214696	300	satiated	stimuli/foods\eggplant.jpg	1	3	1	eggplant	1	G	4	0	46	0		0	0	95.0751683999551	95.1751436999766
19502	0.0999848999781534	301	satiated	stimuli/foods\fennel.jpg	1	3	1	fennel	1	F	3	0	47	0		0	0	95.2251549999928	95.325139899971
19539.5	0.0999814000097103	302	satiated	stimuli/non_foods\non-food_animate_caterpillar.jpg	1	3	1	non-food_animate_caterpillar	0	V	15	0	99	0		0	0	95.3751542999526	95.4751356999623
19577	0.100012200011406	303	satiated	stimuli/non_foods\non-food_animate_alligator.jpg	1	3	1	non-food_animate_alligator	0	N	10	0	90	0		0	0	95.5251348999445	95.6251470999559
19614.5	0.0999873999971896	304	satiated	stimuli/foods\corncob.jpg	1	3	1	corncob	1	V	15	0	37	0		0	0	95.6751542999991	95.7751416999963
19652	0.099968499969691	305	satiated	stimuli/foods\mortadella.jpg	1	3	1	mortadella	1	J	6	0	83	0		0	0	95.8251725999871	95.9251410999568
19689.5	0.0999870999949053	306	satiated	stimuli/foods\donut.jpg	1	3	1	donut	1	T	14	0	44	0		0	0	95.9751522999723	96.0751393999672
19727	0.0999855000409298	307	satiated	stimuli/non_foods\non-food_animate_iguana.jpg	1	3	1	non-food_animate_iguana	0	R	12	0	121	0		0	0	96.125145799946	96.225131299987
19764.5	0.0999891000101343	308	satiated	stimuli/foods\cannoli.jpg	1	3	1	cannoli	1	V	15	0	17	0		0	0	96.2751404999872	96.3751295999973
19802	0.100016400043387	309	satiated	stimuli/foods\radish.jpg	1	3	1	radish	1	G	4	0	251	0		0	0	96.4251317999442	96.5251481999876
19839.5	0.0999875999987125	310	satiated	stimuli/foods\strawberry.jpg	1	3	1	strawberry	1	T	14	0	272	0		0	0	96.5751461999607	96.6751337999594
19877	0.0999967000097968	311	satiated	stimuli/non_foods\non-food_animate_bee.jpg	1	3	1	non-food_animate_bee	0	Z	18	0	95	0		0	0	96.7251453999779	96.8251420999877
19914.5	0.0999870999949053	312	satiated	stimuli/foods\onion.jpg	1	3	1	onion	1	G	4	0	229	0		0	0	96.8751359999878	96.9751230999827
19952	0.0999927999801002	313	satiated	stimuli/non_foods\non-food_animate_mammoth.jpg	1	3	1	non-food_animate_mammoth	0	L	8	0	128	0		0	0	97.0251299999654	97.1251227999455
19989.5	0.0999910999671556	314	satiated	stimuli/non_foods\non-food_inanimate_headphones.jpg	1	3	1	non-food_inanimate_headphones	0	X	17	0	188	0		0	0	97.1751307999948	97.275121899962
20027	0.0999848999781534	315	satiated	stimuli/foods\omelette.jpg	1	3	1	omelette	1	F	3	0	228	0		0	0	97.3251403999748	97.4251252999529
20064.5	0.0999918000306934	316	satiated	stimuli/non_foods\non-food_animate_owl.jpg	1	3	1	non-food_animate_owl	0	S	13	0	132	0		0	0	97.4751343999524	97.5751261999831
20102	0.0999591000145301	317	satiated	stimuli/foods\fried_zucchini.jpg	1	3	1	fried_zucchini	1	H	5	0	51	0		0	0	97.6251571999746	97.7251162999892
20139.5	0.0999834000249393	318	satiated	stimuli/foods\swordfish.jpg	1	3	1	swordfish	1	K	7	0	273	0		0	0	97.7751376999659	97.8751210999908
20177	0.0999758999678306	319	satiated	stimuli/foods\salmon.jpg	1	3	1	salmon	1	P	11	0	264	0		0	0	97.9251388999983	98.0251147999661
20214.5	0.0999855999834836	320	satiated	stimuli/non_foods\non-food_animate_camel.jpg	1	3	1	non-food_animate_camel	0	J	6	0	97	0		0	0	98.0751233999617	98.1751089999452
20252	0.0999896000139415	321	satiated	stimuli/non_foods\non-food_inanimate_socks.jpg	1	3	1	non-food_inanimate_socks	0	R	12	0	211	0		0	0	98.2251214999706	98.3251110999845
20289.5	0.0999986000242643	322	satiated	stimuli/non_foods\non-food_animate_clown.jpg	1	3	1	non-food_animate_clown	0	D	2	0	102	0		0	0	98.3751150999451	98.4751136999694
20327	0.0999841000302695	323	satiated	stimuli/non_foods\non-food_animate_fox.jpg	1	3	1	non-food_animate_fox	0	M	9	0	112	0		0	0	98.5251212999574	98.6251053999877
20364.5	0.0999751000199467	324	satiated	stimuli/foods\pea_pod.jpg	1	3	1	pea_pod	1	G	4	0	237	0		0	0	98.6751326999511	98.775107799971
20402	0.0999963999493048	325	satiated	stimuli/foods\raisins.jpg	1	3	1	raisins	1	H	5	0	252	0		0	0	98.8251132000005	98.9251095999498
20439.5	0.0999859999865294	326	satiated	stimuli/non_foods\non-food_inanimate_table.jpg	1	3	1	non-food_inanimate_table	0	M	9	0	217	0		0	0	98.9751232999843	99.0751092999708
20477	0.0999931000405923	327	satiated	stimuli/foods\chocolate_bar.jpg	1	3	1	chocolate_bar	1	B	0	0	26	0		0	0	99.1251245999592	99.2251176999998
20514.5	0.0999572000000626	328	satiated	stimuli/foods\waffle.jpg	1	3	1	waffle	1	P	11	0	278	0		0	0	99.2751252999878	99.3750824999879
20552	0.0999970000120811	329	satiated	stimuli/non_foods\non-food_inanimate_gloves.jpg	1	3	1	non-food_inanimate_gloves	0	J	6	0	183	0		0	0	99.425111199962	99.5251081999741
20589.5	0.0999854999827221	330	satiated	stimuli/non_foods\non-food_animate_penguin.jpg	1	3	1	non-food_animate_penguin	0	T	14	0	135	0		0	0	99.5751234999625	99.6751089999452
20627	0.099986599991098	331	satiated	stimuli/foods\peas.jpg	1	3	1	peas	1	S	13	0	240	0		0	0	99.7251194999553	99.8251060999464
20664.5	0.0999883000040427	332	satiated	stimuli/non_foods\non-food_inanimate_skateboard.jpg	1	3	1	non-food_inanimate_skateboard	0	N	10	0	208	0		0	0	99.8751158999512	99.9751041999552
20702	0.0999622999806888	333	satiated	stimuli/foods\ginger_root.jpg	1	3	1	ginger_root	1	I	21	1	57	0		0	0	100.025117799989	100.12508009997
20739.5	0.0999821000150405	334	satiated	stimuli/foods\peach.jpg	1	3	1	peach	1	R	12	0	238	0		0	0	100.175116499944	100.275098599959
20777	0.0999848000355996	335	satiated	stimuli/foods\brownie.jpg	1	3	1	brownie	1	K	7	0	14	0		0	0	100.325114399951	100.425099199987
20814.5	0.0999751000199467	336	satiated	stimuli/non_foods\non-food_animate_tortoise.jpg	1	3	1	non-food_animate_tortoise	0	M	9	0	153	1	a	0.541838200006168	1	100.475127199956	100.575102299976
20852	0.0999763999716379	337	satiated	stimuli/foods\cupcake.jpg	1	3	1	cupcake	1	J	6	0	42	0		0	0	100.625104199979	100.72508059995
20889.5	0.0999851999804378	338	satiated	stimuli/foods\lemon.jpg	1	3	1	lemon	1	L	8	0	72	0		0	0	100.775100299972	100.875085499953
20927	0.0999853999819607	339	satiated	stimuli/foods\grilled_chicken_breast.jpg	1	3	1	grilled_chicken_breast	1	W	16	0	63	0		0	0	100.925098099979	101.025083499961
20964.5	0.0999930000398308	340	satiated	stimuli/non_foods\non-food_inanimate_stoplight.jpg	1	3	1	non-food_inanimate_stoplight	0	Z	18	0	214	0		0	0	101.075099299953	101.175092299993
21002	0.100002799998038	341	satiated	stimuli/foods\honey.jpg	1	3	1	honey	1	M	9	0	66	0		0	0	101.225084099977	101.325086899975
21039.5	0.0999857000424527	342	satiated	stimuli/non_foods\non-food_inanimate_bucket.jpg	1	3	1	non-food_inanimate_bucket	0	G	4	0	165	0		0	0	101.375101199956	101.475086899998
21077	0.0999841999728233	343	satiated	stimuli/non_foods\non-food_inanimate_alarm_clock.jpg	1	3	1	non-food_inanimate_alarm_clock	0	V	15	0	158	0		0	0	101.525102299987	101.62508649996
21114.5	0.0999825999606401	344	satiated	stimuli/non_foods\non-food_animate_lizard.jpg	1	3	1	non-food_animate_lizard	0	L	8	0	126	0		0	0	101.675092299993	101.775074899953
21152	0.0999895000131801	345	satiated	stimuli/non_foods\non-food_inanimate_skirt.jpg	1	3	1	non-food_inanimate_skirt	0	J	6	0	209	0		0	0	101.82508629997	101.925075799983
21189.5	0.100001000042539	346	satiated	stimuli/non_foods\non-food_inanimate_sun_flower.jpg	1	3	1	non-food_inanimate_sun_flower	0	P	11	0	216	0		0	0	101.975080799952	102.075081799994
21227	0.0999894000124186	347	satiated	stimuli/foods\hazelnuts.jpg	1	3	1	hazelnuts	1	B	0	0	65	0		0	0	102.125093499955	102.225082899968
21264.5	0.0999789999914356	348	satiated	stimuli/non_foods\non-food_inanimate_orchid.jpg	1	3	1	non-food_inanimate_orchid	0	G	4	0	198	0		0	0	102.275091999967	102.375070999959
21302	0.0999944999930449	349	satiated	stimuli/foods\smoked_ham.jpg	1	3	1	smoked_ham	1	J	6	0	266	0		0	0	102.425083399983	102.525077899976
21339.5	0.0999764000298455	350	satiated	stimuli/non_foods\non-food_inanimate_highlighter.jpg	1	3	1	non-food_inanimate_highlighter	0	Z	18	0	189	0		0	0	102.575092799962	102.675069199991
21377	0.0999799999990501	351	satiated	stimuli/foods\fruit_pie.jpg	1	3	1	fruit_pie	1	V	15	0	54	0		0	0	102.725090299966	102.825070299965
21414.5	0.0999768999754451	352	satiated	stimuli/non_foods\non-food_animate_cow.jpg	1	3	1	non-food_animate_cow	0	T	14	0	103	0		0	0	102.87508909998	102.975065999955
21452	0.0999904000200331	353	satiated	stimuli/foods\lollies.jpg	1	3	1	lollies	1	H	5	0	78	0		0	0	103.02507579996	103.12506619998
21489.5	0.100005800020881	354	satiated	stimuli/foods\ice_cream.jpg	1	3	1	ice_cream	1	R	12	0	68	0		0	0	103.175066099968	103.275071899989
21527	0.0999834999674931	355	satiated	stimuli/non_foods\non-food_inanimate_wrench.jpg	1	3	1	non-food_inanimate_wrench	0	M	9	0	227	0		0	0	103.325088999991	103.425072499958
21564.5	0.0999840999720618	356	satiated	stimuli/foods\pear.jpg	1	3	1	pear	1	F	3	0	239	0		0	0	103.475085499987	103.57506959996
21602	0.0999874999979511	357	satiated	stimuli/foods\chocolate_pralines.jpg	1	3	1	chocolate_pralines	1	T	14	0	28	0		0	0	103.62508149998	103.725068999978
21639.5	0.0999842000310309	358	satiated	stimuli/foods\celery.jpg	1	3	1	celery	1	K	7	0	21	0		0	0	103.775081999949	103.87506619998
21677	0.0999767000321299	359	satiated	stimuli/foods\carrot.jpg	1	3	1	carrot	1	C	1	0	19	0		0	0	103.925079999957	104.025056699989
21714.5	0.0999607000267133	360	satiated	stimuli/foods\gnocchi.jpg	1	3	1	gnocchi	1	G	4	0	58	0		0	0	104.075091099949	104.175051799975
21752	0.099949800001923	361	satiated	stimuli/foods\pickles.jpg	1	3	1	pickles	1	B	0	0	242	0		0	0	104.225104499958	104.325054299959
21789.5	0.0999842999735847	362	satiated	stimuli/foods\wafer.jpg	1	3	1	wafer	1	T	14	0	277	0		0	0	104.375073899981	104.475058199954
21827	0.0999627999844961	363	satiated	stimuli/foods\grapes.jpg	1	3	1	grapes	1	D	2	0	60	0		0	0	104.525069599971	104.625032399956
21864.5	0.0999875999987125	364	satiated	stimuli/non_foods\non-food_animate_dachshund.jpg	1	3	1	non-food_animate_dachshund	0	B	0	0	104	0		0	0	104.675069499994	104.775057099992
21902	0.0999767000321299	365	satiated	stimuli/non_foods\non-food_inanimate_waterlily.jpg	1	3	1	non-food_inanimate_waterlily	0	H	5	0	226	0		0	0	104.825069799961	104.925046499993
21939.5	0.099974500015378	366	satiated	stimuli/non_foods\non-food_inanimate_shell.jpg	1	3	1	non-food_inanimate_shell	0	G	4	0	206	0		0	0	104.975061099976	105.075035599992
21977	0.0999932999839075	367	satiated	stimuli/non_foods\non-food_inanimate_button.jpg	1	3	1	non-food_inanimate_button	0	T	14	0	168	0		0	0	105.125056599965	105.225049899949
22014.5	0.0999950999976136	368	satiated	stimuli/non_foods\non-food_inanimate_bed.jpg	1	3	1	non-food_inanimate_bed	0	G	4	0	160	0		0	0	105.275061299966	105.375056399964
22052	0.0999835000257008	369	satiated	stimuli/non_foods\non-food_inanimate_moss.jpg	1	3	1	non-food_inanimate_moss	0	Z	18	0	194	0		0	0	105.425064699957	105.525048199983
22089.5	0.0999764000298455	370	satiated	stimuli/foods\cinnamon_sroll.jpg	1	3	1	cinnamon_sroll	1	R	12	0	31	0		0	0	105.575062199961	105.675038599991
22127	0.0999925000360236	371	satiated	stimuli/non_foods\non-food_inanimate_chair.jpg	1	3	1	non-food_inanimate_chair	0	N	10	0	172	0		0	0	105.72505129996	105.825043799996
22164.5	0.0999878000002354	372	satiated	stimuli/non_foods\non-food_animate_young_boy.jpg	1	3	1	non-food_animate_young_boy	0	K	7	0	156	0		0	0	105.875048599963	105.975036399963
22202	0.0999941999907605	373	satiated	stimuli/non_foods\non-food_inanimate_broom.jpg	1	3	1	non-food_inanimate_broom	0	E	20	1	164	0		0	0	106.025045299961	106.125039499952
22239.5	0.0999849999789149	374	satiated	stimuli/foods\fried_calamari.jpg	1	3	1	fried_calamari	1	V	15	0	50	0		0	0	106.175059299974	106.275044299953
22277	0.099986599991098	375	satiated	stimuli/non_foods\non-food_animate_german_shepherd.jpg	1	3	1	non-food_animate_german_shepherd	0	Z	18	0	114	0		0	0	106.325055499969	106.42504209996
22314.5	0.0999793999944814	376	satiated	stimuli/foods\cabbage.jpg	1	3	1	cabbage	1	N	10	0	16	0		0	0	106.475062599988	106.575041999982
22352	0.0999882000032812	377	satiated	stimuli/foods\chocolate_chip_cookies.jpg	1	3	1	chocolate_chip_cookies	1	H	5	0	27	1	a	0.607503900013398	1	106.625051899988	106.725040099991
22389.5	0.0999868999933824	378	satiated	stimuli/non_foods\non-food_inanimate_canoe.jpg	1	3	1	non-food_inanimate_canoe	0	X	17	0	170	0		0	0	106.775052099954	106.875038999948
22427	0.0999940999899991	379	satiated	stimuli/non_foods\non-food_animate_ant.jpg	1	3	1	non-food_animate_ant	0	S	13	0	91	0		0	0	106.925050499965	107.025044599955
22464.5	0.0999834999674931	380	satiated	stimuli/foods\pork_and_rice.jpg	1	3	1	pork_and_rice	1	L	8	0	245	0		0	0	107.075042099983	107.17502559995
22502	0.0999880000017583	381	satiated	stimuli/non_foods\non-food_inanimate_bowling_ball.jpg	1	3	1	non-food_inanimate_bowling_ball	0	G	4	0	162	0		0	0	107.225048499997	107.325036499999
22539.5	0.0999817000119947	382	satiated	stimuli/non_foods\non-food_animate_gorilla.jpg	1	3	1	non-food_animate_gorilla	0	K	7	0	116	0		0	0	107.375051399984	107.475033099996
22577	0.100040999997873	383	satiated	stimuli/foods\cooked_prawn.jpg	1	3	1	cooked_prawn	1	N	10	0	36	0		0	0	107.525044399954	107.625085399952
22614.5	0.0999911000253633	384	satiated	stimuli/non_foods\non-food_animate_llama.jpg	1	3	1	non-food_animate_llama	0	L	8	0	127	0		0	0	107.675032299943	107.775023399969
22652	0.0999857000424527	385	satiated	stimuli/foods\pomegranate.jpg	1	3	1	pomegranate	1	C	1	0	244	0		0	0	107.825029799948	107.92501549999
22689.5	0.0999744000146165	386	satiated	stimuli/non_foods\non-food_inanimate_towel.jpg	1	3	1	non-food_inanimate_towel	0	H	5	0	221	0		0	0	107.975030599977	108.075004999992
22727	0.100007999979425	387	satiated	stimuli/non_foods\non-food_animate_woman.jpg	1	3	1	non-food_animate_woman	0	K	7	0	154	0		0	0	108.125012899982	108.225020899961
22764.5	0.0999610000289977	388	satiated	stimuli/foods\lamb_chops.jpg	1	3	1	lamb_chops	1	N	10	0	70	0		0	0	108.275053299963	108.375014299992
22802	0.0999631999875419	389	satiated	stimuli/foods\chilli.jpg	1	3	1	chilli	1	P	11	0	25	0		0	0	108.425037599984	108.525000799971
22839.5	0.0999907000223175	390	satiated	stimuli/non_foods\non-food_animate_seahorse.jpg	1	3	1	non-food_animate_seahorse	0	Z	18	0	145	0		0	0	108.575032499968	108.67502319999
22877	0.100012300012168	391	satiated	stimuli/foods\brussel_sprouts.jpg	1	3	1	brussel_sprouts	1	H	5	0	15	0		0	0	108.725004699954	108.825016999966
22914.5	0.0999870999949053	392	satiated	stimuli/foods\fruit_flan.jpg	1	3	1	fruit_flan	1	K	7	0	53	0		0	0	108.875029799994	108.975016899989
22952	0.0999861999880522	393	satiated	stimuli/foods\mandarin.jpg	1	3	1	mandarin	1	J	6	0	79	0		0	0	109.025014999963	109.125001199951
22989.5	0.0999901999603026	394	satiated	stimuli/non_foods\non-food_animate_killer_whale.jpg	1	3	1	non-food_animate_killer_whale	0	D	2	0	123	0		0	0	109.17501549999	109.27500569995
23027	0.0999936999869533	395	satiated	stimuli/non_foods\non-food_animate_dragonfly.jpg	1	3	1	non-food_animate_dragonfly	0	X	17	0	108	0		0	0	109.325027899991	109.425021599978
23064.5	0.0999841999728233	396	satiated	stimuli/non_foods\non-food_inanimate_suitcase.jpg	1	3	1	non-food_inanimate_suitcase	0	W	16	0	215	0		0	0	109.475024499989	109.575008699961
23102	0.0999762000283226	397	satiated	stimuli/foods\frankfurter_and_provolone_salad.jpg	1	3	1	frankfurter_and_provolone_salad	1	H	5	0	49	0		0	0	109.62502659997	109.725002799998
23139.5	0.0999838999705389	398	satiated	stimuli/non_foods\non-food_inanimate_rope.jpg	1	3	1	non-food_inanimate_rope	0	R	12	0	204	0		0	0	109.775011599995	109.874995499966
23177	0.0999768999754451	399	satiated	stimuli/non_foods\non-food_animate_frog.jpg	1	3	1	non-food_animate_frog	0	H	5	0	113	0		0	0	109.925012799969	110.024989699945
23214.5	0.0999549999833107	400	satiated	stimuli/foods\egg.jpg	1	3	1	egg	1	J	6	0	45	0		0	0	110.075048599974	110.175003599958
23252	0.0999745999579318	401	satiated	stimuli/non_foods\non-food_inanimate_stapler.jpg	1	3	1	non-food_inanimate_stapler	0	G	4	0	213	0		0	0	110.225016799988	110.324991399946
23289.5	0.100008300039917	402	satiated	stimuli/non_foods\non-food_inanimate_horn.jpg	1	3	1	non-food_inanimate_horn	0	X	17	0	190	0		0	0	110.374992699944	110.475000999984
23327	0.0999933999846689	403	satiated	stimuli/foods\orange.jpg	1	3	1	orange	1	C	1	0	230	0		0	0	110.52500329999	110.624996699975
23364.5	0.0999823999591172	404	satiated	stimuli/foods\dates.jpg	1	3	1	dates	1	R	12	0	43	1	a	0	0	110.675007099984	110.774989499943
23402	0.0999964000075124	405	satiated	stimuli/foods\bagel.jpg	1	3	1	bagel	1	F	3	0	6	0		0	0	110.825003399979	110.924999799987
23439.5	0.0999610999715514	406	satiated	stimuli/non_foods\non-food_animate_yellow_bug.jpg	1	3	1	non-food_animate_yellow_bug	0	G	4	0	155	0		0	0	110.9750107	111.074971799972
23477	0.0999853999819607	407	satiated	stimuli/foods\cherry.jpg	1	3	1	cherry	1	W	16	0	23	0		0	0	111.125005799986	111.224991199968
23514.5	0.0999921000329778	408	satiated	stimuli/foods\risotto_with_peas_and_asparagus_tips.jpg	1	3	1	risotto_with_peas_and_asparagus_tips	1	J	6	0	259	0		0	0	111.274999899964	111.374991999997
23552	0.0999863999895751	409	satiated	stimuli/non_foods\non-food_animate_polar_bear.jpg	1	3	1	non-food_animate_polar_bear	0	R	12	0	137	0		0	0	111.425004499964	111.524990899954
23589.5	0.0999824000173248	410	satiated	stimuli/foods\spaghetti_with_meat_sauce.jpg	1	3	1	spaghetti_with_meat_sauce	1	C	1	0	267	0		0	0	111.575008699961	111.674991099979
23627	0.099985699984245	411	satiated	stimuli/foods\salami.jpg	1	3	1	salami	1	M	9	0	263	0		0	0	111.7250031	111.824988799985
23664.5	0.100003100000322	412	satiated	stimuli/non_foods\non-food_inanimate_lighter.jpg	1	3	1	non-food_inanimate_lighter	0	Z	18	0	193	0		0	0	111.875001799955	111.975004899956
23702	0.0999848999781534	413	satiated	stimuli/foods\banana.jpg	1	3	1	banana	1	G	4	0	9	0		0	0	112.025003199989	112.124988099968
23739.5	0.0999889000086114	414	satiated	stimuli/non_foods\non-food_animate_seal.jpg	1	3	1	non-food_animate_seal	0	D	2	0	146	0		0	0	112.174996899965	112.274985799973
23777	0.0999971000128426	415	satiated	stimuli/non_foods\non-food_animate_duck.jpg	1	3	1	non-food_animate_duck	0	K	7	0	109	0		0	0	112.324986499967	112.42498359998
23814.5	0.0999739000108093	416	satiated	stimuli/foods\hotdog.jpg	1	3	1	hotdog	1	F	3	0	67	0		0	0	112.474996699952	112.574970599962
23852	0.0999899999587797	417	satiated	stimuli/foods\green_beans.jpg	1	3	1	green_beans	1	L	8	0	61	0		0	0	112.624983699992	112.724973699951
23889.5	0.099999799975194	418	satiated	stimuli/foods\pineapple.jpg	1	3	1	pineapple	1	N	10	0	243	0		0	0	112.774977799971	112.874977599946
23927	0.0999834999674931	419	satiated	stimuli/non_foods\non-food_animate_raccoon.jpg	1	3	1	non-food_animate_raccoon	0	J	6	0	139	0		0	0	112.924992099986	113.024975599954
24639.5	0.0999767999746837	420	satiated	stimuli/non_foods\non-food_inanimate_bamboo.jpg	1	4	1	non-food_inanimate_bamboo	0	K	7	0	159	0		0	0	115.774969899969	115.874946699943
24677	0.0999880000017583	421	satiated	stimuli/foods\oven-roasted_tomatoes.jpg	1	4	1	oven-roasted_tomatoes	1	B	0	0	232	0		0	0	115.924960099976	116.024948099977
24714.5	0.0999930000398308	422	satiated	stimuli/non_foods\non-food_animate_horse.jpg	1	4	1	non-food_animate_horse	0	R	12	0	119	0		0	0	116.074954099953	116.174947099993
24752	0.100005000014789	423	satiated	stimuli/non_foods\non-food_animate_squirrel.jpg	1	4	1	non-food_animate_squirrel	0	T	14	0	150	0		0	0	116.224960999971	116.324965999986
24789.5	0.0999434000113979	424	satiated	stimuli/foods\almonds.jpg	1	4	1	almonds	1	X	17	0	0	0		0	0	116.374990499986	116.474933899997
24827	0.0999815000104718	425	satiated	stimuli/non_foods\non-food_animate_ladybug.jpg	1	4	1	non-food_animate_ladybug	0	F	3	0	124	0		0	0	116.524956199981	116.624937699991
24864.5	0.0999820999568328	426	satiated	stimuli/foods\broccoli.jpg	1	4	1	broccoli	1	K	7	0	13	0		0	0	116.674955499999	116.774937599956
24902	0.0999874999979511	427	satiated	stimuli/non_foods\non-food_inanimate_leaf.jpg	1	4	1	non-food_inanimate_leaf	0	M	9	0	192	0		0	0	116.824953599949	116.924941099947
24939.5	0.0999794999952428	428	satiated	stimuli/foods\potatoes.jpg	1	4	1	potatoes	1	R	12	0	248	0		0	0	116.97495829995	117.074937799945
24977	0.0999874999979511	429	satiated	stimuli/non_foods\non-food_animate_cheetah.jpg	1	4	1	non-food_animate_cheetah	0	B	0	0	100	0		0	0	117.124949599965	117.224937099963
25014.5	0.0999807000043802	430	satiated	stimuli/non_foods\non-food_inanimate_pine_cone.jpg	1	4	1	non-food_inanimate_pine_cone	0	V	15	0	200	0		0	0	117.274952599953	117.374933299958
25052	0.0999874999979511	431	satiated	stimuli/non_foods\non-food_inanimate_grass.jpg	1	4	1	non-food_inanimate_grass	0	L	8	0	184	0		0	0	117.424944799975	117.524932299973
25089.5	0.0999959000037052	432	satiated	stimuli/non_foods\non-food_animate_kangaroo.jpg	1	4	1	non-food_animate_kangaroo	0	Z	18	0	122	0		0	0	117.574938499951	117.674934399955
25127	0.0999773000366986	433	satiated	stimuli/foods\garlic.jpg	1	4	1	garlic	1	P	11	0	56	0		0	0	117.724943499954	117.824920799991
25164.5	0.0999772000359371	434	satiated	stimuli/foods\lettuce.jpg	1	4	1	lettuce	1	R	12	0	75	0		0	0	117.874940599955	117.974917799991
25202	0.0999809000059031	435	satiated	stimuli/foods\spinach.jpg	1	4	1	spinach	1	P	11	0	268	0		0	0	118.024954999972	118.124935899978
25239.5	0.099969900038559	436	satiated	stimuli/non_foods\non-food_inanimate_hay.jpg	1	4	1	non-food_inanimate_hay	0	T	14	0	187	0		0	0	118.174957099953	118.274926999991
25277	0.0999866999918595	437	satiated	stimuli/non_foods\non-food_animate_snail.jpg	1	4	1	non-food_animate_snail	0	G	4	0	149	0		0	0	118.324940599967	118.424927299959
25314.5	0.0999862999888137	438	satiated	stimuli/foods\roasted_chicken.jpg	1	4	1	roasted_chicken	1	P	11	0	261	0		0	0	118.474936199957	118.574922499945
25352	0.0999846000340767	439	satiated	stimuli/non_foods\non-food_inanimate_ring.jpg	1	4	1	non-food_inanimate_ring	0	G	4	0	203	0		0	0	118.624934299965	118.724918899999
25389.5	0.0999918000306934	440	satiated	stimuli/non_foods\non-food_inanimate_desk.jpg	1	4	1	non-food_inanimate_desk	0	L	8	0	178	0		0	0	118.774930299958	118.874922099989
25427	0.0999936999869533	441	satiated	stimuli/foods\mango.jpg	1	4	1	mango	1	G	4	0	80	0		0	0	118.924922999984	119.024916699971
25464.5	0.100009899993893	442	satiated	stimuli/non_foods\non-food_inanimate_jeans.jpg	1	4	1	non-food_inanimate_jeans	0	Z	18	0	191	0		0	0	119.074920899991	119.174930799985
25502	0.0999860999872908	443	satiated	stimuli/foods\museli_bars.jpg	1	4	1	museli_bars	1	N	10	0	84	0		0	0	119.224931499979	119.324917599966
25539.5	0.0999839000287466	444	satiated	stimuli/non_foods\non-food_animate_pigeon.jpg	1	4	1	non-food_animate_pigeon	0	L	8	0	136	0		0	0	119.374927599973	119.474911500001
25577	0.0999854999827221	445	satiated	stimuli/non_foods\non-food_inanimate_hammer.jpg	1	4	1	non-food_inanimate_hammer	0	G	4	0	186	0		0	0	119.52492679999	119.624912299972
25614.5	0.100007200031541	446	satiated	stimuli/non_foods\non-food_inanimate_bush.jpg	1	4	1	non-food_inanimate_bush	0	K	7	0	167	0		0	0	119.674926599953	119.774933799985
25652	0.0999812000081874	447	satiated	stimuli/foods\lime.jpg	1	4	1	lime	1	P	11	0	76	0		0	0	119.824948499969	119.924929699977
25689.5	0.0999821999575943	448	satiated	stimuli/non_foods\non-food_animate_ram.jpg	1	4	1	non-food_animate_ram	0	H	5	0	140	0		0	0	119.974926099996	120.074908299954
25727	0.0999771999777295	449	satiated	stimuli/foods\pancakes.jpg	1	4	1	pancakes	1	W	16	0	234	0		0	0	120.124922899995	120.224900099973
25764.5	0.0999779999838211	450	satiated	stimuli/foods\risotto_with_zucchini.jpg	1	4	1	risotto_with_zucchini	1	P	11	0	260	0		0	0	120.274918099982	120.374896099966
25802	0.0999835000257008	451	satiated	stimuli/foods\rice_cake.jpg	1	4	1	rice_cake	1	W	16	0	258	0		0	0	120.424919199955	120.524902699981
25839.5	0.0999887999496423	452	satiated	stimuli/non_foods\non-food_animate_skunk.jpg	1	4	1	non-food_animate_skunk	0	N	10	0	147	0		0	0	120.5749144	120.67490319995
25877	0.099983699969016	453	satiated	stimuli/non_foods\non-food_animate_swan.jpg	1	4	1	non-food_animate_swan	0	R	12	0	152	0		0	0	120.724916499981	120.82490019995
25914.5	0.0999846999766305	454	satiated	stimuli/non_foods\non-food_animate_lion.jpg	1	4	1	non-food_animate_lion	0	G	4	0	125	0		0	0	120.874912999978	120.974897699954
25952	0.099986599991098	455	satiated	stimuli/foods\chocolate_pudding.jpg	1	4	1	chocolate_pudding	1	T	14	0	29	0		0	0	121.024909499974	121.124896099966
25989.5	0.0999849000363611	456	satiated	stimuli/foods\lemon_meringue_pie.jpg	1	4	1	lemon_meringue_pie	1	X	17	0	73	0		0	0	121.174912499962	121.274897399999
26027	0.0999866000493057	457	satiated	stimuli/foods\asparagus.jpg	1	4	1	asparagus	1	A	19	1	4	0		0	0	121.324907499948	121.424894099997
26064.5	0.100002899998799	458	satiated	stimuli/non_foods\non-food_animate_Asian_man.jpg	1	4	1	non-food_animate_Asian_man	0	S	13	0	88	0		0	0	121.474906299962	121.574909199961
26102	0.0999697999795899	459	satiated	stimuli/non_foods\non-food_animate_parrot.jpg	1	4	1	non-food_animate_parrot	0	W	16	0	133	0		0	0	121.624915699998	121.724885499978
26139.5	0.0999807000043802	460	satiated	stimuli/foods\papaya.jpg	1	4	1	papaya	1	R	12	0	235	0		0	0	121.774903299985	121.87488399999
26177	0.0999903000192717	461	satiated	stimuli/foods\apricot.jpg	1	4	1	apricot	1	C	1	0	2	0		0	0	121.924903499952	122.024893799971
26214.5	0.0999904000200331	462	satiated	stimuli/foods\kiwi.jpg	1	4	1	kiwi	1	R	12	0	69	0		0	0	122.074895699974	122.174886099994
26252	0.0999894000124186	463	satiated	stimuli/foods\stew_with_potatoes_and_carrots.jpg	1	4	1	stew_with_potatoes_and_carrots	1	F	3	0	271	0		0	0	122.22490099998	122.324890399992
26289.5	0.0999836000264622	464	satiated	stimuli/foods\baked_lamb_with_potatoes.jpg	1	4	1	baked_lamb_with_potatoes	1	W	16	0	8	0		0	0	122.374901199946	122.474884799973
26327	0.0999833000241779	465	satiated	stimuli/foods\steak.jpg	1	4	1	steak	1	L	8	0	270	0		0	0	122.52489869995	122.624881999975
26364.5	0.100009599991608	466	satiated	stimuli/foods\cauliflower.jpg	1	4	1	cauliflower	1	W	16	0	20	0		0	0	122.674894600001	122.774904199992
26402	0.099983699969016	467	satiated	stimuli/foods\potato_and_green_bean_salad.jpg	1	4	1	potato_and_green_bean_salad	1	Z	18	0	246	0		0	0	122.824897399987	122.924881099956
26439.5	0.0999934999854304	468	satiated	stimuli/non_foods\non-food_animate_dolphin.jpg	1	4	1	non-food_animate_dolphin	0	G	4	0	106	0		0	0	122.974887199991	123.074880699976
26477	0.0999839000287466	469	satiated	stimuli/foods\apple.jpg	1	4	1	apple	1	C	1	0	1	0		0	0	123.124894999957	123.224878899986
26514.5	0.100023299979512	470	satiated	stimuli/non_foods\non-food_inanimate_cactus_pot_plant.jpg	1	4	1	non-food_inanimate_cactus_pot_plant	0	G	4	0	169	0		0	0	123.274889499997	123.374912799976
26552	0.0999369000201114	471	satiated	stimuli/foods\coconut.jpg	1	4	1	coconut	1	T	14	0	33	0		0	0	123.424937599979	123.524874499999
26589.5	0.0999813000089489	472	satiated	stimuli/non_foods\non-food_inanimate_couch.jpg	1	4	1	non-food_inanimate_couch	0	D	2	0	176	0		0	0	123.574889399984	123.674870699993
26627	0.0999874999979511	473	satiated	stimuli/foods\rice.jpg	1	4	1	rice	1	J	6	0	257	0		0	0	123.724877099972	123.82486459997
26664.5	0.0999875999987125	474	satiated	stimuli/foods\pepperoni_pizza.jpg	1	4	1	pepperoni_pizza	1	T	14	0	241	0		0	0	123.874877299997	123.974864899996
26702	0.0999824000173248	475	satiated	stimuli/non_foods\non-food_inanimate_nailpolish.jpg	1	4	1	non-food_inanimate_nailpolish	0	P	11	0	195	0		0	0	124.024877999967	124.124860399985
26739.5	0.0999796999967657	476	satiated	stimuli/non_foods\non-food_inanimate_nettle.jpg	1	4	1	non-food_inanimate_nettle	0	S	13	0	197	0		0	0	124.174872199947	124.274851899943
26777	0.0999835999682546	477	satiated	stimuli/non_foods\non-food_animate_cat.jpg	1	4	1	non-food_animate_cat	0	V	15	0	98	0		0	0	124.324873099977	124.424856699945
26814.5	0.0999669000157155	478	satiated	stimuli/non_foods\non-food_animate_donkey.jpg	1	4	1	non-food_animate_donkey	0	H	5	0	107	0		0	0	124.47489839996	124.574865299975
26852	0.099988600006327	479	satiated	stimuli/non_foods\non-food_inanimate_toy_airplane.jpg	1	4	1	non-food_inanimate_toy_airplane	0	K	7	0	222	0		0	0	124.624875399983	124.724863999989
26889.5	0.10001250001369	480	satiated	stimuli/non_foods\non-food_animate_baby_crawling.jpg	1	4	1	non-food_animate_baby_crawling	0	X	17	0	92	0		0	0	124.774867499946	124.874879999959
26927	0.0999668999575078	481	satiated	stimuli/foods\cinnamon.jpg	1	4	1	cinnamon	1	B	0	0	30	0		0	0	124.924893299991	125.024860199948
26964.5	0.0999957000021823	482	satiated	stimuli/foods\potato_chips.jpg	1	4	1	potato_chips	1	J	6	0	247	0		0	0	125.07487349998	125.174869199982
27002	0.0999611999723129	483	satiated	stimuli/foods\toasted_bread_with_tomatoes.jpg	1	4	1	toasted_bread_with_tomatoes	1	Z	18	0	275	0		0	0	125.224895699997	125.32485689997
27039.5	0.0999880000017583	484	satiated	stimuli/non_foods\non-food_animate_monkey.jpg	1	4	1	non-food_animate_monkey	0	V	15	0	130	0		0	0	125.374871899956	125.474859899958
27077	0.099984000029508	485	satiated	stimuli/non_foods\non-food_inanimate_scissors.jpg	1	4	1	non-food_inanimate_scissors	0	F	3	0	205	0		0	0	125.524870099965	125.624854099995
27114.5	0.099985699984245	486	satiated	stimuli/non_foods\non-food_animate_Causasian_man.jpg	1	4	1	non-food_animate_Causasian_man	0	Z	18	0	89	0		0	0	125.674867399968	125.774853099952
27152	0.0999857999850065	487	satiated	stimuli/foods\pasta_carbonara.jpg	1	4	1	pasta_carbonara	1	V	15	0	236	0		0	0	125.824866399984	125.924852199969
27189.5	0.0999797999975272	488	satiated	stimuli/foods\watermelon.jpg	1	4	1	watermelon	1	S	13	0	279	0		0	0	125.974868899968	126.074848699966
27227	0.0999938999884762	489	satiated	stimuli/non_foods\non-food_animate_deer.jpg	1	4	1	non-food_animate_deer	0	F	3	0	105	0		0	0	126.124858799973	126.224852699961
27264.5	0.0999751999625005	490	satiated	stimuli/non_foods\non-food_inanimate_protractor.jpg	1	4	1	non-food_inanimate_protractor	0	M	9	0	201	0		0	0	126.274873199989	126.374848399952
27302	0.0999785999883898	491	satiated	stimuli/foods\cucumber.jpg	1	4	1	cucumber	1	R	12	0	41	0		0	0	126.424860199972	126.52483879996
27339.5	0.0999965999508277	492	satiated	stimuli/non_foods\non-food_inanimate_guitar.jpg	1	4	1	non-food_inanimate_guitar	0	P	11	0	185	0		0	0	126.574860499997	126.674857099948
27377	0.099984000029508	493	satiated	stimuli/non_foods\non-food_animate_baby_sitting.jpg	1	4	1	non-food_animate_baby_sitting	0	S	13	0	93	0		0	0	126.724859899958	126.824843899987
27414.5	0.10000089998357	494	satiated	stimuli/foods\pumpkin.jpg	1	4	1	pumpkin	1	D	2	0	250	0		0	0	126.874860599986	126.97486149997
27452	0.0999661000096239	495	satiated	stimuli/non_foods\non-food_inanimate_nest.jpg	1	4	1	non-food_inanimate_nest	0	K	7	0	196	0		0	0	127.024877299962	127.124843399972
27489.5	0.0999786999891512	496	satiated	stimuli/non_foods\non-food_animate_bat.jpg	1	4	1	non-food_animate_bat	0	B	0	0	94	0		0	0	127.174851199961	127.27482989995
27527	0.0999975000158884	497	satiated	stimuli/foods\lentils.jpg	1	4	1	lentils	1	P	11	0	74	0		0	0	127.324842599977	127.424840099993
27564.5	0.0999833000241779	498	satiated	stimuli/non_foods\non-food_animate_sea_lion.jpg	1	4	1	non-food_animate_sea_lion	0	W	16	0	143	0		0	0	127.474852099956	127.574835399981
27602	0.0999862999888137	499	satiated	stimuli/foods\raw_sausage.jpg	1	4	1	raw_sausage	1	H	5	0	254	0		0	0	127.62484949996	127.724835799949
27639.5	0.0999912999686785	500	satiated	stimuli/non_foods\non-food_animate_student_female.jpg	1	4	1	non-food_animate_student_female	0	G	4	0	151	0		0	0	127.774841799983	127.874833099952
27677	0.0999871999956667	501	satiated	stimuli/foods\savory_pie.jpg	1	4	1	savory_pie	1	L	8	0	265	0		0	0	127.924846099981	128.024833299976
27714.5	0.0999866999918595	502	satiated	stimuli/non_foods\non-food_inanimate_briefcase.jpg	1	4	1	non-food_inanimate_briefcase	0	H	5	0	163	0		0	0	128.074844899995	128.174831599987
27752	0.0999841000302695	503	satiated	stimuli/non_foods\non-food_animate_elephant.jpg	1	4	1	non-food_animate_elephant	0	J	6	0	111	0		0	0	128.224844699958	128.324828799989
27789.5	0.0999851999804378	504	satiated	stimuli/foods\grapefruits.jpg	1	4	1	grapefruits	1	P	11	0	59	0		0	0	128.374843399972	128.474828599952
27827	0.0999862999888137	505	satiated	stimuli/foods\cream_donuts.jpg	1	4	1	cream_donuts	1	N	10	0	39	0		0	0	128.52484279999	128.624829099979
27864.5	0.100003300001845	506	satiated	stimuli/foods\oyster.jpg	1	4	1	oyster	1	V	15	0	233	0		0	0	128.674843799963	128.774847099965
27902	0.0999514000141062	507	satiated	stimuli/non_foods\non-food_animate_millipede.jpg	1	4	1	non-food_animate_millipede	0	M	9	0	129	0		0	0	128.824870599958	128.924821999972
27939.5	0.0999868000508286	508	satiated	stimuli/non_foods\non-food_inanimate_short_sleeved_shirt.jpg	1	4	1	non-food_inanimate_short_sleeved_shirt	0	H	5	0	207	0		0	0	128.974835299945	129.074822099996
27977	0.0999799999990501	509	satiated	stimuli/non_foods\non-food_animate_giraffe.jpg	1	4	1	non-food_animate_giraffe	0	D	2	0	115	0		0	0	129.12483419996	129.224814199959
28014.5	0.0999950999976136	510	satiated	stimuli/non_foods\non-food_inanimate_cap.jpg	1	4	1	non-food_inanimate_cap	0	P	11	0	171	0		0	0	129.274825299974	129.374820399971
28052	0.0999742000130937	511	satiated	stimuli/non_foods\non-food_animate_mouse.jpg	1	4	1	non-food_animate_mouse	0	A	19	1	131	0		0	0	129.424834199948	129.524808399961
28089.5	0.0999915999709629	512	satiated	stimuli/foods\hamburger.jpg	1	4	1	hamburger	1	J	6	0	64	0		0	0	129.574829999998	129.674821599969
28127	0.0999846999766305	513	satiated	stimuli/foods\avocado.jpg	1	4	1	avocado	1	N	10	0	5	0		0	0	129.724822999968	129.824807699944
28164.5	0.0999879000009969	514	satiated	stimuli/non_foods\non-food_inanimate_rack.jpg	1	4	1	non-food_inanimate_rack	0	V	15	0	202	0		0	0	129.874817199947	129.974805099948
28202	0.0999830999644473	515	satiated	stimuli/non_foods\non-food_inanimate_tulip.jpg	1	4	1	non-food_inanimate_tulip	0	J	6	0	224	1	a	0.606769200006966	1	130.024818899983	130.124801999948
28239.5	0.100002399994992	516	satiated	stimuli/non_foods\non-food_inanimate_soccer_ball.jpg	1	4	1	non-food_inanimate_soccer_ball	0	D	2	0	210	0		0	0	130.174808999989	130.274811399984
28277	0.0999889000086114	517	satiated	stimuli/foods\fries.jpg	1	4	1	fries	1	Z	18	0	52	0		0	0	130.324823199946	130.424812099955
28314.5	0.099976500030607	518	satiated	stimuli/foods\red_cabbage.jpg	1	4	1	red_cabbage	1	W	16	0	256	0		0	0	130.474835299945	130.574811799976
28352	0.0999686000286601	519	satiated	stimuli/non_foods\non-food_animate_sea_turtle.jpg	1	4	1	non-food_animate_sea_turtle	0	S	13	0	144	0		0	0	130.624840399949	130.724808999978
28389.5	0.0999929999816231	520	satiated	stimuli/non_foods\non-food_animate_butterfly.jpg	1	4	1	non-food_animate_butterfly	0	V	15	0	96	0		0	0	130.774812299991	130.874805299973
28427	0.0999858999857679	521	satiated	stimuli/foods\croissant.jpg	1	4	1	croissant	1	J	6	0	40	0		0	0	130.92482039996	131.024806299945
28464.5	0.0999833000241779	522	satiated	stimuli/foods\mushroom.jpg	1	4	1	mushroom	1	F	3	0	85	0		0	0	131.074817199958	131.174800499983
28502	0.0999859999865294	523	satiated	stimuli/foods\green_olives.jpg	1	4	1	green_olives	1	N	10	0	62	0		0	0	131.224814199959	131.324800199945
28539.5	0.0999814000097103	524	satiated	stimuli/non_foods\non-food_animate_porcupine.jpg	1	4	1	non-food_animate_porcupine	0	R	12	0	138	0		0	0	131.374818399956	131.474799799966
28577	0.0999982999637723	525	satiated	stimuli/non_foods\non-food_animate_slug.jpg	1	4	1	non-food_animate_slug	0	D	2	0	148	0		0	0	131.524812399992	131.624810699956
28614.5	0.099991700029932	526	satiated	stimuli/non_foods\non-food_animate_peacock.jpg	1	4	1	non-food_animate_peacock	0	G	4	0	134	0		0	0	131.67480649997	131.7747982
28652	0.099962400039658	527	satiated	stimuli/foods\raw_ham.jpg	1	4	1	raw_ham	1	M	9	0	253	0		0	0	131.82480849995	131.92477089999
28689.5	0.0999884000048041	528	satiated	stimuli/foods\linguine_with_clams.jpg	1	4	1	linguine_with_clams	1	H	5	0	77	0		0	0	131.974806599959	132.074794999964
28727	0.099989700014703	529	satiated	stimuli/foods\mussels.jpg	1	4	1	mussels	1	G	4	0	86	0		0	0	132.124810299953	132.224799999967
28764.5	0.0999586000107229	530	satiated	stimuli/foods\capsicum.jpg	1	4	1	capsicum	1	B	0	0	18	0		0	0	132.274825199973	132.374783799984
28802	0.0999846999766305	531	satiated	stimuli/non_foods\non-food_inanimate_buds.jpg	1	4	1	non-food_inanimate_buds	0	S	13	0	166	0		0	0	132.424806299969	132.524790999945
28839.5	0.0999845000333153	532	satiated	stimuli/non_foods\non-food_inanimate_speakers.jpg	1	4	1	non-food_inanimate_speakers	0	H	5	0	212	0		0	0	132.574802499963	132.674786999996
28877	0.0999891000101343	533	satiated	stimuli/non_foods\non-food_inanimate_tent.jpg	1	4	1	non-food_inanimate_tent	0	N	10	0	219	0		0	0	132.724798099953	132.824787199963
28914.5	0.0999845999758691	534	satiated	stimuli/non_foods\non-food_inanimate_watering_can.jpg	1	4	1	non-food_inanimate_watering_can	0	F	3	0	225	0		0	0	132.874799399986	132.974783999962
28952	0.0999861999880522	535	satiated	stimuli/foods\clams.jpg	1	4	1	clams	1	T	14	0	32	0		0	0	133.024797599996	133.124783799984
28989.5	0.0999919000314549	536	satiated	stimuli/non_foods\non-food_inanimate_fire_extinguisher.jpg	1	4	1	non-food_inanimate_fire_extinguisher	0	O	22	1	181	0		0	0	133.174795599945	133.274787499977
29027	0.0999839999713004	537	satiated	stimuli/foods\meatballs.jpg	1	4	1	meatballs	1	T	14	0	81	0		0	0	133.324796699977	133.424780699948
29064.5	0.0999851999804378	538	satiated	stimuli/foods\tomato.jpg	1	4	1	tomato	1	F	3	0	276	0		0	0	133.474794699985	133.574779899966
29102	0.0999886999488808	539	satiated	stimuli/foods\cooked_ham.jpg	1	4	1	cooked_ham	1	V	15	0	35	1	a	0.541841200029012	1	133.624793199997	133.724781899946
29139.5	0.0999853999819607	540	satiated	stimuli/foods\coffee_beans.jpg	1	4	1	coffee_beans	1	J	6	0	34	0		0	0	133.774790299998	133.87477569998
29177	0.0999927999801002	541	satiated	stimuli/non_foods\non-food_animate_rhino.jpg	1	4	1	non-food_animate_rhino	0	X	17	0	141	0		0	0	133.924795200001	134.024787999981
29214.5	0.099964200053364	542	satiated	stimuli/non_foods\non-food_inanimate_clover.jpg	1	4	1	non-food_inanimate_clover	0	T	14	0	174	0		0	0	134.074807799945	134.174771999998
29252	0.0999864999903366	543	satiated	stimuli/non_foods\non-food_inanimate_tree.jpg	1	4	1	non-food_inanimate_tree	0	M	9	0	223	0		0	0	134.22478769999	134.32477419998
29289.5	0.0999857999850065	544	satiated	stimuli/non_foods\non-food_inanimate_drum_set.jpg	1	4	1	non-food_inanimate_drum_set	0	S	13	0	179	0		0	0	134.374785699998	134.474771499983
29327	0.0999859999865294	545	satiated	stimuli/foods\baked_cod_with_carrots_and_green_beans.jpg	1	4	1	baked_cod_with_carrots_and_green_beans	1	R	12	0	7	0		0	0	134.524781099986	134.624767099973
29364.5	0.0999888000078499	546	satiated	stimuli/foods\fruit_salad.jpg	1	4	1	fruit_salad	1	M	9	0	55	0		0	0	134.674781299953	134.774770099961
29402	0.0999829999636859	547	satiated	stimuli/non_foods\non-food_inanimate_bicycle.jpg	1	4	1	non-food_inanimate_bicycle	0	N	10	0	161	0		0	0	134.824782799988	134.924765799951
29439.5	0.0999885000055656	548	satiated	stimuli/foods\prawn.jpg	1	4	1	prawn	1	D	2	0	249	0		0	0	134.97477739997	135.074765899975
29477	0.0999879000009969	549	satiated	stimuli/foods\spring_onions.jpg	1	4	1	spring_onions	1	L	8	0	269	0		0	0	135.124780399958	135.224768299959
29514.5	0.0999869999941438	550	satiated	stimuli/non_foods\non-food_inanimate_teddy_bear.jpg	1	4	1	non-food_inanimate_teddy_bear	0	Z	18	0	218	0		0	0	135.27477639995	135.374763399945
29552	0.0999889000086114	551	satiated	stimuli/foods\red_beans.jpg	1	4	1	red_beans	1	J	6	0	255	0		0	0	135.424773999956	135.524762899964
29589.5	0.0999842999735847	552	satiated	stimuli/foods\brie.jpg	1	4	1	brie	1	M	9	0	12	0		0	0	135.574775799992	135.674760099966
29627	0.100012600014452	553	satiated	stimuli/foods\minestrone_soup.jpg	1	4	1	minestrone_soup	1	W	16	0	82	0		0	0	135.724769999972	135.824782599986
29664.5	0.099943799956236	554	satiated	stimuli/foods\nectarine.jpg	1	4	1	nectarine	1	V	15	0	87	0		0	0	135.87481519999	135.974758999946
29702	0.0999854999827221	555	satiated	stimuli/non_foods\non-food_inanimate_folding_chair.jpg	1	4	1	non-food_inanimate_folding_chair	0	Z	18	0	182	0		0	0	136.024763499969	136.124748999951
29739.5	0.0999860999872908	556	satiated	stimuli/foods\figs.jpg	1	4	1	figs	1	C	1	0	48	0		0	0	136.17476059997	136.274746699957
29777	0.0999966000090353	557	satiated	stimuli/non_foods\non-food_inanimate_cupboard.jpg	1	4	1	non-food_inanimate_cupboard	0	X	17	0	177	0		0	0	136.324758099974	136.424754699983
29814.5	0.099961899977643	558	satiated	stimuli/non_foods\non-food_animate_young_girl.jpg	1	4	1	non-food_animate_young_girl	0	H	5	0	157	0		0	0	136.474764999992	136.574726899969
29852	0.099985699984245	559	satiated	stimuli/non_foods\non-food_inanimate_chandelier.jpg	1	4	1	non-food_inanimate_chandelier	0	B	0	0	173	0		0	0	136.624766399967	136.724752099952
30398	0.0999832999659702	560	satiated	stimuli/foods\figs.jpg	1	5	1	figs	1	B	0	0	48	0		0	0	138.80808029999	138.908063599956
30435.5	0.0999614999745972	561	satiated	stimuli/foods\strawberry.jpg	1	5	1	strawberry	1	J	6	0	272	0		0	0	138.958077699994	139.058039199968
30473	0.0999823000165634	562	satiated	stimuli/non_foods\non-food_inanimate_orchid.jpg	1	5	1	non-food_inanimate_orchid	0	D	2	0	198	0		0	0	139.108077099954	139.208059399971
30510.5	0.0999778999830596	563	satiated	stimuli/foods\broccoli.jpg	1	5	1	broccoli	1	B	0	0	13	0		0	0	139.258078199986	139.358056099969
30548	0.09997740003746	564	satiated	stimuli/foods\pomegranate.jpg	1	5	1	pomegranate	1	N	10	0	244	0		0	0	139.408071899961	139.508049299999
30585.5	0.0999908000230789	565	satiated	stimuli/foods\banana.jpg	1	5	1	banana	1	R	12	0	9	0		0	0	139.558067699953	139.658058499976
30623	0.099965000001248	566	satiated	stimuli/foods\meatballs.jpg	1	5	1	meatballs	1	P	11	0	81	0		0	0	139.708072699956	139.808037699957
30660.5	0.0999478999874555	567	satiated	stimuli/non_foods\non-food_inanimate_skateboard.jpg	1	5	1	non-food_inanimate_skateboard	0	Z	18	0	208	0		0	0	139.858103599981	139.958051499969
30698	0.0999911000253633	568	satiated	stimuli/non_foods\non-food_animate_millipede.jpg	1	5	1	non-food_animate_millipede	0	F	3	0	129	0		0	0	140.008059099957	140.108050199982
30735.5	0.0999843000317924	569	satiated	stimuli/foods\raisins.jpg	1	5	1	raisins	1	S	13	0	252	0		0	0	140.158064499963	140.258048799995
30773	0.0999863999895751	570	satiated	stimuli/non_foods\non-food_animate_skunk.jpg	1	5	1	non-food_animate_skunk	0	D	2	0	147	0		0	0	140.30806359998	140.408049999969
30810.5	0.0999830000218935	571	satiated	stimuli/foods\cracker.jpg	1	5	1	cracker	1	E	20	1	38	0		0	0	140.458064799954	140.558047799976
30848	0.0999829000211321	572	satiated	stimuli/foods\lasagna.jpg	1	5	1	lasagna	1	V	15	0	71	0		0	0	140.608061699953	140.708044599975
30885.5	0.0999652000027709	573	satiated	stimuli/foods\omelette.jpg	1	5	1	omelette	1	S	13	0	228	0		0	0	140.75805949996	140.858024699963
30923	0.0999599999631755	574	satiated	stimuli/non_foods\non-food_animate_Causasian_man.jpg	1	5	1	non-food_animate_Causasian_man	0	G	4	0	89	0		0	0	140.908068599994	141.008028599957
30960.5	0.0999791999929585	575	satiated	stimuli/foods\papaya.jpg	1	5	1	papaya	1	D	2	0	235	1	a	0.701514300017152	1	141.058056899987	141.15803609998
30998	0.0999775000382215	576	satiated	stimuli/foods\pickles.jpg	1	5	1	pickles	1	L	8	0	242	0		0	0	141.208055999945	141.308033499983
31035.5	0.099991700029932	577	satiated	stimuli/non_foods\non-food_animate_young_girl.jpg	1	5	1	non-food_animate_young_girl	0	H	5	0	157	0		0	0	141.35804599995	141.45803769998
31073	0.0999719999963418	578	satiated	stimuli/foods\peach.jpg	1	5	1	peach	1	L	8	0	238	0		0	0	141.508080200001	141.608052199997
31110.5	0.0999652000027709	579	satiated	stimuli/foods\cereal.jpg	1	5	1	cereal	1	F	3	0	22	0		0	0	141.658070599951	141.758035799954
31148	0.0999919000314549	580	satiated	stimuli/foods\minestrone_soup.jpg	1	5	1	minestrone_soup	1	G	4	0	82	0		0	0	141.808051399945	141.908043299976
31185.5	0.0999885000055656	581	satiated	stimuli/non_foods\non-food_animate_cat.jpg	1	5	1	non-food_animate_cat	0	T	14	0	98	0		0	0	141.958047399996	142.058035900001
31223	0.0999849999789149	582	satiated	stimuli/non_foods\non-food_animate_horse.jpg	1	5	1	non-food_animate_horse	0	D	2	0	119	0		0	0	142.108044299996	142.208029299974
31260.5	0.0999652000027709	583	satiated	stimuli/non_foods\non-food_animate_lion.jpg	1	5	1	non-food_animate_lion	0	X	17	0	125	0		0	0	142.258050199947	142.35801539995
31298	0.0999873000546359	584	satiated	stimuli/foods\garlic.jpg	1	5	1	garlic	1	K	7	0	56	0		0	0	142.408039199945	142.5080265
31335.5	0.100005300017074	585	satiated	stimuli/foods\chilli.jpg	1	5	1	chilli	1	Z	18	0	25	0		0	0	142.558038299961	142.658043599979
31372.75	0.0999933999846689	586	satiated	stimuli/foods\beetroots.jpg	1	5	1	beetroots	1	T	14	0	10	0		0	0	142.708035199961	142.808028599946
31410.5	0.0999890000093728	587	satiated	stimuli/non_foods\non-food_animate_bat.jpg	1	5	1	non-food_animate_bat	0	S	13	0	94	0		0	0	142.858038099948	142.958027099958
31448	0.0999799999990501	588	satiated	stimuli/non_foods\non-food_inanimate_toy_airplane.jpg	1	5	1	non-food_inanimate_toy_airplane	0	H	5	0	222	0		0	0	143.0080342	143.108014199999
31485.25	0.10001110000303	589	satiated	stimuli/foods\celery.jpg	1	5	1	celery	1	W	16	0	21	0		0	0	143.158018999966	143.258030099969
31522.75	0.100005699961912	590	satiated	stimuli/foods\red_beans.jpg	1	5	1	red_beans	1	H	5	0	255	0		0	0	143.30801149999	143.408017199952
31560.5	0.0999883000040427	591	satiated	stimuli/foods\potato_chips.jpg	1	5	1	potato_chips	1	C	1	0	247	0		0	0	143.458032099996	143.5580204
31598	0.0999769999762066	592	satiated	stimuli/foods\pineapple.jpg	1	5	1	pineapple	1	N	10	0	243	0		0	0	143.608034299978	143.708011299954
31635.25	0.0999868999933824	593	satiated	stimuli/foods\cupcake.jpg	1	5	1	cupcake	1	L	8	0	42	0		0	0	143.758021499962	143.858008399955
31672.75	0.0999710000469349	594	satiated	stimuli/non_foods\non-food_inanimate_towel.jpg	1	5	1	non-food_inanimate_towel	0	S	13	0	221	0		0	0	143.908023899945	144.007994899992
31710.5	0.099983699969016	595	satiated	stimuli/non_foods\non-food_animate_rhino.jpg	1	5	1	non-food_animate_rhino	0	H	5	0	141	0		0	0	144.0580281	144.158011799969
31748	0.0999873999971896	596	satiated	stimuli/foods\salmon.jpg	1	5	1	salmon	1	R	12	0	264	0		0	0	144.208024899999	144.308012299996
31785.5	0.099984000029508	597	satiated	stimuli/foods\red_cabbage.jpg	1	5	1	red_cabbage	1	W	16	0	256	0		0	0	144.35802439996	144.45800839999
31823	0.099986599991098	598	satiated	stimuli/non_foods\non-food_inanimate_hay.jpg	1	5	1	non-food_inanimate_hay	0	T	14	0	187	0		0	0	144.508022699971	144.608009299962
31860.5	0.0999874999979511	599	satiated	stimuli/foods\brie.jpg	1	5	1	brie	1	B	0	0	12	0		0	0	144.658022799995	144.758010299993
31897.75	0.0999915000284091	600	satiated	stimuli/non_foods\non-food_animate_duck.jpg	1	5	1	non-food_animate_duck	0	F	3	0	109	0		0	0	144.808014299953	144.908005799982
31935.25	0.100009999994654	601	satiated	stimuli/non_foods\non-food_inanimate_padlock.jpg	1	5	1	non-food_inanimate_padlock	0	G	4	0	199	0		0	0	144.958017099998	145.058027099993
31973	0.0999747999594547	602	satiated	stimuli/non_foods\non-food_inanimate_bucket.jpg	1	5	1	non-food_inanimate_bucket	0	Z	18	0	165	0		0	0	145.108028199989	145.208002999949
32010.25	0.0999813000089489	603	satiated	stimuli/foods\lime.jpg	1	5	1	lime	1	S	13	0	76	0		0	0	145.258013099956	145.357994399965
32047.75	0.0999885999481194	604	satiated	stimuli/foods\cherry.jpg	1	5	1	cherry	1	N	10	0	23	0		0	0	145.408015199995	145.508003799943
32085.25	0.0999897999572568	605	satiated	stimuli/foods\apple.jpg	1	5	1	apple	1	R	12	0	1	0		0	0	145.558011199988	145.658000999945
32122.75	0.0999895000131801	606	satiated	stimuli/non_foods\non-food_inanimate_fern.jpg	1	5	1	non-food_inanimate_fern	0	V	15	0	180	0		0	0	145.708010099945	145.807999599958
32160.25	0.099990299961064	607	satiated	stimuli/foods\mortadella.jpg	1	5	1	mortadella	1	F	3	0	83	0		0	0	145.858005699993	145.957995999954
32197.75	0.099983699969016	608	satiated	stimuli/foods\grapefruits.jpg	1	5	1	grapefruits	1	T	14	0	59	0		0	0	146.008009099984	146.107992799953
32235.5	0.0999873999971896	609	satiated	stimuli/foods\fried_calamari.jpg	1	5	1	fried_calamari	1	N	10	0	50	0		0	0	146.158010299958	146.257997699955
32272.75	0.0999880999443121	610	satiated	stimuli/foods\frankfurter_and_provolone_salad.jpg	1	5	1	frankfurter_and_provolone_salad	1	L	8	0	49	0		0	0	146.308005300001	146.407993399946
32310.25	0.099983100022655	611	satiated	stimuli/non_foods\non-food_animate_elephant.jpg	1	5	1	non-food_animate_elephant	0	F	3	0	111	0		0	0	146.458004199958	146.557987299981
32347.75	0.0999857999850065	612	satiated	stimuli/non_foods\non-food_inanimate_protractor.jpg	1	5	1	non-food_inanimate_protractor	0	J	6	0	201	0		0	0	146.608004499984	146.707990299969
32385.25	0.100020100013353	613	satiated	stimuli/foods\lettuce.jpg	1	5	1	lettuce	1	T	14	0	75	0		0	0	146.758000199974	146.858020299987
32423	0.0999389999778941	614	satiated	stimuli/non_foods\non-food_inanimate_cupboard.jpg	1	5	1	non-food_inanimate_cupboard	0	L	8	0	177	0		0	0	146.908050199971	147.007989199948
32460.25	0.0999844999751076	615	satiated	stimuli/foods\brownie.jpg	1	5	1	brownie	1	D	2	0	14	0		0	0	147.058002099977	147.157986599952
32497.75	0.0999866999918595	616	satiated	stimuli/foods\asparagus.jpg	1	5	1	asparagus	1	W	16	0	4	0		0	0	147.207996199955	147.307982899947
32535.25	0.0999895000131801	617	satiated	stimuli/foods\fries.jpg	1	5	1	fries	1	V	15	0	52	0		0	0	147.357996599982	147.457986099995
32572.75	0.0999921999755315	618	satiated	stimuli/non_foods\non-food_animate_kangaroo.jpg	1	5	1	non-food_animate_kangaroo	0	G	4	0	122	0		0	0	147.507994199987	147.607986399962
32610.25	0.0999786999891512	619	satiated	stimuli/foods\dates.jpg	1	5	1	dates	1	T	14	0	43	0		0	0	147.658000399999	147.757979099988
32647.75	0.0999822999583557	620	satiated	stimuli/non_foods\non-food_animate_green_bug.jpg	1	5	1	non-food_animate_green_bug	0	X	17	0	118	0		0	0	147.807995799987	147.907978099945
32685.5	0.0999777000397444	621	satiated	stimuli/non_foods\non-food_animate_deer.jpg	1	5	1	non-food_animate_deer	0	W	16	0	105	0		0	0	147.958010099945	148.057987799984
32723	0.0999392000376247	622	satiated	stimuli/foods\raw_ham.jpg	1	5	1	raw_ham	1	M	9	0	253	0		0	0	148.108015099948	148.207954299985
32760.25	0.0999829999636859	623	satiated	stimuli/foods\mushroom.jpg	1	5	1	mushroom	1	K	7	0	85	0		0	0	148.257988500001	148.357971499965
32797.75	0.0999880000017583	624	satiated	stimuli/non_foods\non-food_animate_penguin.jpg	1	5	1	non-food_animate_penguin	0	J	6	0	135	0		0	0	148.407986199949	148.507974199951
32835.25	0.0999998999759555	625	satiated	stimuli/non_foods\non-food_animate_mammoth.jpg	1	5	1	non-food_animate_mammoth	0	K	7	0	128	0		0	0	148.5579822	148.657982099976
32873	0.0999564999947324	626	satiated	stimuli/foods\brussel_sprouts.jpg	1	5	1	brussel_sprouts	1	G	4	0	15	0		0	0	148.708007999987	148.807964499982
32910.25	0.0999848999781534	627	satiated	stimuli/non_foods\non-food_inanimate_bush.jpg	1	5	1	non-food_inanimate_bush	0	X	17	0	167	0		0	0	148.857981699985	148.957966599963
32947.75	0.100002899998799	628	satiated	stimuli/non_foods\non-food_animate_frog.jpg	1	5	1	non-food_animate_frog	0	N	10	0	113	0		0	0	149.007983299962	149.107986199961
32985.25	0.0999828000203706	629	satiated	stimuli/foods\watermelon.jpg	1	5	1	watermelon	1	B	0	0	279	0		0	0	149.15798269998	149.257965500001
33023	0.0999647999997251	630	satiated	stimuli/foods\carrot.jpg	1	5	1	carrot	1	R	12	0	19	0		0	0	149.308001499972	149.407966299972
33060.25	0.0999789999914356	631	satiated	stimuli/non_foods\non-food_animate_mouse.jpg	1	5	1	non-food_animate_mouse	0	G	4	0	131	0		0	0	149.457977299986	149.557956299977
33097.75	0.099994600052014	632	satiated	stimuli/foods\tomato.jpg	1	5	1	tomato	1	T	14	0	276	0		0	0	149.607968799945	149.707963399997
33135.25	0.0999770000344142	633	satiated	stimuli/non_foods\non-food_animate_lizard.jpg	1	5	1	non-food_animate_lizard	0	J	6	0	126	0		0	0	149.757982599956	149.857959599991
33172.75	0.0999869999941438	634	satiated	stimuli/foods\cinnamon.jpg	1	5	1	cinnamon	1	A	19	1	30	0		0	0	149.907973299967	150.007960299961
33210.25	0.0999828999629244	635	satiated	stimuli/non_foods\non-food_animate_owl.jpg	1	5	1	non-food_animate_owl	0	R	12	0	132	0		0	0	150.0579746	150.157957499963
33247.75	0.0999771999777295	636	satiated	stimuli/foods\wafer.jpg	1	5	1	wafer	1	B	0	0	277	0		0	0	150.207970099989	150.307947299967
33285.25	0.100017999997362	637	satiated	stimuli/non_foods\non-food_animate_iguana.jpg	1	5	1	non-food_animate_iguana	0	G	4	0	121	0		0	0	150.35797219997	150.457990199968
33322.75	0.0999791999929585	638	satiated	stimuli/foods\capsicum.jpg	1	5	1	capsicum	1	D	2	0	18	0		0	0	150.507974199951	150.607953399944
33360.25	0.0999805000028573	639	satiated	stimuli/non_foods\non-food_animate_llama.jpg	1	5	1	non-food_animate_llama	0	K	7	0	127	1	a	0.859639100031927	1	150.657969399996	150.757949899998
33397.75	0.0999872999964282	640	satiated	stimuli/foods\apricot.jpg	1	5	1	apricot	1	Z	18	0	2	0		0	0	150.807964799984	150.90795209998
33435.25	0.0999837000272237	641	satiated	stimuli/non_foods\non-food_inanimate_pine_cone.jpg	1	5	1	non-food_inanimate_pine_cone	0	C	1	0	200	0		0	0	150.957964499947	151.057948199974
33472.75	0.099991700029932	642	satiated	stimuli/foods\fennel.jpg	1	5	1	fennel	1	P	11	0	47	0		0	0	151.107961199945	151.207952899975
33510.25	0.09996099997079	643	satiated	stimuli/foods\swordfish.jpg	1	5	1	swordfish	1	X	17	0	273	0		0	0	151.257963799988	151.357924799959
33547.75	0.0999889000086114	644	satiated	stimuli/foods\pea_pod.jpg	1	5	1	pea_pod	1	P	11	0	237	0		0	0	151.407956099953	151.507944999961
33585.5	0.0999757000245154	645	satiated	stimuli/foods\waffle.jpg	1	5	1	waffle	1	T	14	0	278	0		0	0	151.557968599955	151.657944299979
