onset	duration	eventnumber	hunger_condition	stimfilename	blockno	trialno	is_faststream	stim	food_idx	letter	letter_idx	istarget	image_number	response	keypressed	rt	correct	time_stimon	time_stimoff
5144.25	0.0999730000039563	0	hunger	stimuli/foods\mussels.jpg	1	1	1	mussels	1	N	10	0	86	0		0	0	37.9178533999948	38.0178263999987
5181.75	0.100039199925959	1	hunger	stimuli/foods\fries.jpg	1	1	1	fries	1	H	5	0	52	0		0	0	38.067847300088	38.167886500014
5219.25	0.0999859999865294	2	hunger	stimuli/non_foods\non-food_inanimate_stapler.jpg	1	1	1	non-food_inanimate_stapler	0	S	13	0	213	1	a	0	0	38.2178427000763	38.3178287000628
5256.75	0.0999850999796763	3	hunger	stimuli/non_foods\non-food_inanimate_wrench.jpg	1	1	1	non-food_inanimate_wrench	0	Z	18	0	227	0		0	0	38.3678403000813	38.467825400061
5294.25	0.0999821000732481	4	hunger	stimuli/non_foods\non-food_inanimate_toy_airplane.jpg	1	1	1	non-food_inanimate_toy_airplane	0	N	10	0	222	0		0	0	38.517841199995	38.6178233000683
5331.75	0.099971599993296	5	hunger	stimuli/foods\grapes.jpg	1	1	1	grapes	1	T	14	0	60	0		0	0	38.6678486000746	38.7678202000679
5369.25	0.0999834999674931	6	hunger	stimuli/foods\brownie.jpg	1	1	1	brownie	1	F	3	0	14	0		0	0	38.8178394000279	38.9178228999954
5406.75	0.0999858999857679	7	hunger	stimuli/non_foods\non-food_animate_skunk.jpg	1	1	1	non-food_animate_skunk	0	D	2	0	147	0		0	0	38.9678329000017	39.0678187999874
5444.25	0.0999815999530256	8	hunger	stimuli/foods\pear.jpg	1	1	1	pear	1	F	3	0	239	0		0	0	39.1178355000447	39.2178170999978
5481.75	0.0999957999447361	9	hunger	stimuli/non_foods\non-food_animate_owl.jpg	1	1	1	non-food_animate_owl	0	X	17	0	132	0		0	0	39.2678359000711	39.3678317000158
5519.25	0.0999768999172375	10	hunger	stimuli/non_foods\non-food_inanimate_speakers.jpg	1	1	1	non-food_inanimate_speakers	0	L	8	0	212	0		0	0	39.417851400096	39.5178283000132
5556.75	0.0999834999674931	11	hunger	stimuli/non_foods\non-food_animate_squirrel.jpg	1	1	1	non-food_animate_squirrel	0	H	5	0	150	0		0	0	39.5678313000826	39.6678148000501
5594.25	0.099983699969016	12	hunger	stimuli/non_foods\non-food_inanimate_leaf.jpg	1	1	1	non-food_inanimate_leaf	0	B	0	0	192	0		0	0	39.7178285000846	39.8178122000536
5631.75	0.0997211000649258	13	hunger	stimuli/non_foods\non-food_inanimate_socks.jpg	1	1	1	non-food_inanimate_socks	0	P	11	0	211	0		0	0	39.8680934000295	39.9678145000944
5669.25	0.0999808000633493	14	hunger	stimuli/foods\capsicum.jpg	1	1	1	capsicum	1	Z	18	0	18	0		0	0	40.0178264999995	40.1178073000629
5706.75	0.0999719999963418	15	hunger	stimuli/non_foods\non-food_animate_iguana.jpg	1	1	1	non-food_animate_iguana	0	G	4	0	121	0		0	0	40.1678226999938	40.2677946999902
5744.25	0.0999810999492183	16	hunger	stimuli/non_foods\non-food_animate_sea_turtle.jpg	1	1	1	non-food_animate_sea_turtle	0	P	11	0	144	0		0	0	40.31782570004	40.4178067999892
5781.75	0.0999882000032812	17	hunger	stimuli/foods\lemon.jpg	1	1	1	lemon	1	Z	18	0	72	0		0	0	40.4678178000031	40.5678060000064
5819.25	0.0999804999446496	18	hunger	stimuli/foods\lasagna.jpg	1	1	1	lasagna	1	X	17	0	71	0		0	0	40.6178198000416	40.7178002999863
5856.75	0.100002099992707	19	hunger	stimuli/foods\green_olives.jpg	1	1	1	green_olives	1	T	14	0	62	0		0	0	40.7677982000168	40.8678003000095
5894.25	0.0999772000359371	20	hunger	stimuli/non_foods\non-food_inanimate_couch.jpg	1	1	1	non-food_inanimate_couch	0	D	2	0	176	0		0	0	40.917824300006	41.017801500042
5931.75	0.100008900044486	21	hunger	stimuli/foods\banana.jpg	1	1	1	banana	1	N	10	0	9	0		0	0	41.0678196999943	41.1678286000388
5969.25	0.0999520999612287	22	hunger	stimuli/non_foods\non-food_animate_german_shepherd.jpg	1	1	1	non-food_animate_german_shepherd	0	H	5	0	114	0		0	0	41.2178453000961	41.3177974000573
6006.75	0.0999949000542983	23	hunger	stimuli/non_foods\non-food_inanimate_skateboard.jpg	1	1	1	non-food_inanimate_skateboard	0	T	14	0	208	0		0	0	41.3678126999876	41.4678076000419
6044.25	0.100003200001083	24	hunger	stimuli/non_foods\non-food_inanimate_clover.jpg	1	1	1	non-food_inanimate_clover	0	N	10	0	174	0		0	0	41.5177910000784	41.6177942000795
6081.75	0.0999872999964282	25	hunger	stimuli/non_foods\non-food_inanimate_waterlily.jpg	1	1	1	non-food_inanimate_waterlily	0	V	15	0	226	0		0	0	41.6678070999915	41.7677943999879
6119.25	0.0999862999888137	26	hunger	stimuli/non_foods\non-food_inanimate_towel.jpg	1	1	1	non-food_inanimate_towel	0	S	13	0	221	0		0	0	41.8178065000102	41.917792799999
6156.75	0.0999832999659702	27	hunger	stimuli/foods\cooked_ham.jpg	1	1	1	cooked_ham	1	D	2	0	35	0		0	0	41.9678093000548	42.0677926000208
6194.25	0.0999881000025198	28	hunger	stimuli/non_foods\non-food_inanimate_guitar.jpg	1	1	1	non-food_inanimate_guitar	0	V	15	0	185	0		0	0	42.1178045000415	42.217792600044
6231.75	0.0999497000593692	29	hunger	stimuli/non_foods\non-food_animate_butterfly.jpg	1	1	1	non-food_animate_butterfly	0	W	16	0	96	0		0	0	42.2678301000269	42.3677798000863
6269.25	0.0999859999865294	30	hunger	stimuli/foods\rice_cake.jpg	1	1	1	rice_cake	1	V	15	0	258	1	a	0	0	42.4177939000074	42.5177798999939
6306.75	0.0999853999819607	31	hunger	stimuli/non_foods\non-food_inanimate_tree.jpg	1	1	1	non-food_inanimate_tree	0	S	13	0	223	0		0	0	42.5677951000398	42.6677805000218
6344.25	0.100006499909796	32	hunger	stimuli/foods\brussel_sprouts.jpg	1	1	1	brussel_sprouts	1	Z	18	0	15	0		0	0	42.7177836000919	42.8177901000017
6381.75	0.0999663999537006	33	hunger	stimuli/foods\fennel.jpg	1	1	1	fennel	1	L	8	0	47	0		0	0	42.8678114000941	42.9677778000478
6419.25	0.0999763000290841	34	hunger	stimuli/foods\mango.jpg	1	1	1	mango	1	M	9	0	80	0		0	0	43.0177979000146	43.1177742000436
6456.75	0.0999795999377966	35	hunger	stimuli/foods\raw_ham.jpg	1	1	1	raw_ham	1	T	14	0	253	0		0	0	43.1677891000872	43.267768700025
6494.25	0.100007700035349	36	hunger	stimuli/foods\cracker.jpg	1	1	1	cracker	1	G	4	0	38	0		0	0	43.3177746000001	43.4177823000355
6531.75	0.099982799962163	37	hunger	stimuli/non_foods\non-food_inanimate_sun_flower.jpg	1	1	1	non-food_inanimate_sun_flower	0	Z	18	0	216	0		0	0	43.4677971000783	43.5677799000405
6569.25	0.0999867999926209	38	hunger	stimuli/foods\gnocchi.jpg	1	1	1	gnocchi	1	S	13	0	58	0		0	0	43.6177920000628	43.7177788000554
6606.75	0.0999808999476954	39	hunger	stimuli/non_foods\non-food_animate_monkey.jpg	1	1	1	non-food_animate_monkey	0	Z	18	0	130	0		0	0	43.7677905000746	43.8677714000223
6644.25	0.100006399909034	40	hunger	stimuli/non_foods\non-food_animate_seal.jpg	1	1	1	non-food_animate_seal	0	N	10	0	146	0		0	0	43.9177877000766	44.0177940999856
6681.75	0.0999788000481203	41	hunger	stimuli/foods\apple.jpg	1	1	1	apple	1	R	12	0	1	0		0	0	44.0677953000413	44.1677741000894
6719.25	0.0999814999522641	42	hunger	stimuli/non_foods\non-food_animate_peacock.jpg	1	1	1	non-food_animate_peacock	0	X	17	0	134	0		0	0	44.2177910000319	44.3177724999841
6756.75	0.0999756000237539	43	hunger	stimuli/foods\peach.jpg	1	1	1	peach	1	D	2	0	238	0		0	0	44.3677821999881	44.4677578000119
6794.25	0.100015999982134	44	hunger	stimuli/non_foods\non-food_inanimate_bucket.jpg	1	1	1	non-food_inanimate_bucket	0	U	23	1	165	0		0	0	44.5177571000531	44.6177731000353
6831.75	0.0999621000373736	45	hunger	stimuli/foods\omelette.jpg	1	1	1	omelette	1	W	16	0	228	0		0	0	44.6678065999877	44.767768700025
6869.25	0.0999808999476954	46	hunger	stimuli/non_foods\non-food_inanimate_cupboard.jpg	1	1	1	non-food_inanimate_cupboard	0	R	12	0	177	0		0	0	44.8177856000839	44.9177665000316
6906.75	0.100014099967666	47	hunger	stimuli/foods\artichoke.jpg	1	1	1	artichoke	1	L	8	0	3	0		0	0	44.9677518000826	45.0677659000503
6944.25	0.0999762999126688	48	hunger	stimuli/foods\broccoli.jpg	1	1	1	broccoli	1	N	10	0	13	0		0	0	45.117779100081	45.2177553999936
6981.75	0.0999870999949053	49	hunger	stimuli/non_foods\non-food_animate_student_female.jpg	1	1	1	non-food_animate_student_female	0	F	3	0	151	0		0	0	45.2677741000662	45.3677612000611
7019.25	0.0999850999796763	50	hunger	stimuli/foods\oregano.jpg	1	1	1	oregano	1	W	16	0	231	0		0	0	45.417774300091	45.5177594000706
7056.75	0.0999854999827221	51	hunger	stimuli/non_foods\non-food_inanimate_table.jpg	1	1	1	non-food_inanimate_table	0	D	2	0	217	0		0	0	45.5677742999978	45.6677597999806
7094.25	0.0999854999827221	52	hunger	stimuli/non_foods\non-food_animate_seahorse.jpg	1	1	1	non-food_animate_seahorse	0	B	0	0	145	0		0	0	45.7177712999983	45.817756799981
7131.75	0.099985699984245	53	hunger	stimuli/foods\brie.jpg	1	1	1	brie	1	W	16	0	12	0		0	0	45.8677717000246	45.9677574000088
7169.25	0.099984799977392	54	hunger	stimuli/foods\bagel.jpg	1	1	1	bagel	1	S	13	0	6	0		0	0	46.0177697000327	46.1177545000101
7206.75	0.0999899000162259	55	hunger	stimuli/non_foods\non-food_inanimate_headphones.jpg	1	1	1	non-food_inanimate_headphones	0	G	4	0	188	0		0	0	46.1677671000361	46.2677570000524
7244.25	0.10000299999956	56	hunger	stimuli/foods\orange.jpg	1	1	1	orange	1	P	11	0	230	0		0	0	46.317767700064	46.4177707000636
7281.75	0.100008200039156	57	hunger	stimuli/non_foods\non-food_inanimate_nailpolish.jpg	1	1	1	non-food_inanimate_nailpolish	0	F	3	0	195	0		0	0	46.4677721000044	46.5677803000435
7319.25	0.0999934999272227	58	hunger	stimuli/non_foods\non-food_inanimate_button.jpg	1	1	1	non-food_inanimate_button	0	G	4	0	168	0		0	0	46.6177647000877	46.7177582000149
7356.75	0.0999850999796763	59	hunger	stimuli/foods\egg.jpg	1	1	1	egg	1	A	19	1	45	0		0	0	46.7677624000935	46.8677475000732
7394.25	0.0999882000032812	60	hunger	stimuli/non_foods\non-food_inanimate_cap.jpg	1	1	1	non-food_inanimate_cap	0	T	14	0	171	0		0	0	46.9177572000772	47.0177454000805
7431.75	0.0999871999956667	61	hunger	stimuli/foods\pumpkin.jpg	1	1	1	pumpkin	1	K	7	0	250	0		0	0	47.0677593	47.1677464999957
7469.25	0.099987699999474	62	hunger	stimuli/foods\almonds.jpg	1	1	1	almonds	1	J	6	0	0	1	a	0.450201699975878	1	47.2177581000142	47.3177458000137
7506.75	0.0999701999826357	63	hunger	stimuli/foods\garlic.jpg	1	1	1	garlic	1	D	2	0	56	0		0	0	47.3677533000009	47.4677234999835
7544.25	0.10000089998357	64	hunger	stimuli/foods\cannoli.jpg	1	1	1	cannoli	1	C	1	0	17	0		0	0	47.5177359000081	47.6177367999917
7581.75	0.0999862999888137	65	hunger	stimuli/foods\risotto_with_peas_and_asparagus_tips.jpg	1	1	1	risotto_with_peas_and_asparagus_tips	1	H	5	0	259	0		0	0	47.6677530000452	47.767739300034
7619.25	0.0999860999872908	66	hunger	stimuli/non_foods\non-food_inanimate_tulip.jpg	1	1	1	non-food_inanimate_tulip	0	F	3	0	224	0		0	0	47.8177514000563	47.9177375000436
7656.75	0.0999872999964282	67	hunger	stimuli/foods\rice.jpg	1	1	1	rice	1	T	14	0	257	0		0	0	47.9677493000636	48.06773660006
7694.25	0.100023899925873	68	hunger	stimuli/non_foods\non-food_inanimate_suitcase.jpg	1	1	1	non-food_inanimate_suitcase	0	C	1	0	215	0		0	0	48.1177487000823	48.2177726000082
7731.75	0.099937199964188	69	hunger	stimuli/non_foods\non-food_inanimate_pine_cone.jpg	1	1	1	non-food_inanimate_pine_cone	0	V	15	0	200	0		0	0	48.2677996000275	48.3677367999917
7769.25	0.0999846000922844	70	hunger	stimuli/foods\lemon_meringue_pie.jpg	1	1	1	lemon_meringue_pie	1	M	9	0	73	0		0	0	48.4177474000026	48.5177320000948
7806.75	0.100012899958529	71	hunger	stimuli/non_foods\non-food_animate_gorilla.jpg	1	1	1	non-food_animate_gorilla	0	V	15	0	116	0		0	0	48.5677202000516	48.6677331000101
7844.25	0.0999812999507412	72	hunger	stimuli/non_foods\non-food_inanimate_chandelier.jpg	1	1	1	non-food_inanimate_chandelier	0	P	11	0	173	0		0	0	48.7177471000468	48.8177283999976
7881.75	0.0999841999728233	73	hunger	stimuli/foods\risotto_with_zucchini.jpg	1	1	1	risotto_with_zucchini	1	V	15	0	260	0		0	0	48.8677422000328	48.9677264000056
7919.25	0.0999820999568328	74	hunger	stimuli/non_foods\non-food_animate_kangaroo.jpg	1	1	1	non-food_animate_kangaroo	0	L	8	0	122	0		0	0	49.0177446000744	49.1177267000312
7956.75	0.099984799977392	75	hunger	stimuli/foods\papaya.jpg	1	1	1	papaya	1	N	10	0	235	0		0	0	49.1677394000581	49.2677242000354
7994.25	0.0999687000876293	76	hunger	stimuli/foods\cooked_prawn.jpg	1	1	1	cooked_prawn	1	P	11	0	36	0		0	0	49.3177583999932	49.4177271000808
8031.75	0.099984799977392	77	hunger	stimuli/non_foods\non-food_animate_horse.jpg	1	1	1	non-food_animate_horse	0	L	8	0	119	0		0	0	49.4677383000962	49.5677231000736
8069.25	0.0999811999499798	78	hunger	stimuli/foods\lettuce.jpg	1	1	1	lettuce	1	D	2	0	75	0		0	0	49.6177331000799	49.7177143000299
8106.75	0.0999900000169873	79	hunger	stimuli/non_foods\non-food_animate_ladybug.jpg	1	1	1	non-food_animate_ladybug	0	Z	18	0	124	0		0	0	49.767729400075	49.867719400092
8144.25	0.0999957000603899	80	hunger	stimuli/foods\pomegranate.jpg	1	1	1	pomegranate	1	M	9	0	244	0		0	0	49.9177337000147	50.017729400075
8181.75	0.0999618999194354	81	hunger	stimuli/foods\donut.jpg	1	1	1	donut	1	R	12	0	44	0		0	0	50.06776980008	50.1677316999994
8219.25	0.0999880000017583	82	hunger	stimuli/non_foods\non-food_animate_fox.jpg	1	1	1	non-food_animate_fox	0	B	0	0	112	0		0	0	50.2177297000308	50.3177177000325
8256.75	0.0999841999728233	83	hunger	stimuli/foods\apricot.jpg	1	1	1	apricot	1	S	13	0	2	0		0	0	50.3677283000434	50.4677125000162
8294.25	0.0999800999416038	84	hunger	stimuli/non_foods\non-food_inanimate_nest.jpg	1	1	1	non-food_inanimate_nest	0	T	14	0	196	0		0	0	50.5177274000598	50.6177075000014
8331.75	0.10000640002545	85	hunger	stimuli/foods\oyster.jpg	1	1	1	oyster	1	N	10	0	233	0		0	0	50.6677026000107	50.7677090000361
8369.25	0.100006499909796	86	hunger	stimuli/non_foods\non-food_inanimate_toilet.jpg	1	1	1	non-food_inanimate_toilet	0	W	16	0	220	0		0	0	50.817724200082	50.9177306999918
8406.75	0.0999893998960033	87	hunger	stimuli/foods\hotdog.jpg	1	1	1	hotdog	1	J	6	0	67	0		0	0	50.9677220000885	51.0677113999845
8444.25	0.09997740003746	88	hunger	stimuli/non_foods\non-food_animate_tortoise.jpg	1	1	1	non-food_animate_tortoise	0	S	13	0	153	0		0	0	51.1177281000419	51.2177055000793
8481.75	0.0999910000246018	89	hunger	stimuli/non_foods\non-food_animate_killer_whale.jpg	1	1	1	non-food_animate_killer_whale	0	J	6	0	123	0		0	0	51.2677183999913	51.3677094000159
8519.25	0.0999696000944823	90	hunger	stimuli/foods\lamb_chops.jpg	1	1	1	lamb_chops	1	G	4	0	70	0		0	0	51.4177309999941	51.5177006000886
8556.75	0.099984799977392	91	hunger	stimuli/foods\minestrone_soup.jpg	1	1	1	minestrone_soup	1	Z	18	0	82	0		0	0	51.5677180000348	51.6677028000122
8594.25	0.0999940000474453	92	hunger	stimuli/foods\strawberry.jpg	1	1	1	strawberry	1	S	13	0	272	0		0	0	51.7177244999912	51.8177185000386
8631.75	0.099968499969691	93	hunger	stimuli/foods\figs.jpg	1	1	1	figs	1	H	5	0	48	0		0	0	51.8677311000647	51.9676996000344
8669.25	0.0999864999903366	94	hunger	stimuli/foods\chocolate_pudding.jpg	1	1	1	chocolate_pudding	1	T	14	0	29	0		0	0	52.0177121000597	52.1176986000501
8706.75	0.0999845000915229	95	hunger	stimuli/non_foods\non-food_inanimate_bamboo.jpg	1	1	1	non-food_inanimate_bamboo	0	J	6	0	159	0		0	0	52.1677139999811	52.2676985000726
8744.25	0.0999888998921961	96	hunger	stimuli/foods\cauliflower.jpg	1	1	1	cauliflower	1	Z	18	0	20	0		0	0	52.3177098000888	52.417698699981
8781.75	0.0999841000884771	97	hunger	stimuli/foods\oven-roasted_tomatoes.jpg	1	1	1	oven-roasted_tomatoes	1	S	13	0	232	0		0	0	52.4677095999941	52.5676937000826
8819.25	0.0999815000686795	98	hunger	stimuli/non_foods\non-food_animate_dachshund.jpg	1	1	1	non-food_animate_dachshund	0	L	8	0	104	0		0	0	52.6177096000174	52.7176911000861
8856.75	0.0999844000907615	99	hunger	stimuli/foods\celery.jpg	1	1	1	celery	1	P	11	0	21	0		0	0	52.7677048000041	52.8676892000949
8894.25	0.0999825999606401	100	hunger	stimuli/non_foods\non-food_inanimate_bed.jpg	1	1	1	non-food_inanimate_bed	0	V	15	0	160	0		0	0	52.9177080000518	53.0176906000124
8931.75	0.0999849999789149	101	hunger	stimuli/non_foods\non-food_animate_Causasian_man.jpg	1	1	1	non-food_animate_Causasian_man	0	C	1	0	89	0		0	0	53.0677012000233	53.1676862000022
8969.25	0.0999802999431267	102	hunger	stimuli/foods\pea_pod.jpg	1	1	1	pea_pod	1	A	19	1	237	0		0	0	53.2177071000915	53.3176874000346
9006.75	0.0999735000077635	103	hunger	stimuli/non_foods\non-food_inanimate_short_sleeved_shirt.jpg	1	1	1	non-food_inanimate_short_sleeved_shirt	0	V	15	0	207	0		0	0	53.3677050999831	53.4676785999909
9044.25	0.100002499995753	104	hunger	stimuli/foods\spring_onions.jpg	1	1	1	spring_onions	1	R	12	0	269	1	a	0.391820399905555	1	53.5177032999927	53.6177057999885
9081.75	0.0999651000602171	105	hunger	stimuli/non_foods\non-food_inanimate_orchid.jpg	1	1	1	non-food_inanimate_orchid	0	M	9	0	198	0		0	0	53.6677181000123	53.7676832000725
9119.25	0.0999764000298455	106	hunger	stimuli/foods\nectarine.jpg	1	1	1	nectarine	1	R	12	0	87	0		0	0	53.81770340004	53.9176798000699
9156.75	0.0999825000762939	107	hunger	stimuli/non_foods\non-food_animate_runner.jpg	1	1	1	non-food_animate_runner	0	M	9	0	142	0		0	0	53.9676961000077	54.067678600084
9194.25	0.0999821000732481	108	hunger	stimuli/non_foods\non-food_inanimate_moss.jpg	1	1	1	non-food_inanimate_moss	0	J	6	0	194	0		0	0	54.1176943000173	54.2176764000906
9231.75	0.099983699969016	109	hunger	stimuli/foods\corncob.jpg	1	1	1	corncob	1	N	10	0	37	0		0	0	54.2676930000307	54.3676766999997
9269.25	0.0999879000009969	110	hunger	stimuli/non_foods\non-food_animate_lion.jpg	1	1	1	non-food_animate_lion	0	C	1	0	125	0		0	0	54.417690500035	54.5176784000359
9306.75	0.0999818999553099	111	hunger	stimuli/non_foods\non-food_inanimate_hammer.jpg	1	1	1	non-food_inanimate_hammer	0	N	10	0	186	0		0	0	54.5676914000651	54.6676733000204
9344.25	0.0999837000854313	112	hunger	stimuli/non_foods\non-food_inanimate_skirt.jpg	1	1	1	non-food_inanimate_skirt	0	W	16	0	209	0		0	0	54.7177091999911	54.8176929000765
9381.75	0.0999762000283226	113	hunger	stimuli/non_foods\non-food_animate_dolphin.jpg	1	1	1	non-food_animate_dolphin	0	K	7	0	106	0		0	0	54.8676984000485	54.9676746000769
9419.25	0.0999850999796763	114	hunger	stimuli/foods\steak.jpg	1	1	1	steak	1	W	16	0	270	0		0	0	55.0176844000816	55.1176695000613
9456.75	0.0999901999020949	115	hunger	stimuli/non_foods\non-food_inanimate_lighter.jpg	1	1	1	non-food_inanimate_lighter	0	S	13	0	193	0		0	0	55.167683100095	55.2676732999971
9494.25	0.0999855999834836	116	hunger	stimuli/non_foods\non-food_inanimate_teddy_bear.jpg	1	1	1	non-food_inanimate_teddy_bear	0	H	5	0	218	0		0	0	55.3176849000156	55.4176704999991
9531.75	0.0999640000518411	117	hunger	stimuli/non_foods\non-food_animate_llama.jpg	1	1	1	non-food_animate_llama	0	W	16	0	127	0		0	0	55.4677005000412	55.5676645000931
9569.25	0.0999837999697775	118	hunger	stimuli/non_foods\non-food_inanimate_drum_set.jpg	1	1	1	non-food_inanimate_drum_set	0	H	5	0	179	0		0	0	55.6176838000538	55.7176676000236
9606.75	0.099981400067918	119	hunger	stimuli/non_foods\non-food_inanimate_ring.jpg	1	1	1	non-food_inanimate_ring	0	F	3	0	203	0		0	0	55.7676758000161	55.8676572000841
9644.25	0.0999691999750212	120	hunger	stimuli/foods\potatoes.jpg	1	1	1	potatoes	1	D	2	0	248	0		0	0	55.9176801000722	56.0176493000472
9681.75	0.0999639999354258	121	hunger	stimuli/foods\carrot.jpg	1	1	1	carrot	1	K	7	0	19	0		0	0	56.0676772000734	56.1676412000088
9719.25	0.0999870999949053	122	hunger	stimuli/foods\fried_zucchini.jpg	1	1	1	fried_zucchini	1	T	14	0	51	0		0	0	56.2176723000593	56.3176594000543
9756.75	0.099998600082472	123	hunger	stimuli/non_foods\non-food_animate_young_boy.jpg	1	1	1	non-food_animate_young_boy	0	A	19	1	156	0		0	0	56.3676746999845	56.467673300067
9794.25	0.0999836000846699	124	hunger	stimuli/foods\fruit_salad.jpg	1	1	1	fruit_salad	1	N	10	0	55	0		0	0	56.5176717999857	56.6176554000704
9831.75	0.0999905000207946	125	hunger	stimuli/foods\honey.jpg	1	1	1	honey	1	M	9	0	66	1	a	0.400181100005284	1	56.6676690999884	56.7676596000092
9869.25	0.0999905000207946	126	hunger	stimuli/non_foods\non-food_animate_woman.jpg	1	1	1	non-food_animate_woman	0	N	10	0	154	0		0	0	56.8176693000132	56.917659800034
9906.75	0.0999966999515891	127	hunger	stimuli/non_foods\non-food_inanimate_canoe.jpg	1	1	1	non-food_inanimate_canoe	0	K	7	0	170	0		0	0	56.967660900089	57.0676576000405
9944.25	0.0999791999347508	128	hunger	stimuli/foods\cereal.jpg	1	1	1	cereal	1	C	1	0	22	0		0	0	57.1176711000735	57.2176503000082
9981.75	0.0999826999614015	129	hunger	stimuli/foods\green_beans.jpg	1	1	1	green_beans	1	Z	18	0	61	0		0	0	57.2676659000572	57.3676486000186
10019.25	0.0999818999553099	130	hunger	stimuli/foods\chocolate_bar.jpg	1	1	1	chocolate_bar	1	P	11	0	26	0		0	0	57.417664400069	57.5176463000244
10056.75	0.0999790000496432	131	hunger	stimuli/non_foods\non-food_animate_alligator.jpg	1	1	1	non-food_animate_alligator	0	W	16	0	90	0		0	0	57.5676684000064	57.667647400056
10094.25	0.0999869999941438	132	hunger	stimuli/foods\hamburger.jpg	1	1	1	hamburger	1	B	0	0	64	0		0	0	57.7176594000775	57.8176464000717
10131.75	0.0999924999196082	133	hunger	stimuli/foods\baked_cod_with_carrots_and_green_beans.jpg	1	1	1	baked_cod_with_carrots_and_green_beans	1	M	9	0	7	0		0	0	57.8676558000734	57.967648299993
10169.25	0.0999847000930458	134	hunger	stimuli/non_foods\non-food_animate_Asian_man.jpg	1	1	1	non-food_animate_Asian_man	0	N	10	0	88	0		0	0	58.0176564999856	58.1176412000787
10206.75	0.0999891000101343	135	hunger	stimuli/foods\smoked_ham.jpg	1	1	1	smoked_ham	1	Z	18	0	266	0		0	0	58.1676569000119	58.2676460000221
10244.25	0.0999858999857679	136	hunger	stimuli/non_foods\non-food_animate_slug.jpg	1	1	1	non-food_animate_slug	0	M	9	0	148	0		0	0	58.3176562000299	58.4176421000157
10281.75	0.0999820999568328	137	hunger	stimuli/foods\pepperoni_pizza.jpg	1	1	1	pepperoni_pizza	1	W	16	0	241	0		0	0	58.467654600041	58.5676366999978
10319.25	0.0999870999949053	138	hunger	stimuli/foods\radish.jpg	1	1	1	radish	1	R	12	0	251	0		0	0	58.6176527000498	58.7176398000447
10356.75	0.100021200021729	139	hunger	stimuli/foods\cinnamon.jpg	1	1	1	cinnamon	1	W	16	0	30	0		0	0	58.76765230007	58.8676735000918
10956.75	0.0999782999278978	140	hunger	stimuli/foods\salami.jpg	1	2	1	salami	1	C	1	0	263	0		0	0	61.1676373000955	61.2676156000234
10994.25	0.0999829999636859	141	hunger	stimuli/foods\cupcake.jpg	1	2	1	cupcake	1	D	2	0	42	0		0	0	61.317630500067	61.4176135000307
11031.75	0.0999845999758691	142	hunger	stimuli/foods\pork_and_rice.jpg	1	2	1	pork_and_rice	1	J	6	0	245	0		0	0	61.4676279000705	61.5676125000464
11069.25	0.0999518999597058	143	hunger	stimuli/non_foods\non-food_inanimate_broom.jpg	1	2	1	non-food_inanimate_broom	0	M	9	0	164	0		0	0	61.6176696000621	61.7176215000218
11106.75	0.0999819999560714	144	hunger	stimuli/non_foods\non-food_animate_parrot.jpg	1	2	1	non-food_animate_parrot	0	C	1	0	133	0		0	0	61.7676243000897	61.8676063000457
11144.25	0.0999845999758691	145	hunger	stimuli/non_foods\non-food_inanimate_fire_extinguisher.jpg	1	2	1	non-food_inanimate_fire_extinguisher	0	J	6	0	181	0		0	0	61.9176209000871	62.0176055000629
11181.75	0.0999842999735847	146	hunger	stimuli/non_foods\non-food_inanimate_alarm_clock.jpg	1	2	1	non-food_inanimate_alarm_clock	0	K	7	0	158	0		0	0	62.0676233000122	62.1676075999858
11219.25	0.0999860999872908	147	hunger	stimuli/foods\grilled_chicken_breast.jpg	1	2	1	grilled_chicken_breast	1	R	12	0	63	0		0	0	62.2176184999989	62.3176045999862
11256.75	0.0999729000031948	148	hunger	stimuli/non_foods\non-food_inanimate_fern.jpg	1	2	1	non-food_inanimate_fern	0	J	6	0	180	0		0	0	62.3676195000298	62.467592400033
11294.25	0.0999836000846699	149	hunger	stimuli/foods\wafer.jpg	1	2	1	wafer	1	S	13	0	277	0		0	0	62.5176131000044	62.6175967000891
11331.75	0.0999887000070885	150	hunger	stimuli/non_foods\non-food_animate_porcupine.jpg	1	2	1	non-food_animate_porcupine	0	C	1	0	138	0		0	0	62.6676073999843	62.7675960999914
11369.25	0.0999979999614879	151	hunger	stimuli/non_foods\non-food_inanimate_bush.jpg	1	2	1	non-food_inanimate_bush	0	R	12	0	167	0		0	0	62.8176019000821	62.9175999000436
11406.75	0.0999859999865294	152	hunger	stimuli/foods\savory_pie.jpg	1	2	1	savory_pie	1	C	1	0	265	0		0	0	62.9676122000674	63.0675982000539
11444.25	0.0999862999888137	153	hunger	stimuli/foods\ginger_root.jpg	1	2	1	ginger_root	1	X	17	0	57	0		0	0	63.1176110000815	63.2175973000703
11481.75	0.100003900006413	154	hunger	stimuli/foods\cinnamon_sroll.jpg	1	2	1	cinnamon_sroll	1	Z	18	0	31	0		0	0	63.2676155000227	63.3676194000291
11519.25	0.099972500000149	155	hunger	stimuli/non_foods\non-food_inanimate_nettle.jpg	1	2	1	non-food_inanimate_nettle	0	C	1	0	197	0		0	0	63.4176229999866	63.5175954999868
11556.75	0.099985699984245	156	hunger	stimuli/foods\meatballs.jpg	1	2	1	meatballs	1	G	4	0	81	0		0	0	63.5676087000174	63.6675944000017
11594.25	0.0999891000101343	157	hunger	stimuli/foods\dates.jpg	1	2	1	dates	1	F	3	0	43	0		0	0	63.717602299992	63.8175914000021
11631.75	0.0999761000275612	158	hunger	stimuli/non_foods\non-food_inanimate_rack.jpg	1	2	1	non-food_inanimate_rack	0	V	15	0	202	0		0	0	63.8676060000435	63.967582100071
11669.25	0.100008999928832	159	hunger	stimuli/non_foods\non-food_animate_deer.jpg	1	2	1	non-food_animate_deer	0	W	16	0	105	0		0	0	64.0175793000963	64.1175883000251
11706.75	0.0999838999705389	160	hunger	stimuli/foods\prawn.jpg	1	2	1	prawn	1	N	10	0	249	0		0	0	64.16759680002	64.2675806999905
11744.25	0.0999850999796763	161	hunger	stimuli/non_foods\non-food_inanimate_padlock.jpg	1	2	1	non-food_inanimate_padlock	0	H	5	0	199	0		0	0	64.3175936000189	64.4175786999986
11781.75	0.0999788999324664	162	hunger	stimuli/non_foods\non-food_animate_yellow_bug.jpg	1	2	1	non-food_animate_yellow_bug	0	G	4	0	155	0		0	0	64.4675947000505	64.567573599983
11819.25	0.0999840999720618	163	hunger	stimuli/foods\potato_and_green_bean_salad.jpg	1	2	1	potato_and_green_bean_salad	1	V	15	0	246	0		0	0	64.6175920000533	64.7175761000253
11856.75	0.100021999911405	164	hunger	stimuli/foods\salmon.jpg	1	2	1	salmon	1	B	0	0	264	0		0	0	64.7675930000842	64.8676149999956
11894.25	0.0999800000572577	165	hunger	stimuli/non_foods\non-food_animate_pigeon.jpg	1	2	1	non-food_animate_pigeon	0	L	8	0	136	0		0	0	64.9175974000245	65.0175774000818
11931.75	0.10002299991902	166	hunger	stimuli/foods\rockmelon.jpg	1	2	1	rockmelon	1	H	5	0	262	0		0	0	65.0675996000646	65.1676225999836
11969.25	0.0999596000183374	167	hunger	stimuli/foods\fruit_flan.jpg	1	2	1	fruit_flan	1	C	1	0	53	0		0	0	65.2176172999898	65.3175769000081
12006.75	0.0999862999888137	168	hunger	stimuli/non_foods\non-food_animate_cow.jpg	1	2	1	non-food_animate_cow	0	R	12	0	103	0		0	0	65.3675891000312	65.46757540002
12044.25	0.0999896000139415	169	hunger	stimuli/non_foods\non-food_inanimate_gloves.jpg	1	2	1	non-food_inanimate_gloves	0	N	10	0	183	0		0	0	65.5175881000469	65.6175777000608
12081.75	0.0999833999667317	170	hunger	stimuli/non_foods\non-food_animate_clown.jpg	1	2	1	non-food_animate_clown	0	F	3	0	102	0		0	0	65.6675887000747	65.7675721000414
12119.25	0.100023199920543	171	hunger	stimuli/foods\fried_calamari.jpg	1	2	1	fried_calamari	1	M	9	0	50	0		0	0	65.8175867000828	65.9176099000033
12156.75	0.0999928000383079	172	hunger	stimuli/non_foods\non-food_animate_frog.jpg	1	2	1	non-food_animate_frog	0	L	8	0	113	0		0	0	65.9675896000117	66.06758240005
12194.25	0.09998430009	173	hunger	stimuli/foods\coffee_beans.jpg	1	2	1	coffee_beans	1	K	7	0	34	0		0	0	66.1175844999962	66.2175688000862
12231.75	0.0999673999613151	174	hunger	stimuli/non_foods\non-food_animate_grasshopper.jpg	1	2	1	non-food_animate_grasshopper	0	J	6	0	117	0		0	0	66.267602100037	66.3675694999984
12269.25	0.0999838999705389	175	hunger	stimuli/non_foods\non-food_inanimate_bicycle.jpg	1	2	1	non-food_inanimate_bicycle	0	V	15	0	161	0		0	0	66.4175824000267	66.5175662999973
12306.75	0.0999888000078499	176	hunger	stimuli/foods\eggplant.jpg	1	2	1	eggplant	1	F	3	0	46	0		0	0	66.5675802000333	66.6675690000411
12344.25	0.099982799962163	177	hunger	stimuli/non_foods\non-food_inanimate_cactus_pot_plant.jpg	1	2	1	non-food_inanimate_cactus_pot_plant	0	T	14	0	169	0		0	0	66.7175830000779	66.81756580004
12381.75	0.100032299989834	178	hunger	stimuli/foods\linguine_with_clams.jpg	1	2	1	linguine_with_clams	1	S	13	0	77	0		0	0	66.867556400015	66.9675887000049
12419.25	0.0999523000791669	179	hunger	stimuli/non_foods\non-food_animate_mammoth.jpg	1	2	1	non-food_animate_mammoth	0	R	12	0	128	0		0	0	67.0176102999831	67.1175626000622
12456.75	0.0999862999888137	180	hunger	stimuli/non_foods\non-food_animate_elephant.jpg	1	2	1	non-food_animate_elephant	0	H	5	0	111	0		0	0	67.167574500083	67.2675608000718
12494.25	0.0999825999606401	181	hunger	stimuli/foods\museli_bars.jpg	1	2	1	museli_bars	1	P	11	0	84	0		0	0	67.3175684000598	67.4175510000205
12531.75	0.0999768000328913	182	hunger	stimuli/non_foods\non-food_inanimate_bowling_ball.jpg	1	2	1	non-food_inanimate_bowling_ball	0	D	2	0	162	0		0	0	67.4675618000329	67.5675386000657
12569.25	0.0999795000534505	183	hunger	stimuli/non_foods\non-food_animate_lizard.jpg	1	2	1	non-food_animate_lizard	0	Z	18	0	126	0		0	0	67.6175740000326	67.7175535000861
12606.75	0.0999838999705389	184	hunger	stimuli/non_foods\non-food_inanimate_soccer_ball.jpg	1	2	1	non-food_inanimate_soccer_ball	0	N	10	0	210	0		0	0	67.7675694000209	67.8675532999914
12644.25	0.0999837999697775	185	hunger	stimuli/non_foods\non-food_inanimate_highlighter.jpg	1	2	1	non-food_inanimate_highlighter	0	V	15	0	189	0		0	0	67.9175698000472	68.017553600017
12681.75	0.0999421000014991	186	hunger	stimuli/non_foods\non-food_inanimate_watering_can.jpg	1	2	1	non-food_inanimate_watering_can	0	F	3	0	225	0		0	0	68.0675825000508	68.1675246000523
12719.25	0.0999882000032812	187	hunger	stimuli/non_foods\non-food_inanimate_tent.jpg	1	2	1	non-food_inanimate_tent	0	G	4	0	219	0		0	0	68.2175639000488	68.3175521000521
12756.75	0.0999830999644473	188	hunger	stimuli/foods\blackberry.jpg	1	2	1	blackberry	1	T	14	0	11	0		0	0	68.3675654000835	68.467548500048
12794.25	0.0999849999789149	189	hunger	stimuli/foods\pickles.jpg	1	2	1	pickles	1	G	4	0	242	0		0	0	68.5175634000916	68.6175484000705
12831.75	0.099983400083147	190	hunger	stimuli/non_foods\non-food_inanimate_folding_chair.jpg	1	2	1	non-food_inanimate_folding_chair	0	E	20	1	182	0		0	0	68.6675782999955	68.7675617000787
12869.25	0.099961300031282	191	hunger	stimuli/foods\pasta_carbonara.jpg	1	2	1	pasta_carbonara	1	L	8	0	236	0		0	0	68.8175831000553	68.9175444000866
12906.75	0.0999837000854313	192	hunger	stimuli/foods\beetroots.jpg	1	2	1	beetroots	1	W	16	0	10	0		0	0	68.9675577000016	69.0675414000871
12944.25	0.0999804999446496	193	hunger	stimuli/non_foods\non-food_animate_duck.jpg	1	2	1	non-food_animate_duck	0	M	9	0	109	1	a	0.44329170009587	1	69.1175600000424	69.2175404999871
12981.75	0.0999900000169873	194	hunger	stimuli/non_foods\non-food_inanimate_briefcase.jpg	1	2	1	non-food_inanimate_briefcase	0	V	15	0	163	0		0	0	69.2675505999941	69.3675406000111
13019.25	0.0999840999720618	195	hunger	stimuli/non_foods\non-food_inanimate_rope.jpg	1	2	1	non-food_inanimate_rope	0	G	4	0	204	0		0	0	69.4175538000418	69.5175379000138
13056.75	0.0999597000190988	196	hunger	stimuli/non_foods\non-food_animate_penguin.jpg	1	2	1	non-food_animate_penguin	0	D	2	0	135	0		0	0	69.5675539000658	69.6675136000849
13094.25	0.0999771000351757	197	hunger	stimuli/foods\mushroom.jpg	1	2	1	mushroom	1	K	7	0	85	0		0	0	69.7175423000008	69.817519400036
13131.75	0.0999806000618264	198	hunger	stimuli/foods\cabbage.jpg	1	2	1	cabbage	1	T	14	0	16	0		0	0	69.8675562000135	69.9675368000753
13169.25	0.0999832000816241	199	hunger	stimuli/non_foods\non-food_animate_bat.jpg	1	2	1	non-food_animate_bat	0	N	10	0	94	0		0	0	70.0175507999957	70.1175340000773
13206.75	0.0999795000534505	200	hunger	stimuli/non_foods\non-food_inanimate_buds.jpg	1	2	1	non-food_inanimate_buds	0	T	14	0	166	0		0	0	70.1675490000052	70.2675285000587
13244.25	0.0999818000709638	201	hunger	stimuli/non_foods\non-food_inanimate_horn.jpg	1	2	1	non-food_inanimate_horn	0	X	17	0	190	0		0	0	70.3175432999851	70.4175251000561
13281.75	0.0999937000451609	202	hunger	stimuli/foods\raisins.jpg	1	2	1	raisins	1	G	4	0	252	0		0	0	70.4675283000106	70.5675220000558
13319.25	0.100000399979763	203	hunger	stimuli/foods\kiwi.jpg	1	2	1	kiwi	1	H	5	0	69	0		0	0	70.61752910004	70.7175295000197
13356.75	0.0999842999735847	204	hunger	stimuli/non_foods\non-food_animate_camel.jpg	1	2	1	non-food_animate_camel	0	B	0	0	97	0		0	0	70.7675411000382	70.8675254000118
13394.25	0.0999870999949053	205	hunger	stimuli/non_foods\non-food_animate_ram.jpg	1	2	1	non-food_animate_ram	0	T	14	0	140	0		0	0	70.917539200047	71.0175263000419
13431.75	0.0999813999515027	206	hunger	stimuli/foods\cucumber.jpg	1	2	1	cucumber	1	R	12	0	41	0		0	0	71.0675420000916	71.1675234000431
13469.25	0.0999848999781534	207	hunger	stimuli/foods\chocolate_chip_cookies.jpg	1	2	1	chocolate_chip_cookies	1	X	17	0	27	0		0	0	71.21753610007	71.3175210000481
13506.75	0.0999874999979511	208	hunger	stimuli/foods\potato_chips.jpg	1	2	1	potato_chips	1	B	0	0	247	0		0	0	71.3675342000788	71.4675217000768
13544.25	0.0999861001037061	209	hunger	stimuli/foods\ice_cream.jpg	1	2	1	ice_cream	1	J	6	0	68	0		0	0	71.5175346999895	71.6175208000932
13581.75	0.100012200069614	210	hunger	stimuli/foods\lollies.jpg	1	2	1	lollies	1	D	2	0	78	0		0	0	71.6675327999983	71.7675450000679
13619.25	0.0999801999423653	211	hunger	stimuli/foods\peas.jpg	1	2	1	peas	1	X	17	0	240	0		0	0	71.8175367000513	71.9175168999936
13656.75	0.100008399924263	212	hunger	stimuli/foods\avocado.jpg	1	2	1	avocado	1	E	20	1	5	0		0	0	71.9675068000797	72.067515200004
13694.25	0.0999665999552235	213	hunger	stimuli/non_foods\non-food_animate_rhino.jpg	1	2	1	non-food_animate_rhino	0	X	17	0	141	0		0	0	72.11752910004	72.2174956999952
13731.75	0.0999334999360144	214	hunger	stimuli/non_foods\non-food_inanimate_hay.jpg	1	2	1	non-food_inanimate_hay	0	C	1	0	187	0		0	0	72.2675768000772	72.3675103000132
13769.25	0.0999864999903366	215	hunger	stimuli/foods\hazelnuts.jpg	1	2	1	hazelnuts	1	D	2	0	65	1	a	0.458139599999413	1	72.4175250000553	72.5175115000457
13806.75	0.0999769000336528	216	hunger	stimuli/foods\grapefruits.jpg	1	2	1	grapefruits	1	N	10	0	59	0		0	0	72.5675336000277	72.6675105000613
13844.25	0.0999855999834836	217	hunger	stimuli/non_foods\non-food_inanimate_shell.jpg	1	2	1	non-food_inanimate_shell	0	S	13	0	206	0		0	0	72.7175240000943	72.8175096000778
13881.75	0.0999855000991374	218	hunger	stimuli/non_foods\non-food_animate_ant.jpg	1	2	1	non-food_animate_ant	0	X	17	0	91	0		0	0	72.8675229999935	72.9675085000927
13919.25	0.0999556999886408	219	hunger	stimuli/non_foods\non-food_animate_polar_bear.jpg	1	2	1	non-food_animate_polar_bear	0	D	2	0	137	0		0	0	73.0175215000054	73.117477199994
13956.75	0.099986599991098	220	hunger	stimuli/non_foods\non-food_animate_cheetah.jpg	1	2	1	non-food_animate_cheetah	0	C	1	0	100	0		0	0	73.1675196000142	73.2675062000053
13994.25	0.0999837999697775	221	hunger	stimuli/foods\swordfish.jpg	1	2	1	swordfish	1	J	6	0	273	0		0	0	73.3175192000344	73.4175030000042
14031.75	0.0999861999880522	222	hunger	stimuli/non_foods\non-food_inanimate_scissors.jpg	1	2	1	non-food_inanimate_scissors	0	Z	18	0	205	0		0	0	73.4675144000212	73.5675006000092
14069.25	0.099982799962163	223	hunger	stimuli/foods\chocolate_pralines.jpg	1	2	1	chocolate_pralines	1	S	13	0	28	0		0	0	73.6175166000612	73.7174994000234
14106.75	0.0999880000017583	224	hunger	stimuli/foods\asparagus.jpg	1	2	1	asparagus	1	B	0	0	4	0		0	0	73.7675145000685	73.8675025000703
14144.25	0.100010200054385	225	hunger	stimuli/non_foods\non-food_inanimate_jeans.jpg	1	2	1	non-food_inanimate_jeans	0	F	3	0	191	0		0	0	73.9175159999868	74.0175262000412
14181.75	0.0999381000874564	226	hunger	stimuli/non_foods\non-food_inanimate_chair.jpg	1	2	1	non-food_inanimate_chair	0	V	15	0	172	0		0	0	74.0675594999921	74.1674976000795
14219.25	0.099980500061065	227	hunger	stimuli/foods\spinach.jpg	1	2	1	spinach	1	H	5	0	268	0		0	0	74.2175131000113	74.3174936000723
14256.75	0.0999836000846699	228	hunger	stimuli/foods\croissant.jpg	1	2	1	croissant	1	G	4	0	40	0		0	0	74.3675098000094	74.4674934000941
14294.25	0.0999873999971896	229	hunger	stimuli/foods\baked_lamb_with_potatoes.jpg	1	2	1	baked_lamb_with_potatoes	1	Z	18	0	8	0		0	0	74.5175072000129	74.6174946000101
14331.75	0.0999864999903366	230	hunger	stimuli/foods\lentils.jpg	1	2	1	lentils	1	F	3	0	74	0		0	0	74.6675059000263	74.7674924000166
14369.25	0.0999874999979511	231	hunger	stimuli/foods\fruit_pie.jpg	1	2	1	fruit_pie	1	R	12	0	54	0		0	0	74.8175041000359	74.9174916000338
14406.75	0.0999792999355122	232	hunger	stimuli/foods\raw_sausage.jpg	1	2	1	raw_sausage	1	Z	18	0	254	0		0	0	74.9675061000744	75.0674854000099
14444.25	0.0999658999498934	233	hunger	stimuli/foods\tomato.jpg	1	2	1	tomato	1	L	8	0	276	0		0	0	75.1175185000757	75.2174844000256
14481.75	0.0999700999818742	234	hunger	stimuli/non_foods\non-food_animate_snail.jpg	1	2	1	non-food_animate_snail	0	G	4	0	149	0		0	0	75.2675132000586	75.3674833000405
14519.25	0.0999799999408424	235	hunger	stimuli/non_foods\non-food_animate_giraffe.jpg	1	2	1	non-food_animate_giraffe	0	S	13	0	115	0		0	0	75.4174952000612	75.5174752000021
14556.75	0.0999826999614015	236	hunger	stimuli/foods\clams.jpg	1	2	1	clams	1	H	5	0	32	0		0	0	75.5674906000495	75.6674733000109
14594.25	0.0999931000405923	237	hunger	stimuli/foods\roasted_chicken.jpg	1	2	1	roasted_chicken	1	J	6	0	261	0		0	0	75.7174967000028	75.8174898000434
14631.75	0.0999561999924481	238	hunger	stimuli/non_foods\non-food_animate_chicken.jpg	1	2	1	non-food_animate_chicken	0	H	5	0	101	0		0	0	75.8674969000276	75.9674531000201
14669.25	0.0999866999918595	239	hunger	stimuli/foods\cherry.jpg	1	2	1	cherry	1	L	8	0	23	0		0	0	76.0174922000151	76.117478900007
14706.75	0.0999632000457495	240	hunger	stimuli/foods\stew_with_potatoes_and_carrots.jpg	1	2	1	stew_with_potatoes_and_carrots	1	M	9	0	271	0		0	0	76.1674915000331	76.2674547000788
14744.25	0.100000100093894	241	hunger	stimuli/foods\toasted_bread_with_tomatoes.jpg	1	2	1	toasted_bread_with_tomatoes	1	V	15	0	275	0		0	0	76.3174675999908	76.4174677000847
14781.75	0.0999845999758691	242	hunger	stimuli/foods\lime.jpg	1	2	1	lime	1	X	17	0	76	0		0	0	76.4674856000347	76.5674702000106
14819.25	0.0999859999865294	243	hunger	stimuli/non_foods\non-food_animate_raccoon.jpg	1	2	1	non-food_animate_raccoon	0	D	2	0	139	0		0	0	76.6174790000077	76.7174649999943
14856.75	0.0999863999895751	244	hunger	stimuli/non_foods\non-food_animate_eagle.jpg	1	2	1	non-food_animate_eagle	0	M	9	0	110	0		0	0	76.7674793000333	76.8674657000229
14894.25	0.0999879000009969	245	hunger	stimuli/foods\taco.jpg	1	2	1	taco	1	B	0	0	274	0		0	0	76.9174815000733	77.0174694000743
14931.75	0.0999832000816241	246	hunger	stimuli/foods\onion.jpg	1	2	1	onion	1	K	7	0	229	0		0	0	77.0674822999863	77.1674655000679
14969.25	0.0999870999949053	247	hunger	stimuli/foods\pineapple.jpg	1	2	1	pineapple	1	B	0	0	243	0		0	0	77.2174825000111	77.317469600006
15006.75	0.0999839999713004	248	hunger	stimuli/foods\coconut.jpg	1	2	1	coconut	1	S	13	0	33	0		0	0	77.367481400026	77.4674653999973
15044.25	0.100012300070375	249	hunger	stimuli/non_foods\non-food_inanimate_construction_helment.jpg	1	2	1	non-food_inanimate_construction_helment	0	K	7	0	175	0		0	0	77.5174883999862	77.6175007000566
15081.75	0.0999694999773055	250	hunger	stimuli/non_foods\non-food_animate_green_bug.jpg	1	2	1	non-food_animate_green_bug	0	V	15	0	118	0		0	0	77.6674941000529	77.7674636000302
15119.25	0.0999851999804378	251	hunger	stimuli/non_foods\non-food_inanimate_stoplight.jpg	1	2	1	non-food_inanimate_stoplight	0	L	8	0	214	0		0	0	77.8174762000563	77.9174614000367
15156.75	0.0999841999728233	252	hunger	stimuli/non_foods\non-food_inanimate_protractor.jpg	1	2	1	non-food_inanimate_protractor	0	M	9	0	201	0		0	0	77.9674775000894	78.0674617000623
15194.25	0.0999818999553099	253	hunger	stimuli/non_foods\non-food_inanimate_grass.jpg	1	2	1	non-food_inanimate_grass	0	L	8	0	184	0		0	0	78.1174745000899	78.2174564000452
15231.75	0.0999808000633493	254	hunger	stimuli/non_foods\non-food_animate_dragonfly.jpg	1	2	1	non-food_animate_dragonfly	0	R	12	0	108	0		0	0	78.2674766000127	78.3674574000761
15269.25	0.0999803999438882	255	hunger	stimuli/foods\mandarin.jpg	1	2	1	mandarin	1	S	13	0	79	0		0	0	78.4174780000467	78.5174583999906
15306.75	0.0999837999697775	256	hunger	stimuli/foods\cream_donuts.jpg	1	2	1	cream_donuts	1	K	7	0	39	0		0	0	78.5674706000136	78.6674543999834
15344.25	0.0999762999126688	257	hunger	stimuli/non_foods\non-food_animate_bee.jpg	1	2	1	non-food_animate_bee	0	V	15	0	95	0		0	0	78.7174780000933	78.8174543000059
15381.75	0.099981699953787	258	hunger	stimuli/non_foods\non-food_animate_cat.jpg	1	2	1	non-food_animate_cat	0	B	0	0	98	0		0	0	78.8674703000579	78.9674520000117
15419.25	0.0999842999735847	259	hunger	stimuli/foods\chestnut.jpg	1	2	1	chestnut	1	H	5	0	24	0		0	0	79.0174653000431	79.1174496000167
15456.75	0.0999857999850065	260	hunger	stimuli/foods\red_cabbage.jpg	1	2	1	red_cabbage	1	N	10	0	256	0		0	0	79.1674674000824	79.2674532000674
15494.25	0.0999939000466838	261	hunger	stimuli/non_foods\non-food_animate_donkey.jpg	1	2	1	non-food_animate_donkey	0	F	3	0	107	0		0	0	79.3174714000197	79.4174653000664
15531.75	0.0999542999779806	262	hunger	stimuli/foods\spaghetti_with_meat_sauce.jpg	1	2	1	spaghetti_with_meat_sauce	1	C	1	0	267	0		0	0	79.4674921000842	79.5674464000622
15569.25	0.0999778000405058	263	hunger	stimuli/foods\watermelon.jpg	1	2	1	watermelon	1	Z	18	0	279	0		0	0	79.6174621999962	79.7174400000367
15606.75	0.0999884000048041	264	hunger	stimuli/non_foods\non-food_animate_swan.jpg	1	2	1	non-food_animate_swan	0	W	16	0	152	0		0	0	79.7674529000651	79.8674413000699
15644.25	0.0999600999057293	265	hunger	stimuli/non_foods\non-food_animate_mouse.jpg	1	2	1	non-food_animate_mouse	0	P	11	0	131	0		0	0	79.9174823000794	80.0174423999852
15681.75	0.0999872999964282	266	hunger	stimuli/non_foods\non-food_animate_caterpillar.jpg	1	2	1	non-food_animate_caterpillar	0	S	13	0	99	0		0	0	80.0674537000014	80.1674409999978
15719.25	0.0999866999918595	267	hunger	stimuli/foods\red_beans.jpg	1	2	1	red_beans	1	M	9	0	255	0		0	0	80.2174559000414	80.3174426000332
15756.75	0.100005300017074	268	hunger	stimuli/non_foods\non-food_animate_sea_lion.jpg	1	2	1	non-food_animate_sea_lion	0	P	11	0	143	0		0	0	80.3674551000586	80.4674604000757
15794.25	0.0999667999567464	269	hunger	stimuli/non_foods\non-food_animate_millipede.jpg	1	2	1	non-food_animate_millipede	0	W	16	0	129	0		0	0	80.5174688000698	80.6174356000265
15831.75	0.0999857999850065	270	hunger	stimuli/non_foods\non-food_animate_young_girl.jpg	1	2	1	non-food_animate_young_girl	0	D	2	0	157	0		0	0	80.6674499000655	80.7674357000506
15869.25	0.0999809000641108	271	hunger	stimuli/foods\chilli.jpg	1	2	1	chilli	1	B	0	0	25	0		0	0	80.8174522999907	80.9174332000548
15906.75	0.0999868001090363	272	hunger	stimuli/non_foods\non-food_animate_hummingbird.jpg	1	2	1	non-food_animate_hummingbird	0	F	3	0	120	0		0	0	80.9674485999858	81.0674354000948
15944.25	0.0999833999667317	273	hunger	stimuli/non_foods\non-food_inanimate_desk.jpg	1	2	1	non-food_inanimate_desk	0	B	0	0	178	1	a	0	0	81.1174500000197	81.2174333999865
15981.75	0.0999588000122458	274	hunger	stimuli/foods\waffle.jpg	1	2	1	waffle	1	M	9	0	278	0		0	0	81.2674493000377	81.3674081000499
16019.25	0.0999871999956667	275	hunger	stimuli/foods\pancakes.jpg	1	2	1	pancakes	1	P	11	0	234	0		0	0	81.4174434000161	81.5174306000117
16056.75	0.0999781999271363	276	hunger	stimuli/non_foods\non-food_animate_baby_crawling.jpg	1	2	1	non-food_animate_baby_crawling	0	Z	18	0	92	0		0	0	81.5674475000706	81.6674256999977
16094.25	0.0999828999629244	277	hunger	stimuli/non_foods\non-food_animate_baby_sitting.jpg	1	2	1	non-food_animate_baby_sitting	0	G	4	0	93	0		0	0	81.7174436000641	81.8174265000271
16131.75	0.0999781000427902	278	hunger	stimuli/foods\mortadella.jpg	1	2	1	mortadella	1	V	15	0	83	0		0	0	81.867447800003	81.9674259000458
16169.25	0.0999841999728233	279	hunger	stimuli/foods\frankfurter_and_provolone_salad.jpg	1	2	1	frankfurter_and_provolone_salad	1	D	2	0	49	0		0	0	82.017439300078	82.1174235000508
18086	0.0999780000420287	280	hunger	stimuli/non_foods\non-food_inanimate_bowling_ball.jpg	1	3	1	non-food_inanimate_bowling_ball	0	W	16	0	162	0		0	0	89.6840433999896	89.7840214000316
18123.5	0.0999810999492183	281	hunger	stimuli/non_foods\non-food_animate_Causasian_man.jpg	1	3	1	non-food_animate_Causasian_man	0	F	3	0	89	0		0	0	89.8340363000752	89.9340174000245
18161	0.0999818999553099	282	hunger	stimuli/foods\potatoes.jpg	1	3	1	potatoes	1	H	5	0	248	0		0	0	89.9840297000483	90.0840116000036
18198.5	0.0999896000139415	283	hunger	stimuli/foods\rockmelon.jpg	1	3	1	rockmelon	1	X	17	0	262	0		0	0	90.1340203	90.2340099000139
18236	0.100011400063522	284	hunger	stimuli/non_foods\non-food_animate_raccoon.jpg	1	3	1	non-food_animate_raccoon	0	J	6	0	139	0		0	0	90.2840164999943	90.3840279000578
18273.5	0.0999735000077635	285	hunger	stimuli/non_foods\non-food_inanimate_hammer.jpg	1	3	1	non-food_inanimate_hammer	0	W	16	0	186	0		0	0	90.4340312000131	90.5340047000209
18311	0.0999763999134302	286	hunger	stimuli/foods\prawn.jpg	1	3	1	prawn	1	M	9	0	249	0		0	0	90.5840212000767	90.6839975999901
18348.5	0.100004500010982	287	hunger	stimuli/foods\grapes.jpg	1	3	1	grapes	1	C	1	0	60	0		0	0	90.7340071999934	90.8340117000043
18386	0.0999925000360236	288	hunger	stimuli/non_foods\non-food_animate_owl.jpg	1	3	1	non-food_animate_owl	0	V	15	0	132	0		0	0	90.8840239000274	90.9840164000634
18423.5	0.0999801000580192	289	hunger	stimuli/foods\raw_sausage.jpg	1	3	1	raw_sausage	1	Z	18	0	254	0		0	0	91.0340313999914	91.1340115000494
18461	0.0999841999728233	290	hunger	stimuli/foods\oven-roasted_tomatoes.jpg	1	3	1	oven-roasted_tomatoes	1	F	3	0	232	0		0	0	91.1840223000618	91.2840065000346
18498.5	0.0999905000207946	291	hunger	stimuli/non_foods\non-food_inanimate_fire_extinguisher.jpg	1	3	1	non-food_inanimate_fire_extinguisher	0	D	2	0	181	0		0	0	91.3340200000675	91.4340105000883
18536	0.0999842999735847	292	hunger	stimuli/non_foods\non-food_inanimate_sun_flower.jpg	1	3	1	non-food_inanimate_sun_flower	0	B	0	0	216	0		0	0	91.4840197000885	91.5840040000621
18573.5	0.0999891000101343	293	hunger	stimuli/non_foods\non-food_animate_student_female.jpg	1	3	1	non-food_animate_student_female	0	M	9	0	151	0		0	0	91.6340143000707	91.7340034000808
18611	0.099986300105229	294	hunger	stimuli/foods\risotto_with_zucchini.jpg	1	3	1	risotto_with_zucchini	1	X	17	0	260	0		0	0	91.7840151999844	91.8840015000897
18648.5	0.0999840999720618	295	hunger	stimuli/foods\pork_and_rice.jpg	1	3	1	pork_and_rice	1	F	3	0	245	0		0	0	91.9340194000397	92.0340035000117
18686	0.100004500010982	296	hunger	stimuli/non_foods\non-food_animate_deer.jpg	1	3	1	non-food_animate_deer	0	J	6	0	105	0		0	0	92.0840102999937	92.1840148000047
18723.5	0.0999831999652088	297	hunger	stimuli/foods\pea_pod.jpg	1	3	1	pea_pod	1	W	16	0	237	0		0	0	92.2340144000482	92.3339976000134
18761	0.099987699999474	298	hunger	stimuli/non_foods\non-food_animate_bee.jpg	1	3	1	non-food_animate_bee	0	F	3	0	95	0		0	0	92.3840112000471	92.4839989000466
18798.5	0.0999918000306934	299	hunger	stimuli/non_foods\non-food_inanimate_socks.jpg	1	3	1	non-food_inanimate_socks	0	L	8	0	211	0		0	0	92.5340160999913	92.634007900022
18836	0.100015900097787	300	hunger	stimuli/foods\spaghetti_with_meat_sauce.jpg	1	3	1	spaghetti_with_meat_sauce	1	T	14	0	267	0		0	0	92.6840124999871	92.7840284000849
18873.5	0.100007700035349	301	hunger	stimuli/non_foods\non-food_inanimate_bed.jpg	1	3	1	non-food_inanimate_bed	0	X	17	0	160	0		0	0	92.8340090999845	92.9340168000199
18911	0.0999933999264613	302	hunger	stimuli/non_foods\non-food_inanimate_nettle.jpg	1	3	1	non-food_inanimate_nettle	0	U	23	1	197	0		0	0	92.984000400058	93.0839937999845
18948.5	0.0999861999880522	303	hunger	stimuli/non_foods\non-food_animate_young_girl.jpg	1	3	1	non-food_animate_young_girl	0	L	8	0	157	0		0	0	93.1340042999946	93.2339904999826
18986	0.0999902000185102	304	hunger	stimuli/foods\rice.jpg	1	3	1	rice	1	T	14	0	257	0		0	0	93.2839998999843	93.3839901000028
19023.5	0.100000499980524	305	hunger	stimuli/non_foods\non-food_inanimate_tulip.jpg	1	3	1	non-food_inanimate_tulip	0	B	0	0	224	1	a	0.443241899949498	1	93.433991100057	93.5339916000376
19061	0.0999912000261247	306	hunger	stimuli/non_foods\non-food_inanimate_moss.jpg	1	3	1	non-food_inanimate_moss	0	Z	18	0	194	0		0	0	93.5839933999814	93.6839846000075
19098.5	0.0999846999766305	307	hunger	stimuli/non_foods\non-food_inanimate_headphones.jpg	1	3	1	non-food_inanimate_headphones	0	H	5	0	188	0		0	0	93.7340028000763	93.8339875000529
19136	0.0999843999743462	308	hunger	stimuli/foods\raisins.jpg	1	3	1	raisins	1	V	15	0	252	0		0	0	93.8839983000653	93.9839827000396
19173.5	0.0999868999933824	309	hunger	stimuli/foods\risotto_with_peas_and_asparagus_tips.jpg	1	3	1	risotto_with_peas_and_asparagus_tips	1	T	14	0	259	0		0	0	94.0339968000771	94.1339837000705
19211	0.0999891000101343	310	hunger	stimuli/non_foods\non-food_inanimate_suitcase.jpg	1	3	1	non-food_inanimate_suitcase	0	V	15	0	215	0		0	0	94.1839975999901	94.2839867000002
19248.5	0.0999867001082748	311	hunger	stimuli/non_foods\non-food_inanimate_lighter.jpg	1	3	1	non-food_inanimate_lighter	0	J	6	0	193	0		0	0	94.3339940999867	94.433980800095
19286	0.100003800005652	312	hunger	stimuli/non_foods\non-food_animate_grasshopper.jpg	1	3	1	non-food_animate_grasshopper	0	N	10	0	117	0		0	0	94.4839935000055	94.5839973000111
19323.5	0.0999398999847472	313	hunger	stimuli/non_foods\non-food_animate_dachshund.jpg	1	3	1	non-food_animate_dachshund	0	B	0	0	104	0		0	0	94.6340379000176	94.7339778000023
19361	0.100006200023927	314	hunger	stimuli/foods\cracker.jpg	1	3	1	cracker	1	X	17	0	38	0		0	0	94.7839644000633	94.8839706000872
19398.5	0.0999821999575943	315	hunger	stimuli/foods\egg.jpg	1	3	1	egg	1	T	14	0	45	0		0	0	94.9339924000669	95.0339746000245
19436	0.0999875999987125	316	hunger	stimuli/non_foods\non-food_inanimate_speakers.jpg	1	3	1	non-food_inanimate_speakers	0	C	1	0	212	0		0	0	95.0839840000262	95.183971600025
19473.5	0.0999852999811992	317	hunger	stimuli/non_foods\non-food_inanimate_waterlily.jpg	1	3	1	non-food_inanimate_waterlily	0	X	17	0	226	0		0	0	95.2339852000587	95.3339705000399
19511	0.0999850999796763	318	hunger	stimuli/non_foods\non-food_inanimate_jeans.jpg	1	3	1	non-food_inanimate_jeans	0	T	14	0	191	0		0	0	95.3839850000804	95.4839701000601
19548.5	0.0999848999781534	319	hunger	stimuli/foods\radish.jpg	1	3	1	radish	1	R	12	0	251	0		0	0	95.5339831000892	95.6339680000674
19586	0.099959599901922	320	hunger	stimuli/foods\green_olives.jpg	1	3	1	green_olives	1	F	3	0	62	0		0	0	95.6840109000914	95.7839704999933
19623.5	0.0999824999598786	321	hunger	stimuli/non_foods\non-food_animate_swan.jpg	1	3	1	non-food_animate_swan	0	G	4	0	152	0		0	0	95.8339833000209	95.9339657999808
19661	0.0999881000025198	322	hunger	stimuli/non_foods\non-food_animate_tortoise.jpg	1	3	1	non-food_animate_tortoise	0	J	6	0	153	0		0	0	95.9839793000137	96.0839674000163
19698.5	0.099983699969016	323	hunger	stimuli/foods\stew_with_potatoes_and_carrots.jpg	1	3	1	stew_with_potatoes_and_carrots	1	W	16	0	271	0		0	0	96.1339809000492	96.2339646000182
19736	0.100006700027734	324	hunger	stimuli/non_foods\non-food_inanimate_briefcase.jpg	1	3	1	non-food_inanimate_briefcase	0	B	0	0	163	0		0	0	96.2839778000489	96.3839845000766
19773.5	0.0999636000487953	325	hunger	stimuli/non_foods\non-food_animate_baby_sitting.jpg	1	3	1	non-food_animate_baby_sitting	0	W	16	0	93	0		0	0	96.4340003000107	96.5339639000595
19811	0.0999769999179989	326	hunger	stimuli/non_foods\non-food_animate_runner.jpg	1	3	1	non-food_animate_runner	0	N	10	0	142	0		0	0	96.5839741000673	96.6839510999853
19848.5	0.0999849999789149	327	hunger	stimuli/non_foods\non-food_animate_monkey.jpg	1	3	1	non-food_animate_monkey	0	M	9	0	130	0		0	0	96.733963000006	96.833947999985
19886	0.100007299915887	328	hunger	stimuli/foods\oyster.jpg	1	3	1	oyster	1	X	17	0	233	0		0	0	96.8839534000726	96.9839606999885
19923.5	0.09998430009	329	hunger	stimuli/foods\lollies.jpg	1	3	1	lollies	1	H	5	0	78	0		0	0	97.0339691999834	97.1339535000734
19961	0.0999839999713004	330	hunger	stimuli/foods\linguine_with_clams.jpg	1	3	1	linguine_with_clams	1	K	7	0	77	0		0	0	97.1839703000151	97.2839542999864
19998.5	0.0999851999804378	331	hunger	stimuli/non_foods\non-food_inanimate_couch.jpg	1	3	1	non-food_inanimate_couch	0	D	2	0	176	0		0	0	97.3339687000262	97.4339539000066
20036	0.099984799977392	332	hunger	stimuli/non_foods\non-food_inanimate_short_sleeved_shirt.jpg	1	3	1	non-food_inanimate_short_sleeved_shirt	0	V	15	0	207	0		0	0	97.4839662000304	97.5839510000078
20073.5	0.0999835999682546	333	hunger	stimuli/non_foods\non-food_inanimate_cap.jpg	1	3	1	non-food_inanimate_cap	0	J	6	0	171	0		0	0	97.6339691000758	97.733952700044
20111	0.0999824999598786	334	hunger	stimuli/non_foods\non-food_animate_pigeon.jpg	1	3	1	non-food_animate_pigeon	0	L	8	0	136	0		0	0	97.783964100061	97.8839466000209
20148.5	0.0999866999918595	335	hunger	stimuli/non_foods\non-food_inanimate_scissors.jpg	1	3	1	non-food_inanimate_scissors	0	Z	18	0	205	0		0	0	97.9339611000614	98.0339478000533
20186	0.100003200001083	336	hunger	stimuli/non_foods\non-food_animate_young_boy.jpg	1	3	1	non-food_animate_young_boy	0	P	11	0	156	0		0	0	98.0839667000109	98.183969900012
20223.5	0.0999444000190124	337	hunger	stimuli/foods\pineapple.jpg	1	3	1	pineapple	1	F	3	0	243	0		0	0	98.2339971000329	98.3339415000519
20261	0.0999971999553964	338	hunger	stimuli/foods\spinach.jpg	1	3	1	spinach	1	V	15	0	268	0		0	0	98.3839514000574	98.4839486000128
20298.5	0.099973600008525	339	hunger	stimuli/non_foods\non-food_animate_polar_bear.jpg	1	3	1	non-food_animate_polar_bear	0	T	14	0	137	0		0	0	98.5339604000328	98.6339340000413
20336	0.0999854999827221	340	hunger	stimuli/foods\lemon.jpg	1	3	1	lemon	1	J	6	0	72	0		0	0	98.6839469000697	98.7839324000524
20373.5	0.0999850000953302	341	hunger	stimuli/non_foods\non-food_inanimate_teddy_bear.jpg	1	3	1	non-food_inanimate_teddy_bear	0	V	15	0	218	0		0	0	98.833947999985	98.9339330000803
20411	0.0999856000998989	342	hunger	stimuli/non_foods\non-food_animate_baby_crawling.jpg	1	3	1	non-food_animate_baby_crawling	0	M	9	0	92	0		0	0	98.9839450999862	99.0839307000861
20448.5	0.0999883000040427	343	hunger	stimuli/foods\mushroom.jpg	1	3	1	mushroom	1	C	1	0	85	0		0	0	99.1339417999843	99.2339300999884
20486	0.0999871999956667	344	hunger	stimuli/non_foods\non-food_inanimate_stapler.jpg	1	3	1	non-food_inanimate_stapler	0	K	7	0	213	0		0	0	99.2839418000076	99.3839290000033
20523.5	0.0999937000451609	345	hunger	stimuli/non_foods\non-food_animate_giraffe.jpg	1	3	1	non-food_animate_giraffe	0	J	6	0	115	0		0	0	99.43394300004	99.5339367000852
20561	0.0999826000770554	346	hunger	stimuli/non_foods\non-food_inanimate_chair.jpg	1	3	1	non-food_inanimate_chair	0	X	17	0	172	0		0	0	99.5839513000101	99.6839339000871
20598.5	0.0999887000070885	347	hunger	stimuli/non_foods\non-food_inanimate_skirt.jpg	1	3	1	non-food_inanimate_skirt	0	M	9	0	209	0		0	0	99.733945999993	99.8339347000001
20636	0.0999882000032812	348	hunger	stimuli/foods\cereal.jpg	1	3	1	cereal	1	G	4	0	22	0		0	0	99.8839723999845	99.9839605999878
20673.5	0.099965599947609	349	hunger	stimuli/foods\eggplant.jpg	1	3	1	eggplant	1	C	1	0	46	0		0	0	100.033965100069	100.133930700016
20711	0.0999861999880522	350	hunger	stimuli/foods\chocolate_pralines.jpg	1	3	1	chocolate_pralines	1	N	10	0	28	0		0	0	100.183940300019	100.283926500008
20748.5	0.0999829999636859	351	hunger	stimuli/foods\gnocchi.jpg	1	3	1	gnocchi	1	M	9	0	58	0		0	0	100.333943800069	100.433926800033
20786	0.0999792999355122	352	hunger	stimuli/foods\rice_cake.jpg	1	3	1	rice_cake	1	H	5	0	258	0		0	0	100.483941200073	100.583920500008
20823.5	0.099985699984245	353	hunger	stimuli/non_foods\non-food_inanimate_bucket.jpg	1	3	1	non-food_inanimate_bucket	0	T	14	0	165	0		0	0	100.63393780007	100.733923500055
20861	0.0999824000755325	354	hunger	stimuli/foods\hamburger.jpg	1	3	1	hamburger	1	X	17	0	64	0		0	0	100.783939999994	100.883922400069
20898.5	0.0999989000847563	355	hunger	stimuli/foods\fries.jpg	1	3	1	fries	1	T	14	0	52	0		0	0	100.933935399982	101.033934300067
20936	0.0999851000960916	356	hunger	stimuli/foods\chilli.jpg	1	3	1	chilli	1	P	11	0	25	0		0	0	101.083934399998	101.183919500094
20973.5	0.0999826999614015	357	hunger	stimuli/non_foods\non-food_animate_frog.jpg	1	3	1	non-food_animate_frog	0	G	4	0	113	0		0	0	101.233934700023	101.333917399985
21011	0.0999841999728233	358	hunger	stimuli/foods\baked_lamb_with_potatoes.jpg	1	3	1	baked_lamb_with_potatoes	1	E	20	1	8	0		0	0	101.38393250003	101.483916700003
21048.5	0.0999925000360236	359	hunger	stimuli/foods\oregano.jpg	1	3	1	oregano	1	P	11	0	231	0		0	0	101.533929800033	101.633922300069
21086	0.0999562999932095	360	hunger	stimuli/foods\red_cabbage.jpg	1	3	1	red_cabbage	1	B	0	0	256	0		0	0	101.683952699997	101.783908999991
21123.5	0.0999868999933824	361	hunger	stimuli/foods\omelette.jpg	1	3	1	omelette	1	W	16	0	228	1	a	0.541827299981378	1	101.833926800056	101.93391370005
21161	0.0999883000040427	362	hunger	stimuli/foods\cooked_prawn.jpg	1	3	1	cooked_prawn	1	M	9	0	36	0		0	0	101.983923800057	102.083912100061
21198.5	0.0999844999751076	363	hunger	stimuli/foods\artichoke.jpg	1	3	1	artichoke	1	X	17	0	3	0		0	0	102.133925000089	102.233909500064
21236	0.0999891000101343	364	hunger	stimuli/foods\potato_chips.jpg	1	3	1	potato_chips	1	K	7	0	247	0		0	0	102.283923799987	102.383912899997
21273.5	0.099976500030607	365	hunger	stimuli/foods\baked_cod_with_carrots_and_green_beans.jpg	1	3	1	baked_cod_with_carrots_and_green_beans	1	N	10	0	7	0		0	0	102.433927300037	102.533903800067
21311	0.0999855999834836	366	hunger	stimuli/foods\peas.jpg	1	3	1	peas	1	T	14	0	240	0		0	0	102.583919099998	102.683904699981
21348.5	0.0999875999987125	367	hunger	stimuli/foods\mango.jpg	1	3	1	mango	1	K	7	0	80	0		0	0	102.733918200014	102.833905800013
21386	0.0999824999598786	368	hunger	stimuli/foods\frankfurter_and_provolone_salad.jpg	1	3	1	frankfurter_and_provolone_salad	1	P	11	0	49	0		0	0	102.883921300061	102.983903800021
21423.5	0.0999883000040427	369	hunger	stimuli/foods\chocolate_chip_cookies.jpg	1	3	1	chocolate_chip_cookies	1	B	0	0	27	0		0	0	103.033914800035	103.133903100039
21461	0.099982799962163	370	hunger	stimuli/non_foods\non-food_animate_cat.jpg	1	3	1	non-food_animate_cat	0	T	14	0	98	0		0	0	103.183916100068	103.28389890003
21498.5	0.100009199930355	371	hunger	stimuli/non_foods\non-food_inanimate_gloves.jpg	1	3	1	non-food_inanimate_gloves	0	V	15	0	183	0		0	0	103.333913100068	103.433922299999
21536	0.0999795000534505	372	hunger	stimuli/foods\waffle.jpg	1	3	1	waffle	1	L	8	0	278	0		0	0	103.483920400031	103.583899900084
21573.5	0.0999628000427037	373	hunger	stimuli/foods\strawberry.jpg	1	3	1	strawberry	1	M	9	0	272	0		0	0	103.633915800019	103.733878600062
21611	0.0999826000770554	374	hunger	stimuli/non_foods\non-food_inanimate_soccer_ball.jpg	1	3	1	non-food_inanimate_soccer_ball	0	H	5	0	210	0		0	0	103.783911200007	103.883893800084
21648.5	0.0999958000611514	375	hunger	stimuli/foods\lemon_meringue_pie.jpg	1	3	1	lemon_meringue_pie	1	C	1	0	73	0		0	0	103.933909200015	104.033905000077
21686	0.0999843999743462	376	hunger	stimuli/foods\brownie.jpg	1	3	1	brownie	1	F	3	0	14	0		0	0	104.08390810003	104.183892500005
21723.5	0.099987699999474	377	hunger	stimuli/non_foods\non-food_inanimate_button.jpg	1	3	1	non-food_inanimate_button	0	H	5	0	168	0		0	0	104.233903400018	104.333891100017
21761	0.0999851999804378	378	hunger	stimuli/foods\bagel.jpg	1	3	1	bagel	1	G	4	0	6	0		0	0	104.383906600066	104.483891800046
21798.5	0.0999907000223175	379	hunger	stimuli/foods\fennel.jpg	1	3	1	fennel	1	X	17	0	47	0		0	0	104.533899900038	104.63389060006
21836	0.099982799962163	380	hunger	stimuli/foods\ginger_root.jpg	1	3	1	ginger_root	1	P	11	0	57	0		0	0	104.683901600074	104.783884400036
21873.5	0.0999822000740096	381	hunger	stimuli/non_foods\non-food_animate_ram.jpg	1	3	1	non-food_animate_ram	0	J	6	0	140	0		0	0	104.833902599989	104.933884800063
21911	0.0999874999979511	382	hunger	stimuli/foods\fruit_flan.jpg	1	3	1	fruit_flan	1	Z	18	0	53	0		0	0	104.983898200095	105.083885700093
21948.5	0.100008400040679	383	hunger	stimuli/non_foods\non-food_animate_seahorse.jpg	1	3	1	non-food_animate_seahorse	0	M	9	0	145	0		0	0	105.133901700028	105.233910100069
21986	0.0999434000113979	384	hunger	stimuli/non_foods\non-food_inanimate_pine_cone.jpg	1	3	1	non-food_inanimate_pine_cone	0	P	11	0	200	0		0	0	105.283940099995	105.383883500006
22023.5	0.0999863999895751	385	hunger	stimuli/foods\meatballs.jpg	1	3	1	meatballs	1	C	1	0	81	0		0	0	105.433894600021	105.53388100001
22061	0.0999841999728233	386	hunger	stimuli/foods\lamb_chops.jpg	1	3	1	lamb_chops	1	G	4	0	70	0		0	0	105.583893800038	105.683878000011
22098.5	0.0999857999850065	387	hunger	stimuli/foods\almonds.jpg	1	3	1	almonds	1	L	8	0	0	0		0	0	105.733891600044	105.833877400029
22136	0.0999802999431267	388	hunger	stimuli/foods\green_beans.jpg	1	3	1	green_beans	1	X	17	0	61	0		0	0	105.883894200088	105.983874500031
22173.5	0.0999744000146165	389	hunger	stimuli/foods\pomegranate.jpg	1	3	1	pomegranate	1	C	1	0	244	0		0	0	106.033890400082	106.133864800096
22211	0.0999711999902502	390	hunger	stimuli/foods\asparagus.jpg	1	3	1	asparagus	1	L	8	0	4	0		0	0	106.18388180004	106.28385300003
22248.5	0.0999660000670701	391	hunger	stimuli/non_foods\non-food_animate_clown.jpg	1	3	1	non-food_animate_clown	0	R	12	0	102	0		0	0	106.333905600011	106.433871600078
22286	0.0999821000732481	392	hunger	stimuli/non_foods\non-food_animate_porcupine.jpg	1	3	1	non-food_animate_porcupine	0	K	7	0	138	0		0	0	106.483886200003	106.583868300077
22323.5	0.099973600008525	393	hunger	stimuli/non_foods\non-food_animate_dragonfly.jpg	1	3	1	non-food_animate_dragonfly	0	Z	18	0	108	0		0	0	106.633896399988	106.733869999996
22361	0.0999838999705389	394	hunger	stimuli/foods\pear.jpg	1	3	1	pear	1	J	6	0	239	0		0	0	106.783885000041	106.883868900011
22398.5	0.100016299984418	395	hunger	stimuli/foods\watermelon.jpg	1	3	1	watermelon	1	H	5	0	279	0		0	0	106.93388710008	107.033903400064
22436	0.0999612000305206	396	hunger	stimuli/non_foods\non-food_inanimate_orchid.jpg	1	3	1	non-food_inanimate_orchid	0	K	7	0	198	0		0	0	107.083904400002	107.183865600033
22473.5	0.099980799946934	397	hunger	stimuli/non_foods\non-food_animate_Asian_man.jpg	1	3	1	non-food_animate_Asian_man	0	C	1	0	88	0		0	0	107.233879600069	107.333860400016
22511	0.0999909000238404	398	hunger	stimuli/foods\potato_and_green_bean_salad.jpg	1	3	1	potato_and_green_bean_salad	1	H	5	0	246	0		0	0	107.383875900065	107.483866800088
22548.5	0.0999789000488818	399	hunger	stimuli/foods\celery.jpg	1	3	1	celery	1	T	14	0	21	0		0	0	107.533878799994	107.633857700042
22586	0.100006800028495	400	hunger	stimuli/non_foods\non-food_animate_caterpillar.jpg	1	3	1	non-food_animate_caterpillar	0	G	4	0	99	0		0	0	107.683850600035	107.783857400063
22623.5	0.0999932000413537	401	hunger	stimuli/non_foods\non-food_inanimate_chandelier.jpg	1	3	1	non-food_inanimate_chandelier	0	T	14	0	173	1	a	0	0	107.833874200005	107.933867400046
22661	0.0999961999477819	402	hunger	stimuli/non_foods\non-food_animate_butterfly.jpg	1	3	1	non-food_animate_butterfly	0	V	15	0	96	0		0	0	107.983865000075	108.083861200023
22698.5	0.0999699999811128	403	hunger	stimuli/foods\lasagna.jpg	1	3	1	lasagna	1	B	0	0	71	0		0	0	108.13387140003	108.233841400011
22736	0.0999825999606401	404	hunger	stimuli/non_foods\non-food_inanimate_highlighter.jpg	1	3	1	non-food_inanimate_highlighter	0	M	9	0	189	0		0	0	108.283869200037	108.383851799998
22773.5	0.0999830999644473	405	hunger	stimuli/non_foods\non-food_inanimate_tent.jpg	1	3	1	non-food_inanimate_tent	0	Z	18	0	219	0		0	0	108.433868400054	108.533851500018
22811	0.0999713999917731	406	hunger	stimuli/non_foods\non-food_animate_skunk.jpg	1	3	1	non-food_animate_skunk	0	J	6	0	147	0		0	0	108.583869400085	108.683840800077
22848.5	0.100009000045247	407	hunger	stimuli/foods\lentils.jpg	1	3	1	lentils	1	C	1	0	74	0		0	0	108.733871600009	108.833880600054
22886	0.0999630999285728	408	hunger	stimuli/non_foods\non-food_inanimate_rack.jpg	1	3	1	non-food_inanimate_rack	0	S	13	0	202	0		0	0	108.883877000073	108.983840100002
22923.5	0.0999829000793397	409	hunger	stimuli/non_foods\non-food_animate_green_bug.jpg	1	3	1	non-food_animate_green_bug	0	W	16	0	118	0		0	0	109.03386570001	109.13384860009
22961	0.0999809999484569	410	hunger	stimuli/non_foods\non-food_animate_cheetah.jpg	1	3	1	non-food_animate_cheetah	0	D	2	0	100	0		0	0	109.183865900035	109.283846899983
22998.5	0.099985699984245	411	hunger	stimuli/non_foods\non-food_animate_gorilla.jpg	1	3	1	non-food_animate_gorilla	0	K	7	0	116	0		0	0	109.333861100022	109.433846800006
23036	0.0999910000246018	412	hunger	stimuli/non_foods\non-food_animate_mammoth.jpg	1	3	1	non-food_animate_mammoth	0	J	6	0	128	0		0	0	109.483855500002	109.583846500027
23073.5	0.0999786999309435	413	hunger	stimuli/foods\chocolate_pudding.jpg	1	3	1	chocolate_pudding	1	T	14	0	29	0		0	0	109.633863100084	109.733841800014
23111	0.0999831999652088	414	hunger	stimuli/foods\papaya.jpg	1	3	1	papaya	1	K	7	0	235	0		0	0	109.78385820007	109.883841400035
23148.5	0.0999855999834836	415	hunger	stimuli/non_foods\non-food_animate_peacock.jpg	1	3	1	non-food_animate_peacock	0	G	4	0	134	0		0	0	109.933855300071	110.033840900054
23186	0.0999731000047177	416	hunger	stimuli/non_foods\non-food_animate_ladybug.jpg	1	3	1	non-food_animate_ladybug	0	N	10	0	124	0		0	0	110.083855999983	110.183829099988
23223.5	0.0999672999605536	417	hunger	stimuli/non_foods\non-food_inanimate_stoplight.jpg	1	3	1	non-food_inanimate_stoplight	0	S	13	0	214	0		0	0	110.233848300064	110.333815600025
23261	0.0999821000732481	418	hunger	stimuli/foods\fried_calamari.jpg	1	3	1	fried_calamari	1	C	1	0	50	0		0	0	110.3838521	110.483834200073
23298.5	0.0999584000092	419	hunger	stimuli/non_foods\non-food_animate_llama.jpg	1	3	1	non-food_animate_llama	0	W	16	0	127	0		0	0	110.533871600055	110.633830000064
23690	0.0999750000191852	420	hunger	stimuli/foods\roasted_chicken.jpg	1	4	1	roasted_chicken	1	G	4	0	261	0		0	0	112.100524500012	112.200499500032
23727.5	0.0999844000907615	421	hunger	stimuli/non_foods\non-food_inanimate_hay.jpg	1	4	1	non-food_inanimate_hay	0	M	9	0	187	0		0	0	112.250504099997	112.350488500088
23765	0.0999815000686795	422	hunger	stimuli/non_foods\non-food_inanimate_alarm_clock.jpg	1	4	1	non-food_inanimate_alarm_clock	0	H	5	0	158	0		0	0	112.400501700002	112.50048320007
23802.5	0.0999913000268862	423	hunger	stimuli/foods\wafer.jpg	1	4	1	wafer	1	F	3	0	277	0		0	0	112.550500500016	112.650491800043
23840	0.100029099965468	424	hunger	stimuli/foods\coffee_beans.jpg	1	4	1	coffee_beans	1	G	4	0	34	0		0	0	112.70049930003	112.800528399996
23877.5	0.0999410999938846	425	hunger	stimuli/non_foods\non-food_inanimate_nailpolish.jpg	1	4	1	non-food_inanimate_nailpolish	0	S	13	0	195	0		0	0	112.850537499995	112.950478599989
23915	0.0999863999895751	426	hunger	stimuli/foods\smoked_ham.jpg	1	4	1	smoked_ham	1	Z	18	0	266	0		0	0	113.000497000059	113.100483400049
23952.5	0.0999740000115708	427	hunger	stimuli/foods\spring_onions.jpg	1	4	1	spring_onions	1	L	8	0	269	0		0	0	113.150494200061	113.250468200073
23990	0.0999833000823855	428	hunger	stimuli/foods\carrot.jpg	1	4	1	carrot	1	T	14	0	19	0		0	0	113.300495999982	113.400479300064
24027.5	0.100008700042963	429	hunger	stimuli/foods\donut.jpg	1	4	1	donut	1	P	11	0	44	0		0	0	113.450465400005	113.550474100048
24065	0.099987699999474	430	hunger	stimuli/non_foods\non-food_inanimate_leaf.jpg	1	4	1	non-food_inanimate_leaf	0	C	1	0	192	0		0	0	113.600488700089	113.700476400089
24102.5	0.0999852000968531	431	hunger	stimuli/non_foods\non-food_animate_elephant.jpg	1	4	1	non-food_animate_elephant	0	L	8	0	111	0		0	0	113.750488299993	113.85047350009
24140	0.0999688000883907	432	hunger	stimuli/non_foods\non-food_animate_duck.jpg	1	4	1	non-food_animate_duck	0	V	15	0	109	0		0	0	113.900500799995	114.000469600083
24177.5	0.0999831999652088	433	hunger	stimuli/non_foods\non-food_animate_sea_turtle.jpg	1	4	1	non-food_animate_sea_turtle	0	X	17	0	144	0		0	0	114.050486500026	114.150469699991
24215	0.0999821000732481	434	hunger	stimuli/foods\dates.jpg	1	4	1	dates	1	M	9	0	43	0		0	0	114.200478399987	114.300460500061
24252.5	0.0999811000656337	435	hunger	stimuli/non_foods\non-food_inanimate_folding_chair.jpg	1	4	1	non-food_inanimate_folding_chair	0	X	17	0	182	0		0	0	114.350474799983	114.450455900049
24290	0.100042799953371	436	hunger	stimuli/foods\nectarine.jpg	1	4	1	nectarine	1	F	3	0	87	0		0	0	114.500468800077	114.600511600031
24327.5	0.0999487000517547	437	hunger	stimuli/foods\clams.jpg	1	4	1	clams	1	T	14	0	32	0		0	0	114.650519500021	114.750468200073
24365	0.0999830999644473	438	hunger	stimuli/non_foods\non-food_inanimate_construction_helment.jpg	1	4	1	non-food_inanimate_construction_helment	0	L	8	0	175	0		0	0	114.800493500079	114.900476600043
24402.5	0.0999844000907615	439	hunger	stimuli/non_foods\non-food_animate_alligator.jpg	1	4	1	non-food_animate_alligator	0	T	14	0	90	0		0	0	114.95048	115.05046440009
24440	0.0999895998975262	440	hunger	stimuli/non_foods\non-food_inanimate_table.jpg	1	4	1	non-food_inanimate_table	0	S	13	0	217	0		0	0	115.10047360009	115.200463199988
24477.5	0.0999925999203697	441	hunger	stimuli/foods\cauliflower.jpg	1	4	1	cauliflower	1	F	3	0	20	0		0	0	115.250470300089	115.350462900009
24515	0.0999818999553099	442	hunger	stimuli/foods\swordfish.jpg	1	4	1	swordfish	1	C	1	0	273	0		0	0	115.400475400034	115.50045729999
24552.5	0.0999799000564963	443	hunger	stimuli/non_foods\non-food_inanimate_toilet.jpg	1	4	1	non-food_inanimate_toilet	0	D	2	0	220	0		0	0	115.550470100017	115.650450000074
24590	0.0999598000198603	444	hunger	stimuli/non_foods\non-food_animate_killer_whale.jpg	1	4	1	non-food_animate_killer_whale	0	W	16	0	123	0		0	0	115.70050060004	115.80046040006
24627.5	0.100008100038394	445	hunger	stimuli/non_foods\non-food_animate_bat.jpg	1	4	1	non-food_animate_bat	0	D	2	0	94	0		0	0	115.850447300007	115.950455400045
24665	0.0999862999888137	446	hunger	stimuli/foods\corncob.jpg	1	4	1	corncob	1	B	0	0	37	0		0	0	116.000469400082	116.100455700071
24702.5	0.0999869999941438	447	hunger	stimuli/non_foods\non-food_animate_sea_lion.jpg	1	4	1	non-food_animate_sea_lion	0	H	5	0	143	0		0	0	116.15046350006	116.250450500054
24740	0.100026699947193	448	hunger	stimuli/non_foods\non-food_animate_dolphin.jpg	1	4	1	non-food_animate_dolphin	0	R	12	0	106	0		0	0	116.300477100071	116.400503800018
24777.5	0.0999518000753596	449	hunger	stimuli/foods\museli_bars.jpg	1	4	1	museli_bars	1	J	6	0	84	0		0	0	116.450497600017	116.550449400092
24815	0.0999851999804378	450	hunger	stimuli/non_foods\non-food_inanimate_tree.jpg	1	4	1	non-food_inanimate_tree	0	S	13	0	223	0		0	0	116.60046440002	116.700449600001
24852.5	0.0999852999811992	451	hunger	stimuli/non_foods\non-food_animate_chicken.jpg	1	4	1	non-food_animate_chicken	0	C	1	0	101	0		0	0	116.750454100082	116.850439400063
24890	0.0999931000405923	452	hunger	stimuli/foods\orange.jpg	1	4	1	orange	1	T	14	0	230	0		0	0	116.900447100052	117.000440200092
24927.5	0.0999858001014218	453	hunger	stimuli/non_foods\non-food_animate_ant.jpg	1	4	1	non-food_animate_ant	0	L	8	0	91	0		0	0	117.050450699986	117.150436500087
24965	0.0999840999720618	454	hunger	stimuli/foods\cinnamon.jpg	1	4	1	cinnamon	1	F	3	0	30	0		0	0	117.200451100012	117.300435199984
25002.5	0.0999783000443131	455	hunger	stimuli/non_foods\non-food_inanimate_fern.jpg	1	4	1	non-food_inanimate_fern	0	N	10	0	180	0		0	0	117.350450700033	117.450429000077
25040	0.0999771000351757	456	hunger	stimuli/non_foods\non-food_inanimate_padlock.jpg	1	4	1	non-food_inanimate_padlock	0	T	14	0	199	0		0	0	117.5004586	117.600435700035
25077.5	0.0999522000784054	457	hunger	stimuli/foods\capsicum.jpg	1	4	1	capsicum	1	W	16	0	18	0		0	0	117.650456300005	117.750408500084
25115	0.0999837000854313	458	hunger	stimuli/non_foods\non-food_inanimate_broom.jpg	1	4	1	non-food_inanimate_broom	0	L	8	0	164	0		0	0	117.8004526	117.900436300086
25152.5	0.0999768000328913	459	hunger	stimuli/foods\grilled_chicken_breast.jpg	1	4	1	grilled_chicken_breast	1	H	5	0	63	0		0	0	117.950452600024	118.050429400057
25190	0.0999806000618264	460	hunger	stimuli/non_foods\non-food_animate_slug.jpg	1	4	1	non-food_animate_slug	0	N	10	0	148	0		0	0	118.100446600001	118.200427200063
25227.5	0.0999673999613151	461	hunger	stimuli/foods\kiwi.jpg	1	4	1	kiwi	1	X	17	0	69	0		0	0	118.250467500067	118.350434900029
25265	0.0999833999667317	462	hunger	stimuli/non_foods\non-food_inanimate_shell.jpg	1	4	1	non-food_inanimate_shell	0	V	15	0	206	0		0	0	118.400447300053	118.50043070002
25302.5	0.0999845999758691	463	hunger	stimuli/foods\pumpkin.jpg	1	4	1	pumpkin	1	B	0	0	250	0		0	0	118.550444800057	118.650429400033
25340	0.0999859999865294	464	hunger	stimuli/foods\mortadella.jpg	1	4	1	mortadella	1	G	4	0	83	0		0	0	118.700444300077	118.800430300063
25377.5	0.0999799000564963	465	hunger	stimuli/non_foods\non-food_animate_yellow_bug.jpg	1	4	1	non-food_animate_yellow_bug	0	C	1	0	155	0		0	0	118.850446299999	118.950426200056
25415	0.0999827000778168	466	hunger	stimuli/non_foods\non-food_animate_iguana.jpg	1	4	1	non-food_animate_iguana	0	X	17	0	121	0		0	0	119.000441799988	119.100424500066
25452.5	0.0999953000573441	467	hunger	stimuli/non_foods\non-food_inanimate_canoe.jpg	1	4	1	non-food_inanimate_canoe	0	H	5	0	170	0		0	0	119.15044290002	119.250438200077
25490	0.0999610000289977	468	hunger	stimuli/foods\chestnut.jpg	1	4	1	chestnut	1	X	17	0	24	0		0	0	119.30045390001	119.400414900039
25527.5	0.0999898000154644	469	hunger	stimuli/non_foods\non-food_animate_parrot.jpg	1	4	1	non-food_animate_parrot	0	M	9	0	133	0		0	0	119.450427800068	119.550417600083
25565	0.0999854999827221	470	hunger	stimuli/foods\fruit_pie.jpg	1	4	1	fruit_pie	1	W	16	0	54	0		0	0	119.600427800091	119.700413300074
25602.5	0.100041399942711	471	hunger	stimuli/non_foods\non-food_inanimate_guitar.jpg	1	4	1	non-food_inanimate_guitar	0	J	6	0	185	0		0	0	119.750422700075	119.850464100018
25640	0.0999761999119073	472	hunger	stimuli/foods\pancakes.jpg	1	4	1	pancakes	1	U	23	1	234	0		0	0	119.900436400087	120.000412599999
25677.5	0.0999841000884771	473	hunger	stimuli/foods\red_beans.jpg	1	4	1	red_beans	1	P	11	0	255	0		0	0	120.050421399996	120.150405500084
25715	0.0999849999789149	474	hunger	stimuli/foods\hazelnuts.jpg	1	4	1	hazelnuts	1	M	9	0	65	0		0	0	120.200423700036	120.300408700015
25752.5	0.0999761999119073	475	hunger	stimuli/non_foods\non-food_animate_millipede.jpg	1	4	1	non-food_animate_millipede	0	Z	18	0	129	1	a	0.443280300009064	1	120.350425700075	120.450401899987
25790	0.0999849999789149	476	hunger	stimuli/non_foods\non-food_inanimate_bicycle.jpg	1	4	1	non-food_inanimate_bicycle	0	P	11	0	161	0		0	0	120.500420900062	120.600405900041
25827.5	0.100004000007175	477	hunger	stimuli/foods\honey.jpg	1	4	1	honey	1	L	8	0	66	0		0	0	120.65041100001	120.750415000017
25865	0.0999824999598786	478	hunger	stimuli/non_foods\non-food_animate_lion.jpg	1	4	1	non-food_animate_lion	0	H	5	0	125	0		0	0	120.800427000038	120.900409499998
25902.5	0.0999864999903366	479	hunger	stimuli/non_foods\non-food_animate_horse.jpg	1	4	1	non-food_animate_horse	0	N	10	0	119	0		0	0	120.950425600051	121.050412100041
25940	0.0999792999355122	480	hunger	stimuli/foods\cream_donuts.jpg	1	4	1	cream_donuts	1	Z	18	0	39	0		0	0	121.100422200048	121.200401499984
25977.5	0.0999677000800148	481	hunger	stimuli/non_foods\non-food_animate_seal.jpg	1	4	1	non-food_animate_seal	0	C	1	0	146	0		0	0	121.250427799998	121.350395500078
26015	0.0999718999955803	482	hunger	stimuli/foods\cinnamon_sroll.jpg	1	4	1	cinnamon_sroll	1	K	7	0	31	0		0	0	121.400411600014	121.50038350001
26052.5	0.0999834999674931	483	hunger	stimuli/non_foods\non-food_animate_squirrel.jpg	1	4	1	non-food_animate_squirrel	0	J	6	0	150	0		0	0	121.550418200088	121.650401700055
26090	0.0999348999466747	484	hunger	stimuli/foods\pasta_carbonara.jpg	1	4	1	pasta_carbonara	1	D	2	0	236	0		0	0	121.700469700038	121.800404599984
26127.5	0.0999806000618264	485	hunger	stimuli/foods\fried_zucchini.jpg	1	4	1	fried_zucchini	1	G	4	0	51	0		0	0	121.850417900016	121.950398500077
26165	0.0999849999789149	486	hunger	stimuli/non_foods\non-food_inanimate_rope.jpg	1	4	1	non-food_inanimate_rope	0	Z	18	0	204	0		0	0	122.000414300011	122.10039929999
26202.5	0.0999837999697775	487	hunger	stimuli/non_foods\non-food_inanimate_protractor.jpg	1	4	1	non-food_inanimate_protractor	0	D	2	0	201	0		0	0	122.150415400043	122.250399200013
26240	0.0999804999446496	488	hunger	stimuli/foods\apple.jpg	1	4	1	apple	1	Z	18	0	1	0		0	0	122.300414800062	122.400395300006
26277.5	0.0999871999956667	489	hunger	stimuli/non_foods\non-food_animate_cow.jpg	1	4	1	non-food_animate_cow	0	V	15	0	103	0		0	0	122.450409400044	122.55039660004
26315	0.0999803999438882	490	hunger	stimuli/foods\lime.jpg	1	4	1	lime	1	H	5	0	76	0		0	0	122.60041240009	122.700392800034
26352.5	0.0999880000017583	491	hunger	stimuli/non_foods\non-food_inanimate_horn.jpg	1	4	1	non-food_inanimate_horn	0	M	9	0	190	0		0	0	122.750406600069	122.850394600071
26390	0.0999731000047177	492	hunger	stimuli/foods\pepperoni_pizza.jpg	1	4	1	pepperoni_pizza	1	F	3	0	241	0		0	0	122.900418500067	123.000391600071
26427.5	0.0999807000625879	493	hunger	stimuli/non_foods\non-food_inanimate_toy_airplane.jpg	1	4	1	non-food_inanimate_toy_airplane	0	H	5	0	222	0		0	0	123.050407800009	123.150388500071
26465	0.0999861999880522	494	hunger	stimuli/foods\figs.jpg	1	4	1	figs	1	R	12	0	48	0		0	0	123.200405500014	123.300391700002
26502.5	0.0999575000023469	495	hunger	stimuli/foods\brie.jpg	1	4	1	brie	1	K	7	0	12	0		0	0	123.350405100035	123.450362600037
26540	0.0999430000083521	496	hunger	stimuli/foods\cooked_ham.jpg	1	4	1	cooked_ham	1	X	17	0	35	0		0	0	123.500444200006	123.600387200015
26577.5	0.0999828999629244	497	hunger	stimuli/foods\grapefruits.jpg	1	4	1	grapefruits	1	R	12	0	59	0		0	0	123.650402800064	123.750385700027
26615	0.099976799916476	498	hunger	stimuli/non_foods\non-food_animate_woman.jpg	1	4	1	non-food_animate_woman	0	D	2	0	154	0		0	0	123.800403000088	123.900379800005
26652.5	0.0999874999979511	499	hunger	stimuli/non_foods\non-food_inanimate_towel.jpg	1	4	1	non-food_inanimate_towel	0	N	10	0	221	0		0	0	123.950384000083	124.050371500081
26690	0.099991700029932	500	hunger	stimuli/foods\minestrone_soup.jpg	1	4	1	minestrone_soup	1	B	0	0	82	0		0	0	124.100390100037	124.200381800067
26727.5	0.0999535000883043	501	hunger	stimuli/foods\blackberry.jpg	1	4	1	blackberry	1	S	13	0	11	0		0	0	124.250395699986	124.350349200075
26765	0.0999905999051407	502	hunger	stimuli/foods\avocado.jpg	1	4	1	avocado	1	C	1	0	5	0		0	0	124.400391500094	124.500382099999
26802.5	0.0999498999444768	503	hunger	stimuli/foods\peach.jpg	1	4	1	peach	1	F	3	0	238	0		0	0	124.550416800077	124.650366700022
26840	0.0999795000534505	504	hunger	stimuli/foods\cucumber.jpg	1	4	1	cucumber	1	N	10	0	41	0		0	0	124.700390700018	124.800370200071
26877.5	0.0999900000169873	505	hunger	stimuli/foods\garlic.jpg	1	4	1	garlic	1	S	13	0	56	0		0	0	124.850378700066	124.950368700083
26915	0.0999856000998989	506	hunger	stimuli/foods\fruit_salad.jpg	1	4	1	fruit_salad	1	J	6	0	55	0		0	0	125.000380399986	125.100366000086
26952.5	0.100006100023165	507	hunger	stimuli/non_foods\non-food_animate_penguin.jpg	1	4	1	non-food_animate_penguin	0	M	9	0	135	0		0	0	125.150381000014	125.250387100037
26990	0.0999735000077635	508	hunger	stimuli/foods\mussels.jpg	1	4	1	mussels	1	P	11	0	86	0		0	0	125.300397500047	125.400371000054
27027.5	0.0999831999652088	509	hunger	stimuli/foods\hotdog.jpg	1	4	1	hotdog	1	N	10	0	67	0		0	0	125.450385100092	125.550368300057
27065	0.099985400098376	510	hunger	stimuli/foods\steak.jpg	1	4	1	steak	1	D	2	0	270	0		0	0	125.60038399999	125.700369400089
27102.5	0.09998430009	511	hunger	stimuli/foods\savory_pie.jpg	1	4	1	savory_pie	1	S	13	0	265	0		0	0	125.750380099984	125.850364400074
27140	0.0999898000154644	512	hunger	stimuli/foods\taco.jpg	1	4	1	taco	1	Z	18	0	274	0		0	0	125.900377499987	126.000367300003
27177.5	0.0999870999949053	513	hunger	stimuli/non_foods\non-food_animate_hummingbird.jpg	1	4	1	non-food_animate_hummingbird	0	K	7	0	120	0		0	0	126.050374299986	126.150361399981
27215	0.0999780000420287	514	hunger	stimuli/non_foods\non-food_animate_fox.jpg	1	4	1	non-food_animate_fox	0	H	5	0	112	0		0	0	126.200379300048	126.30035730009
27252.5	0.0999471000395715	515	hunger	stimuli/foods\salami.jpg	1	4	1	salami	1	K	7	0	263	0		0	0	126.350405900041	126.45035300008
27290	0.0999804000603035	516	hunger	stimuli/non_foods\non-food_inanimate_clover.jpg	1	4	1	non-food_inanimate_clover	0	R	12	0	174	0		0	0	126.500369700021	126.600350100081
27327.5	0.0999925000360236	517	hunger	stimuli/foods\raw_ham.jpg	1	4	1	raw_ham	1	Z	18	0	253	0		0	0	126.650361499982	126.750354000018
27365	0.0999872999964282	518	hunger	stimuli/non_foods\non-food_inanimate_cactus_pot_plant.jpg	1	4	1	non-food_inanimate_cactus_pot_plant	0	K	7	0	169	0		0	0	126.800363600021	126.900350900018
27402.5	0.0999686999712139	519	hunger	stimuli/non_foods\non-food_inanimate_skateboard.jpg	1	4	1	non-food_inanimate_skateboard	0	W	16	0	208	0		0	0	126.950381500064	127.050350200036
27440	0.0999461999163032	520	hunger	stimuli/foods\cupcake.jpg	1	4	1	cupcake	1	H	5	0	42	0		0	0	127.100398000097	127.200344200013
27477.5	0.0999710999894887	521	hunger	stimuli/foods\onion.jpg	1	4	1	onion	1	V	15	0	229	0		0	0	127.250360200065	127.350331300055
27515	0.0999882000032812	522	hunger	stimuli/non_foods\non-food_inanimate_desk.jpg	1	4	1	non-food_inanimate_desk	0	C	1	0	178	0		0	0	127.400367100025	127.500355300028
27552.5	0.0999818999553099	523	hunger	stimuli/non_foods\non-food_inanimate_bamboo.jpg	1	4	1	non-food_inanimate_bamboo	0	M	9	0	159	0		0	0	127.550366300042	127.650348199997
27590	0.0999863999895751	524	hunger	stimuli/foods\cannoli.jpg	1	4	1	cannoli	1	L	8	0	17	0		0	0	127.700365200057	127.800351600046
27627.5	0.0999588000122458	525	hunger	stimuli/foods\mandarin.jpg	1	4	1	mandarin	1	E	20	1	79	0		0	0	127.850377300056	127.950336100068
27665	0.0999890000093728	526	hunger	stimuli/non_foods\non-food_inanimate_watering_can.jpg	1	4	1	non-food_inanimate_watering_can	0	T	14	0	225	0		0	0	128.000350899994	128.100339900004
27702.5	0.0999726000009105	527	hunger	stimuli/non_foods\non-food_inanimate_buds.jpg	1	4	1	non-food_inanimate_buds	0	D	2	0	166	1	a	0.391816399991512	1	128.150367700029	128.25034030003
27740	0.0999950999394059	528	hunger	stimuli/non_foods\non-food_animate_rhino.jpg	1	4	1	non-food_animate_rhino	0	M	9	0	141	0		0	0	128.300352900056	128.400347999996
27777.5	0.0999852000968531	529	hunger	stimuli/foods\coconut.jpg	1	4	1	coconut	1	H	5	0	33	0		0	0	128.450357199996	128.550342400093
27815	0.0999862999888137	530	hunger	stimuli/non_foods\non-food_animate_snail.jpg	1	4	1	non-food_animate_snail	0	R	12	0	149	0		0	0	128.600357400021	128.700343700009
27852.5	0.0999981999630108	531	hunger	stimuli/foods\croissant.jpg	1	4	1	croissant	1	G	4	0	40	0		0	0	128.750357100042	128.850355300005
27890	0.0999647999415174	532	hunger	stimuli/non_foods\non-food_animate_kangaroo.jpg	1	4	1	non-food_animate_kangaroo	0	M	9	0	122	0		0	0	128.900375500089	129.00034030003
27927.5	0.0999813999515027	533	hunger	stimuli/foods\broccoli.jpg	1	4	1	broccoli	1	K	7	0	13	0		0	0	129.050353800063	129.150335200015
27965	0.099982799962163	534	hunger	stimuli/non_foods\non-food_animate_eagle.jpg	1	4	1	non-food_animate_eagle	0	C	1	0	110	0		0	0	129.20035030006	129.300333100022
28002.5	0.0999761999119073	535	hunger	stimuli/non_foods\non-food_inanimate_cupboard.jpg	1	4	1	non-food_inanimate_cupboard	0	K	7	0	177	0		0	0	129.350351500092	129.450327700004
28040	0.0999832999659702	536	hunger	stimuli/foods\salmon.jpg	1	4	1	salmon	1	B	0	0	264	0		0	0	129.500341400038	129.600324700004
28077.5	0.0999742000130937	537	hunger	stimuli/non_foods\non-food_animate_lizard.jpg	1	4	1	non-food_animate_lizard	0	J	6	0	126	0		0	0	129.650340200053	129.750314400066
28115	0.0999963000649586	538	hunger	stimuli/non_foods\non-food_animate_german_shepherd.jpg	1	4	1	non-food_animate_german_shepherd	0	T	14	0	114	0		0	0	129.80034950003	129.900345800095
28152.5	0.0999730000039563	539	hunger	stimuli/non_foods\non-food_inanimate_nest.jpg	1	4	1	non-food_inanimate_nest	0	F	3	0	196	0		0	0	129.950355499983	130.050328499987
28190	0.0999858999857679	540	hunger	stimuli/non_foods\non-food_inanimate_bush.jpg	1	4	1	non-food_inanimate_bush	0	V	15	0	167	0		0	0	130.100341900019	130.200327800005
28227.5	0.0999844999751076	541	hunger	stimuli/non_foods\non-food_inanimate_wrench.jpg	1	4	1	non-food_inanimate_wrench	0	J	6	0	227	0		0	0	130.250344300061	130.350328800036
28265	0.0999585000099614	542	hunger	stimuli/foods\pickles.jpg	1	4	1	pickles	1	X	17	0	242	0		0	0	130.40034250007	130.50030100008
28302.5	0.0999832000816241	543	hunger	stimuli/foods\cabbage.jpg	1	4	1	cabbage	1	N	10	0	16	0		0	0	130.550327799981	130.650311000063
28340	0.0999883000040427	544	hunger	stimuli/foods\cherry.jpg	1	4	1	cherry	1	K	7	0	23	0		0	0	130.700327300001	130.800315600005
28377.5	0.100014499970712	545	hunger	stimuli/non_foods\non-food_inanimate_grass.jpg	1	4	1	non-food_inanimate_grass	0	C	1	0	184	0		0	0	130.850312000024	130.950326499995
28415	0.0999647999415174	546	hunger	stimuli/non_foods\non-food_inanimate_drum_set.jpg	1	4	1	non-food_inanimate_drum_set	0	L	8	0	179	0		0	0	131.000329700066	131.100294500007
28452.5	0.09998430009	547	hunger	stimuli/non_foods\non-food_animate_camel.jpg	1	4	1	non-food_animate_camel	0	S	13	0	97	0		0	0	131.150332899997	131.250317200087
28490	0.0999710999894887	548	hunger	stimuli/foods\toasted_bread_with_tomatoes.jpg	1	4	1	toasted_bread_with_tomatoes	1	C	1	0	275	0		0	0	131.300341500086	131.400312600075
28527.5	0.0999845999758691	549	hunger	stimuli/foods\banana.jpg	1	4	1	banana	1	B	0	0	9	0		0	0	131.450321200071	131.550305800047
28565	0.0999840000877157	550	hunger	stimuli/non_foods\non-food_animate_mouse.jpg	1	4	1	non-food_animate_mouse	0	C	1	0	131	0		0	0	131.600322499988	131.700306500075
28602.5	0.0999780000420287	551	hunger	stimuli/foods\chocolate_bar.jpg	1	4	1	chocolate_bar	1	D	2	0	26	0		0	0	131.750321600004	131.850299600046
28640	0.0999818000709638	552	hunger	stimuli/foods\tomato.jpg	1	4	1	tomato	1	G	4	0	276	0		0	0	131.900319200009	132.00030100008
28677.5	0.0999792000511661	553	hunger	stimuli/foods\ice_cream.jpg	1	4	1	ice_cream	1	T	14	0	68	0		0	0	132.050315700006	132.150294900057
28715	0.100005100015551	554	hunger	stimuli/foods\apricot.jpg	1	4	1	apricot	1	M	9	0	2	0		0	0	132.20030710008	132.300312200096
28752.5	0.099945200025104	555	hunger	stimuli/foods\lettuce.jpg	1	4	1	lettuce	1	V	15	0	75	0		0	0	132.350362300058	132.450307500083
28790	0.0999869999941438	556	hunger	stimuli/non_foods\non-food_animate_donkey.jpg	1	4	1	non-food_animate_donkey	0	D	2	0	107	0		0	0	132.500319399987	132.600306399981
28827.5	0.0999809000641108	557	hunger	stimuli/non_foods\non-food_inanimate_ring.jpg	1	4	1	non-food_inanimate_ring	0	C	1	0	203	0		0	0	132.650321500027	132.750302400091
28865	0.0999875999987125	558	hunger	stimuli/foods\brussel_sprouts.jpg	1	4	1	brussel_sprouts	1	V	15	0	15	0		0	0	132.800319300033	132.900306900032
28902.5	0.0999798999400809	559	hunger	stimuli/foods\beetroots.jpg	1	4	1	beetroots	1	B	0	0	10	0		0	0	132.950321400072	133.050301300013
29335.75	0.0999782999278978	560	hunger	stimuli/foods\cauliflower.jpg	1	5	1	cauliflower	1	H	5	0	20	0		0	0	134.683625700069	134.783603999997
29373.25	0.100008599925786	561	hunger	stimuli/non_foods\non-food_inanimate_guitar.jpg	1	5	1	non-food_inanimate_guitar	0	K	7	0	185	0		0	0	134.833624300081	134.933632900007
29410.75	0.0999793000519276	562	hunger	stimuli/non_foods\non-food_animate_skunk.jpg	1	5	1	non-food_animate_skunk	0	N	10	0	147	0		0	0	134.983629900031	135.083609200083
29448.25	0.0999882000032812	563	hunger	stimuli/foods\spring_onions.jpg	1	5	1	spring_onions	1	W	16	0	269	0		0	0	135.133623400005	135.233611600008
29485.75	0.0999759000260383	564	hunger	stimuli/non_foods\non-food_animate_llama.jpg	1	5	1	non-food_animate_llama	0	T	14	0	127	0		0	0	135.283638700028	135.383614600054
29523.25	0.0999852999811992	565	hunger	stimuli/non_foods\non-food_inanimate_toilet.jpg	1	5	1	non-food_inanimate_toilet	0	M	9	0	220	0		0	0	135.433624200057	135.533609500038
29560.75	0.0999828999629244	566	hunger	stimuli/foods\tomato.jpg	1	5	1	tomato	1	F	3	0	276	0		0	0	135.583622200065	135.683605100028
29598.25	0.0999762000283226	567	hunger	stimuli/non_foods\non-food_animate_bee.jpg	1	5	1	non-food_animate_bee	0	H	5	0	95	0		0	0	135.733625599998	135.833601800026
29635.75	0.0999869999941438	568	hunger	stimuli/non_foods\non-food_animate_tortoise.jpg	1	5	1	non-food_animate_tortoise	0	K	7	0	153	0		0	0	135.883629600052	135.983616600046
29673.25	0.0999830999644473	569	hunger	stimuli/non_foods\non-food_animate_polar_bear.jpg	1	5	1	non-food_animate_polar_bear	0	W	16	0	137	0		0	0	136.033626100048	136.133609200013
29710.75	0.0999727000016719	570	hunger	stimuli/foods\papaya.jpg	1	5	1	papaya	1	L	8	0	235	0		0	0	136.183637900045	136.283610600047
29748.25	0.0999928000383079	571	hunger	stimuli/non_foods\non-food_animate_student_female.jpg	1	5	1	non-food_animate_student_female	0	P	11	0	151	0		0	0	136.33361500001	136.433607800049
29785.75	0.0999855000991374	572	hunger	stimuli/non_foods\non-food_animate_rhino.jpg	1	5	1	non-food_animate_rhino	0	T	14	0	141	0		0	0	136.483623599983	136.583609100082
29823.25	0.100001099985093	573	hunger	stimuli/non_foods\non-food_inanimate_suitcase.jpg	1	5	1	non-food_inanimate_suitcase	0	V	15	0	215	0		0	0	136.633610500023	136.733611600008
29860.75	0.0999495999421924	574	hunger	stimuli/foods\brussel_sprouts.jpg	1	5	1	brussel_sprouts	1	C	1	0	15	0		0	0	136.783647700096	136.883597300039
29898.25	0.0999819999560714	575	hunger	stimuli/foods\raw_ham.jpg	1	5	1	raw_ham	1	B	0	0	253	0		0	0	136.933613100089	137.033595100045
29935.75	0.0999830999644473	576	hunger	stimuli/non_foods\non-food_animate_woman.jpg	1	5	1	non-food_animate_woman	0	H	5	0	154	0		0	0	137.083607000066	137.18359010003
29973.25	0.0999948000535369	577	hunger	stimuli/non_foods\non-food_animate_penguin.jpg	1	5	1	non-food_animate_penguin	0	P	11	0	135	0		0	0	137.233608099981	137.333602900035
30010.75	0.0999830999644473	578	hunger	stimuli/foods\beetroots.jpg	1	5	1	beetroots	1	M	9	0	10	0		0	0	137.38361930009	137.483602400054
30048.25	0.100004700012505	579	hunger	stimuli/foods\garlic.jpg	1	5	1	garlic	1	J	6	0	56	0		0	0	137.533590300009	137.633595000021
30085.75	0.0999870999949053	580	hunger	stimuli/non_foods\non-food_inanimate_rope.jpg	1	5	1	non-food_inanimate_rope	0	V	15	0	204	0		0	0	137.683610400069	137.783597500063
30123.25	0.0999923999188468	581	hunger	stimuli/foods\mango.jpg	1	5	1	mango	1	R	12	0	80	0		0	0	137.833610400092	137.933602800011
30160.75	0.0999838999705389	582	hunger	stimuli/foods\fruit_pie.jpg	1	5	1	fruit_pie	1	L	8	0	54	0		0	0	137.983603500063	138.083587400033
30198.25	0.0999751000199467	583	hunger	stimuli/non_foods\non-food_animate_mouse.jpg	1	5	1	non-food_animate_mouse	0	C	1	0	131	0		0	0	138.133608500008	138.233583600027
30235.75	0.0999881000025198	584	hunger	stimuli/foods\lamb_chops.jpg	1	5	1	lamb_chops	1	J	6	0	70	0		0	0	138.283599200076	138.383587300079
30273.25	0.0999726000009105	585	hunger	stimuli/non_foods\non-food_animate_sea_lion.jpg	1	5	1	non-food_animate_sea_lion	0	X	17	0	143	0		0	0	138.433610500069	138.53358310007
30310.75	0.0999469999223948	586	hunger	stimuli/foods\fried_zucchini.jpg	1	5	1	fried_zucchini	1	H	5	0	51	0		0	0	138.583624900086	138.683571900008
30348.25	0.0999885000055656	587	hunger	stimuli/foods\meatballs.jpg	1	5	1	meatballs	1	W	16	0	81	0		0	0	138.733601000044	138.833589500049
30385.75	0.0999568999977782	588	hunger	stimuli/non_foods\non-food_inanimate_couch.jpg	1	5	1	non-food_inanimate_couch	0	V	15	0	176	0		0	0	138.883607299998	138.983564199996
30423.25	0.0999843999743462	589	hunger	stimuli/foods\cereal.jpg	1	5	1	cereal	1	S	13	0	22	0		0	0	139.033599500079	139.133583900053
30460.75	0.0999762000283226	590	hunger	stimuli/foods\fruit_flan.jpg	1	5	1	fruit_flan	1	F	3	0	53	0		0	0	139.183601800003	139.283578000031
30498.25	0.0999770000344142	591	hunger	stimuli/non_foods\non-food_animate_ladybug.jpg	1	5	1	non-food_animate_ladybug	0	S	13	0	124	0		0	0	139.333591100061	139.433568100096
30535.75	0.099961300031282	592	hunger	stimuli/non_foods\non-food_animate_seahorse.jpg	1	5	1	non-food_animate_seahorse	0	Z	18	0	145	0		0	0	139.483609699993	139.583571000025
30573.25	0.0999955999432132	593	hunger	stimuli/non_foods\non-food_inanimate_stoplight.jpg	1	5	1	non-food_inanimate_stoplight	0	F	3	0	214	0		0	0	139.633584400057	139.73358
30610.75	0.0999634000472724	594	hunger	stimuli/foods\lime.jpg	1	5	1	lime	1	R	12	0	76	0		0	0	139.78359440004	139.883557800087
30648.25	0.099984799977392	595	hunger	stimuli/foods\bagel.jpg	1	5	1	bagel	1	J	6	0	6	0		0	0	139.93359130004	140.033576100017
30685.75	0.0999866999918595	596	hunger	stimuli/foods\lemon.jpg	1	5	1	lemon	1	Z	18	0	72	0		0	0	140.083590800059	140.183577500051
30723.25	0.099973600008525	597	hunger	stimuli/foods\strawberry.jpg	1	5	1	strawberry	1	J	6	0	272	0		0	0	140.233593499986	140.333567099995
30760.75	0.100013499963097	598	hunger	stimuli/foods\minestrone_soup.jpg	1	5	1	minestrone_soup	1	R	12	0	82	0		0	0	140.383570500067	140.483584000031
30798.25	0.0999685999704525	599	hunger	stimuli/non_foods\non-food_inanimate_bicycle.jpg	1	5	1	non-food_inanimate_bicycle	0	N	10	0	161	0		0	0	140.533596800058	140.633565400029
30835.75	0.0999903000192717	600	hunger	stimuli/non_foods\non-food_animate_donkey.jpg	1	5	1	non-food_animate_donkey	0	F	3	0	107	0		0	0	140.683571100002	140.783561400021
30873.25	0.0999869999941438	601	hunger	stimuli/foods\taco.jpg	1	5	1	taco	1	L	8	0	274	0		0	0	140.833573300042	140.933560300036
30910.75	0.0999719001119956	602	hunger	stimuli/foods\artichoke.jpg	1	5	1	artichoke	1	V	15	0	3	0		0	0	140.983577499981	141.083549400093
30948.25	0.0999812999507412	603	hunger	stimuli/foods\pork_and_rice.jpg	1	5	1	pork_and_rice	1	P	11	0	245	0		0	0	141.13358220004	141.233563499991
30985.75	0.0999764000298455	604	hunger	stimuli/foods\grilled_chicken_breast.jpg	1	5	1	grilled_chicken_breast	1	G	4	0	63	0		0	0	141.283578300034	141.383554700064
31023.25	0.0999933000421152	605	hunger	stimuli/foods\risotto_with_peas_and_asparagus_tips.jpg	1	5	1	risotto_with_peas_and_asparagus_tips	1	W	16	0	259	0		0	0	141.433572600014	141.533565900056
31060.75	0.099976500030607	606	hunger	stimuli/foods\cream_donuts.jpg	1	5	1	cream_donuts	1	G	4	0	39	0		0	0	141.583574200049	141.68355070008
31098.25	0.0999899000162259	607	hunger	stimuli/non_foods\non-food_inanimate_briefcase.jpg	1	5	1	non-food_inanimate_briefcase	0	D	2	0	163	0		0	0	141.733566300012	141.833556200028
31135.75	0.0999986999668181	608	hunger	stimuli/non_foods\non-food_animate_duck.jpg	1	5	1	non-food_animate_duck	0	W	16	0	109	0		0	0	141.883552700048	141.983551400015
31173.25	0.0999700999818742	609	hunger	stimuli/foods\fried_calamari.jpg	1	5	1	fried_calamari	1	M	9	0	50	0		0	0	142.033565900056	142.133536000038
31210.75	0.100010199937969	610	hunger	stimuli/foods\cucumber.jpg	1	5	1	cucumber	1	G	4	0	41	0		0	0	142.183546400047	142.283556599985
31248.25	0.0999609000282362	611	hunger	stimuli/foods\cracker.jpg	1	5	1	cracker	1	W	16	0	38	0		0	0	142.333568700007	142.433529600035
31285.75	0.0999929999234155	612	hunger	stimuli/foods\corncob.jpg	1	5	1	corncob	1	K	7	0	37	0		0	0	142.483545200084	142.583538200008
31323.25	0.0999776999233291	613	hunger	stimuli/non_foods\non-food_inanimate_socks.jpg	1	5	1	non-food_inanimate_socks	0	P	11	0	211	0		0	0	142.633570000064	142.733547699987
31360.75	0.100037100026384	614	hunger	stimuli/non_foods\non-food_animate_baby_sitting.jpg	1	5	1	non-food_animate_baby_sitting	0	S	13	0	93	0		0	0	142.783559400006	142.883596500033
31398.25	0.0999584000092	615	hunger	stimuli/foods\pear.jpg	1	5	1	pear	1	R	12	0	239	0		0	0	142.933564500068	143.033522900078
31435.75	0.0999812000663951	616	hunger	stimuli/non_foods\non-food_inanimate_ring.jpg	1	5	1	non-food_inanimate_ring	0	G	4	0	203	0		0	0	143.083569900016	143.183551100083
31473.25	0.09998430009	617	hunger	stimuli/non_foods\non-food_animate_snail.jpg	1	5	1	non-food_animate_snail	0	H	5	0	149	0		0	0	143.233563199989	143.333547500079
31510.75	0.0999788000481203	618	hunger	stimuli/non_foods\non-food_inanimate_watering_can.jpg	1	5	1	non-food_inanimate_watering_can	0	U	23	1	225	0		0	0	143.38355160004	143.483530400088
31548.25	0.0999852999811992	619	hunger	stimuli/non_foods\non-food_inanimate_short_sleeved_shirt.jpg	1	5	1	non-food_inanimate_short_sleeved_shirt	0	K	7	0	207	0		0	0	143.533563100034	143.633548400016
31585.75	0.0999863999895751	620	hunger	stimuli/non_foods\non-food_animate_giraffe.jpg	1	5	1	non-food_animate_giraffe	0	S	13	0	115	0		0	0	143.683559000026	143.783545400016
31623.25	0.099979699938558	621	hunger	stimuli/foods\grapes.jpg	1	5	1	grapes	1	H	5	0	60	0		0	0	143.833544400055	143.933524099994
31660.75	0.0999739000108093	622	hunger	stimuli/foods\red_beans.jpg	1	5	1	red_beans	1	C	1	0	255	1	a	0.600248100003228	1	143.983565500006	144.083539400017
31698.25	0.0999943000497296	623	hunger	stimuli/non_foods\non-food_animate_bat.jpg	1	5	1	non-food_animate_bat	0	T	14	0	94	0		0	0	144.133560699993	144.233555000043
31735.75	0.0999891000101343	624	hunger	stimuli/non_foods\non-food_animate_mammoth.jpg	1	5	1	non-food_animate_mammoth	0	B	0	0	128	0		0	0	144.283543400001	144.383532500011
31773.25	0.0999976999592036	625	hunger	stimuli/foods\onion.jpg	1	5	1	onion	1	K	7	0	229	0		0	0	144.433533100062	144.533530800021
31810.75	0.0999859999865294	626	hunger	stimuli/foods\cannoli.jpg	1	5	1	cannoli	1	N	10	0	17	0		0	0	144.583531700075	144.683517700061
31848.25	0.0999848999781534	627	hunger	stimuli/non_foods\non-food_inanimate_hammer.jpg	1	5	1	non-food_inanimate_hammer	0	G	4	0	186	0		0	0	144.73354460008	144.833529500058
31885.75	0.0999698999803513	628	hunger	stimuli/foods\grapefruits.jpg	1	5	1	grapefruits	1	N	10	0	59	0		0	0	144.88355550007	144.98352540005
31923.25	0.0999861999880522	629	hunger	stimuli/foods\stew_with_potatoes_and_carrots.jpg	1	5	1	stew_with_potatoes_and_carrots	1	P	11	0	271	0		0	0	145.033537700074	145.133523900062
31960.75	0.099982300074771	630	hunger	stimuli/non_foods\non-food_animate_lizard.jpg	1	5	1	non-food_animate_lizard	0	X	17	0	126	0		0	0	145.183538099984	145.283520400058
31998.25	0.100005999905989	631	hunger	stimuli/non_foods\non-food_inanimate_bucket.jpg	1	5	1	non-food_inanimate_bucket	0	R	12	0	165	0		0	0	145.333531900076	145.433537899982
32035.75	0.099988600006327	632	hunger	stimuli/foods\apricot.jpg	1	5	1	apricot	1	W	16	0	2	0		0	0	145.483545100084	145.58353370009
32073.25	0.0999796000542119	633	hunger	stimuli/foods\donut.jpg	1	5	1	donut	1	J	6	0	44	0		0	0	145.633547000005	145.733526600059
32110.75	0.0999905000207946	634	hunger	stimuli/foods\rice.jpg	1	5	1	rice	1	N	10	0	257	0		0	0	145.783540899982	145.883531400003
32148.25	0.0999741000123322	635	hunger	stimuli/non_foods\non-food_animate_Causasian_man.jpg	1	5	1	non-food_animate_Causasian_man	0	L	8	0	89	0		0	0	145.933541900013	146.033516000025
32185.75	0.0999913000268862	636	hunger	stimuli/non_foods\non-food_animate_raccoon.jpg	1	5	1	non-food_animate_raccoon	0	R	12	0	139	0		0	0	146.083529400057	146.183520700084
32223.25	0.0999883000040427	637	hunger	stimuli/foods\brie.jpg	1	5	1	brie	1	L	8	0	12	0		0	0	146.233537600026	146.333525900031
32260.75	0.0999873999971896	638	hunger	stimuli/non_foods\non-food_animate_dolphin.jpg	1	5	1	non-food_animate_dolphin	0	T	14	0	106	0		0	0	146.383522000047	146.483509400045
32298.25	0.0999985999660566	639	hunger	stimuli/non_foods\non-food_inanimate_bush.jpg	1	5	1	non-food_inanimate_bush	0	P	11	0	167	0		0	0	146.533521700068	146.633520300034
32335.75	0.0999947000527754	640	hunger	stimuli/non_foods\non-food_animate_green_bug.jpg	1	5	1	non-food_animate_green_bug	0	C	1	0	118	0		0	0	146.683525500004	146.783520200057
32373.25	0.0999828999629244	641	hunger	stimuli/foods\carrot.jpg	1	5	1	carrot	1	S	13	0	19	0		0	0	146.833530900069	146.933513800032
32410.75	0.0999668999575078	642	hunger	stimuli/non_foods\non-food_animate_butterfly.jpg	1	5	1	non-food_animate_butterfly	0	R	12	0	96	0		0	0	146.983539900044	147.083506800001
32448.25	0.0999965000664815	643	hunger	stimuli/non_foods\non-food_animate_yellow_bug.jpg	1	5	1	non-food_animate_yellow_bug	0	F	3	0	155	0		0	0	147.133515099995	147.233511600061
32485.75	0.0999859999865294	644	hunger	stimuli/non_foods\non-food_inanimate_scissors.jpg	1	5	1	non-food_inanimate_scissors	0	X	17	0	205	0		0	0	147.283522000071	147.383508000057
32523.25	0.0999744000146165	645	hunger	stimuli/non_foods\non-food_inanimate_towel.jpg	1	5	1	non-food_inanimate_towel	0	T	14	0	221	0		0	0	147.43352620001	147.533500600024
32560.75	0.0999873999971896	646	hunger	stimuli/non_foods\non-food_inanimate_tulip.jpg	1	5	1	non-food_inanimate_tulip	0	H	5	0	224	0		0	0	147.583514000056	147.683501400054
32598.25	0.100001899991184	647	hunger	stimuli/non_foods\non-food_inanimate_tree.jpg	1	5	1	non-food_inanimate_tree	0	S	13	0	223	0		0	0	147.733504700009	147.8335066
32635.75	0.099991700029932	648	hunger	stimuli/foods\cooked_ham.jpg	1	5	1	cooked_ham	1	H	5	0	35	0		0	0	147.883515299996	147.983507000026
