onset	duration	eventnumber	hunger_condition	stimfilename	blockno	trialno	is_faststream	stim	food_idx	letter	letter_idx	istarget	image_number	response	keypressed	rt	correct	time_stimon	time_stimoff
22426.75	0.099977	0	hunger	stimuli/non_foods\non-food_inanimate_hammer.jpg	1	1	1	non-food_inanimate_hammer	0	R	12	0	186	0		0	0	76.6173416	76.7173186
22464.25	0.1000388	1	hunger	stimuli/non_foods\non-food_animate_ram.jpg	1	1	1	non-food_animate_ram	0	M	9	0	140	0		0	0	76.7673331	76.8673719
22501.75	0.0999834	2	hunger	stimuli/foods\banana.jpg	1	1	1	banana	1	R	12	0	9	0		0	0	76.9173322	77.0173156
22539.25	0.099984	3	hunger	stimuli/foods\cannoli.jpg	1	1	1	cannoli	1	W	16	0	17	0		0	0	77.0673278	77.1673118
22576.75	0.0999815	4	hunger	stimuli/non_foods\non-food_animate_dragonfly.jpg	1	1	1	non-food_animate_dragonfly	0	C	1	0	108	0		0	0	77.2173279	77.3173094
22614.25	0.099989	5	hunger	stimuli/foods\savory_pie.jpg	1	1	1	savory_pie	1	M	9	0	265	0		0	0	77.3673256	77.4673146
22651.75	0.099985	6	hunger	stimuli/foods\pork_and_rice.jpg	1	1	1	pork_and_rice	1	G	4	0	245	0		0	0	77.5173243	77.6173093
22689.25	0.0999869	7	hunger	stimuli/foods\gnocchi.jpg	1	1	1	gnocchi	1	T	14	0	58	0		0	0	77.6673219	77.7673088
22726.75	0.0999885	8	hunger	stimuli/non_foods\non-food_animate_student_female.jpg	1	1	1	non-food_animate_student_female	0	J	6	0	151	0		0	0	77.8173172	77.9173057
22764.25	0.0999921	9	hunger	stimuli/foods\roasted_chicken.jpg	1	1	1	roasted_chicken	1	Z	18	0	261	0		0	0	77.9673192	78.0673113
22801.75	0.0999377	10	hunger	stimuli/non_foods\non-food_animate_Causasian_man.jpg	1	1	1	non-food_animate_Causasian_man	0	S	13	0	89	0		0	0	78.1173669	78.2173046
22839.25	0.0999896	11	hunger	stimuli/foods\spaghetti_with_meat_sauce.jpg	1	1	1	spaghetti_with_meat_sauce	1	P	11	0	267	0		0	0	78.2673149	78.3673045
22876.75	0.0999864	12	hunger	stimuli/foods\potato_and_green_bean_salad.jpg	1	1	1	potato_and_green_bean_salad	1	O	22	1	246	0		0	0	78.4173171	78.5173035
22914.5	0.0997844	13	hunger	stimuli/non_foods\non-food_inanimate_rack.jpg	1	1	1	non-food_inanimate_rack	0	K	7	0	202	0		0	0	78.5675193	78.6673037
22951.75	0.099985	14	hunger	stimuli/foods\prawn.jpg	1	1	1	prawn	1	T	14	0	249	1	a	0.3918187	1	78.7173142	78.8172992
22989.25	0.0999853	15	hunger	stimuli/foods\cracker.jpg	1	1	1	cracker	1	L	8	0	38	0		0	0	78.8673132	78.9672985
23026.75	0.0999846	16	hunger	stimuli/foods\broccoli.jpg	1	1	1	broccoli	1	K	7	0	13	1	a	0.6917987	1	79.017313	79.1172976
23064.25	0.0999861	17	hunger	stimuli/non_foods\non-food_animate_gorilla.jpg	1	1	1	non-food_animate_gorilla	0	V	15	0	116	0		0	0	79.1673108	79.2672969
23101.75	0.0999832	18	hunger	stimuli/non_foods\non-food_animate_squirrel.jpg	1	1	1	non-food_animate_squirrel	0	F	3	0	150	0		0	0	79.3173103	79.4172935
23139.25	0.0999864	19	hunger	stimuli/non_foods\non-food_inanimate_gloves.jpg	1	1	1	non-food_inanimate_gloves	0	J	6	0	183	0		0	0	79.4673069	79.5672933
23176.75	0.0999874	20	hunger	stimuli/non_foods\non-food_animate_tortoise.jpg	1	1	1	non-food_animate_tortoise	0	F	3	0	153	0		0	0	79.6173074	79.7172948
23214.25	0.0999891	21	hunger	stimuli/non_foods\non-food_animate_kangaroo.jpg	1	1	1	non-food_animate_kangaroo	0	D	2	0	122	0		0	0	79.7673041	79.8672932
23251.75	0.0999546	22	hunger	stimuli/non_foods\non-food_animate_dachshund.jpg	1	1	1	non-food_animate_dachshund	0	W	16	0	104	0		0	0	79.9173487	80.0173033
23289.25	0.0999872	23	hunger	stimuli/foods\coconut.jpg	1	1	1	coconut	1	G	4	0	33	0		0	0	80.0673046	80.1672918
23326.75	0.0999901	24	hunger	stimuli/foods\fruit_pie.jpg	1	1	1	fruit_pie	1	S	13	0	54	0		0	0	80.2172984	80.3172885
23364.25	0.0999883	25	hunger	stimuli/non_foods\non-food_animate_horse.jpg	1	1	1	non-food_animate_horse	0	F	3	0	119	0		0	0	80.3673017	80.46729
23401.75	0.0999852	26	hunger	stimuli/non_foods\non-food_inanimate_soccer_ball.jpg	1	1	1	non-food_inanimate_soccer_ball	0	L	8	0	210	0		0	0	80.5172995	80.6172847
23439.25	0.0999909	27	hunger	stimuli/foods\pea_pod.jpg	1	1	1	pea_pod	1	K	7	0	237	0		0	0	80.6672955	80.7672864
23476.75	0.0999854	28	hunger	stimuli/foods\raw_sausage.jpg	1	1	1	raw_sausage	1	Z	18	0	254	0		0	0	80.817297	80.9172824
23514.25	0.0999693	29	hunger	stimuli/foods\hotdog.jpg	1	1	1	hotdog	1	H	5	0	67	0		0	0	80.9673133	81.0672826
23551.75	0.0999829	30	hunger	stimuli/non_foods\non-food_animate_hummingbird.jpg	1	1	1	non-food_animate_hummingbird	0	J	6	0	120	0		0	0	81.1172987	81.2172816
23589.25	0.0999848	31	hunger	stimuli/non_foods\non-food_inanimate_clover.jpg	1	1	1	non-food_inanimate_clover	0	H	5	0	174	0		0	0	81.2672945	81.3672793
23626.75	0.0999835	32	hunger	stimuli/foods\lettuce.jpg	1	1	1	lettuce	1	D	2	0	75	0		0	0	81.4172937	81.5172772
23664.25	0.1000366	33	hunger	stimuli/foods\peach.jpg	1	1	1	peach	1	M	9	0	238	0		0	0	81.5672879	81.6673245
23701.75	0.0999471	34	hunger	stimuli/non_foods\non-food_animate_owl.jpg	1	1	1	non-food_animate_owl	0	G	4	0	132	0		0	0	81.7173282	81.8172753
23739.25	0.0999897	35	hunger	stimuli/non_foods\non-food_animate_monkey.jpg	1	1	1	non-food_animate_monkey	0	M	9	0	130	0		0	0	81.8672862	81.9672759
23776.75	0.0999858	36	hunger	stimuli/foods\beetroots.jpg	1	1	1	beetroots	1	J	6	0	10	0		0	0	82.0172884	82.1172742
23814.25	0.0999801	37	hunger	stimuli/foods\cooked_prawn.jpg	1	1	1	cooked_prawn	1	N	10	0	36	0		0	0	82.1672901	82.2672702
23851.75	0.0999895	38	hunger	stimuli/foods\brownie.jpg	1	1	1	brownie	1	D	2	0	14	0		0	0	82.3172853	82.4172748
23889.25	0.0999823	39	hunger	stimuli/foods\pear.jpg	1	1	1	pear	1	F	3	0	239	0		0	0	82.4672882	82.5672705
23926.75	0.0999871	40	hunger	stimuli/non_foods\non-food_animate_porcupine.jpg	1	1	1	non-food_animate_porcupine	0	T	14	0	138	0		0	0	82.6172817	82.7172688
23964.25	0.0999811	41	hunger	stimuli/non_foods\non-food_animate_grasshopper.jpg	1	1	1	non-food_animate_grasshopper	0	R	12	0	117	0		0	0	82.7672964	82.8672775
24001.75	0.0999832	42	hunger	stimuli/foods\asparagus.jpg	1	1	1	asparagus	1	V	15	0	4	1	a	0	0	82.9172809	83.0172641
24039.25	0.0999844	43	hunger	stimuli/foods\clams.jpg	1	1	1	clams	1	M	9	0	32	0		0	0	83.0672812	83.1672656
24076.75	0.0999835	44	hunger	stimuli/non_foods\non-food_inanimate_alarm_clock.jpg	1	1	1	non-food_inanimate_alarm_clock	0	X	17	0	158	0		0	0	83.2172777	83.3172612
24114.25	0.1000091	45	hunger	stimuli/foods\celery.jpg	1	1	1	celery	1	R	12	0	21	0		0	0	83.3672906	83.4672997
24151.75	0.0999633	46	hunger	stimuli/foods\green_beans.jpg	1	1	1	green_beans	1	J	6	0	61	0		0	0	83.5172992	83.6172625
24189.25	0.0999834	47	hunger	stimuli/non_foods\non-food_inanimate_wrench.jpg	1	1	1	non-food_inanimate_wrench	0	D	2	0	227	0		0	0	83.6672742	83.7672576
24226.75	0.0999871	48	hunger	stimuli/non_foods\non-food_inanimate_bamboo.jpg	1	1	1	non-food_inanimate_bamboo	0	S	13	0	159	0		0	0	83.8172743	83.9172614
24264.25	0.0999809	49	hunger	stimuli/foods\carrot.jpg	1	1	1	carrot	1	V	15	0	19	0		0	0	83.9672733	84.0672542
24301.75	0.0999883	50	hunger	stimuli/foods\waffle.jpg	1	1	1	waffle	1	T	14	0	278	0		0	0	84.117267	84.2172553
24339.25	0.0999849	51	hunger	stimuli/foods\chilli.jpg	1	1	1	chilli	1	X	17	0	25	0		0	0	84.2672696	84.3672545
24376.75	0.0999912	52	hunger	stimuli/non_foods\non-food_animate_mammoth.jpg	1	1	1	non-food_animate_mammoth	0	V	15	0	128	0		0	0	84.4172628	84.517254
24414.25	0.0999716	53	hunger	stimuli/non_foods\non-food_animate_skunk.jpg	1	1	1	non-food_animate_skunk	0	L	8	0	147	0		0	0	84.5672823	84.6672539
24451.75	0.0999844	54	hunger	stimuli/foods\spring_onions.jpg	1	1	1	spring_onions	1	N	10	0	269	0		0	0	84.7172681	84.8172525
24489.25	0.0999863	55	hunger	stimuli/foods\rice_cake.jpg	1	1	1	rice_cake	1	R	12	0	258	0		0	0	84.8672613	84.9672476
24526.75	0.0999888	56	hunger	stimuli/foods\omelette.jpg	1	1	1	omelette	1	J	6	0	228	0		0	0	85.0172616	85.1172504
24564.25	0.099997	57	hunger	stimuli/foods\onion.jpg	1	1	1	onion	1	M	9	0	229	0		0	0	85.1672754	85.2672724
24601.75	0.099949	58	hunger	stimuli/non_foods\non-food_inanimate_sun_flower.jpg	1	1	1	non-food_inanimate_sun_flower	0	J	6	0	216	0		0	0	85.3172964	85.4172454
24639.25	0.0999869	59	hunger	stimuli/foods\grapes.jpg	1	1	1	grapes	1	W	16	0	60	0		0	0	85.4672594	85.5672463
24676.75	0.0999864	60	hunger	stimuli/foods\spinach.jpg	1	1	1	spinach	1	K	7	0	268	0		0	0	85.6172546	85.717241
24714.25	0.0999883	61	hunger	stimuli/non_foods\non-food_inanimate_bed.jpg	1	1	1	non-food_inanimate_bed	0	Z	18	0	160	0		0	0	85.7672562	85.8672445
24751.75	0.0999842	62	hunger	stimuli/non_foods\non-food_animate_parrot.jpg	1	1	1	non-food_animate_parrot	0	J	6	0	133	0		0	0	85.917257	86.0172412
24789.25	0.0999779	63	hunger	stimuli/non_foods\non-food_animate_young_boy.jpg	1	1	1	non-food_animate_young_boy	0	W	16	0	156	0		0	0	86.0672547	86.1672326
24826.75	0.0999831	64	hunger	stimuli/foods\artichoke.jpg	1	1	1	artichoke	1	N	10	0	3	0		0	0	86.2172571	86.3172402
24864.25	0.1000645	65	hunger	stimuli/non_foods\non-food_animate_slug.jpg	1	1	1	non-food_animate_slug	0	T	14	0	148	0		0	0	86.3672291	86.4672936
24901.75	0.0999835	66	hunger	stimuli/foods\rockmelon.jpg	1	1	1	rockmelon	1	G	4	0	262	0		0	0	86.5172541	86.6172376
24939.25	0.099982	67	hunger	stimuli/foods\ginger_root.jpg	1	1	1	ginger_root	1	R	12	0	57	0		0	0	86.6672526	86.7672346
24976.75	0.0999823	68	hunger	stimuli/non_foods\non-food_inanimate_teddy_bear.jpg	1	1	1	non-food_inanimate_teddy_bear	0	W	16	0	218	0		0	0	86.8172511	86.9172334
25014.25	0.0999865	69	hunger	stimuli/non_foods\non-food_animate_eagle.jpg	1	1	1	non-food_animate_eagle	0	K	7	0	110	0		0	0	86.9672609	87.0672474
25051.75	0.0999652	70	hunger	stimuli/foods\papaya.jpg	1	1	1	papaya	1	M	9	0	235	0		0	0	87.1172653	87.2172305
25089.25	0.099985	71	hunger	stimuli/foods\pomegranate.jpg	1	1	1	pomegranate	1	K	7	0	244	0		0	0	87.2672457	87.3672307
25126.75	0.0999825	72	hunger	stimuli/non_foods\non-food_animate_rhino.jpg	1	1	1	non-food_animate_rhino	0	W	16	0	141	0		0	0	87.4172494	87.5172319
25164.25	0.0999882	73	hunger	stimuli/non_foods\non-food_inanimate_headphones.jpg	1	1	1	non-food_inanimate_headphones	0	B	0	0	188	0		0	0	87.5672417	87.6672299
25201.75	0.0999862	74	hunger	stimuli/foods\lollies.jpg	1	1	1	lollies	1	Z	18	0	78	0		0	0	87.7172421	87.8172283
25239.25	0.0999856	75	hunger	stimuli/non_foods\non-food_animate_seal.jpg	1	1	1	non-food_animate_seal	0	G	4	0	146	0		0	0	87.8672398	87.9672254
25276.75	0.1000088	76	hunger	stimuli/foods\green_olives.jpg	1	1	1	green_olives	1	L	8	0	62	0		0	0	88.0172368	88.1172456
25314.25	0.0999699	77	hunger	stimuli/foods\chocolate_chip_cookies.jpg	1	1	1	chocolate_chip_cookies	1	X	17	0	27	0		0	0	88.1672549	88.2672248
25351.75	0.0999866	78	hunger	stimuli/non_foods\non-food_inanimate_waterlily.jpg	1	1	1	non-food_inanimate_waterlily	0	W	16	0	226	0		0	0	88.3172368	88.4172234
25389.25	0.0999876	79	hunger	stimuli/foods\figs.jpg	1	1	1	figs	1	C	1	0	48	0		0	0	88.4672338	88.5672214
25426.75	0.0999863	80	hunger	stimuli/foods\peas.jpg	1	1	1	peas	1	R	12	0	240	0		0	0	88.6172325	88.7172188
25464.25	0.0999506	81	hunger	stimuli/foods\eggplant.jpg	1	1	1	eggplant	1	V	15	0	46	0		0	0	88.7672656	88.8672162
25501.75	0.0999713	82	hunger	stimuli/non_foods\non-food_animate_killer_whale.jpg	1	1	1	non-food_animate_killer_whale	0	R	12	0	123	0		0	0	88.9172461	89.0172174
25539.25	0.0999861	83	hunger	stimuli/foods\pasta_carbonara.jpg	1	1	1	pasta_carbonara	1	X	17	0	236	0		0	0	89.0672307	89.1672168
25576.75	0.099985	84	hunger	stimuli/non_foods\non-food_inanimate_stoplight.jpg	1	1	1	non-food_inanimate_stoplight	0	B	0	0	214	0		0	0	89.2172286	89.3172136
25614.25	0.0999888	85	hunger	stimuli/non_foods\non-food_inanimate_fern.jpg	1	1	1	non-food_inanimate_fern	0	N	10	0	180	0		0	0	89.3672257	89.4672145
25651.75	0.0999878	86	hunger	stimuli/foods\hazelnuts.jpg	1	1	1	hazelnuts	1	K	7	0	65	0		0	0	89.5172245	89.6172123
25689.25	0.0999905	87	hunger	stimuli/foods\pineapple.jpg	1	1	1	pineapple	1	G	4	0	243	0		0	0	89.6672222	89.7672127
25726.75	0.0999857	88	hunger	stimuli/non_foods\non-food_animate_cheetah.jpg	1	1	1	non-food_animate_cheetah	0	D	2	0	100	0		0	0	89.8172235	89.9172092
25764.25	0.0999896	89	hunger	stimuli/foods\rice.jpg	1	1	1	rice	1	K	7	0	257	0		0	0	89.9672208	90.0672104
25801.75	0.0999858	90	hunger	stimuli/foods\risotto_with_peas_and_asparagus_tips.jpg	1	1	1	risotto_with_peas_and_asparagus_tips	1	T	14	0	259	0		0	0	90.1172219	90.2172077
25839.25	0.0999906	91	hunger	stimuli/foods\pickles.jpg	1	1	1	pickles	1	J	6	0	242	0		0	0	90.2672157	90.3672063
25876.75	0.1000015	92	hunger	stimuli/foods\salmon.jpg	1	1	1	salmon	1	H	5	0	264	0		0	0	90.417217	90.5172185
25914.25	0.0999409	93	hunger	stimuli/non_foods\non-food_inanimate_speakers.jpg	1	1	1	non-food_inanimate_speakers	0	J	6	0	212	0		0	0	90.5672655	90.6672064
25951.75	0.0999898	94	hunger	stimuli/non_foods\non-food_inanimate_couch.jpg	1	1	1	non-food_inanimate_couch	0	F	3	0	176	0		0	0	90.7172132	90.817203
25989.25	0.0999878	95	hunger	stimuli/foods\raw_ham.jpg	1	1	1	raw_ham	1	W	16	0	253	0		0	0	90.8672138	90.9672016
26026.75	0.0999894	96	hunger	stimuli/non_foods\non-food_animate_giraffe.jpg	1	1	1	non-food_animate_giraffe	0	M	9	0	115	0		0	0	91.017211	91.1172004
26064.25	0.0999888	97	hunger	stimuli/foods\fries.jpg	1	1	1	fries	1	G	4	0	52	0		0	0	91.1672108	91.2671996
26101.75	0.0999869	98	hunger	stimuli/foods\baked_cod_with_carrots_and_green_beans.jpg	1	1	1	baked_cod_with_carrots_and_green_beans	1	C	1	0	7	0		0	0	91.3172141	91.417201
26139.25	0.099986	99	hunger	stimuli/non_foods\non-food_inanimate_pine_cone.jpg	1	1	1	non-food_inanimate_pine_cone	0	H	5	0	200	0		0	0	91.4672103	91.5671963
26176.75	0.0999883	100	hunger	stimuli/foods\brie.jpg	1	1	1	brie	1	X	17	0	12	0		0	0	91.6172093	91.7171976
26214.25	0.099985	101	hunger	stimuli/foods\smoked_ham.jpg	1	1	1	smoked_ham	1	J	6	0	266	0		0	0	91.7672081	91.8671931
26251.75	0.0999856	102	hunger	stimuli/foods\pepperoni_pizza.jpg	1	1	1	pepperoni_pizza	1	R	12	0	241	0		0	0	91.9172075	92.0171931
26289.25	0.0999906	103	hunger	stimuli/non_foods\non-food_animate_frog.jpg	1	1	1	non-food_animate_frog	0	S	13	0	113	0		0	0	92.0672062	92.1671968
26326.75	0.0999831	104	hunger	stimuli/non_foods\non-food_animate_millipede.jpg	1	1	1	non-food_animate_millipede	0	L	8	0	129	0		0	0	92.2172035	92.3171866
26364.25	0.0999465	105	hunger	stimuli/foods\hamburger.jpg	1	1	1	hamburger	1	B	0	0	64	0		0	0	92.3672442	92.4671907
26401.75	0.0999857	106	hunger	stimuli/foods\corncob.jpg	1	1	1	corncob	1	P	11	0	37	0		0	0	92.5172024	92.6171881
26439.25	0.0999836	107	hunger	stimuli/foods\fruit_salad.jpg	1	1	1	fruit_salad	1	S	13	0	55	0		0	0	92.6672017	92.7671853
26476.75	0.0999875	108	hunger	stimuli/foods\oyster.jpg	1	1	1	oyster	1	J	6	0	233	0		0	0	92.8172	92.9171875
26514.25	0.0999819	109	hunger	stimuli/foods\garlic.jpg	1	1	1	garlic	1	S	13	0	56	0		0	0	92.967201	93.0671829
26551.75	0.0999904	110	hunger	stimuli/non_foods\non-food_animate_runner.jpg	1	1	1	non-food_animate_runner	0	M	9	0	142	0		0	0	93.1171931	93.2171835
26589.25	0.0999824	111	hunger	stimuli/non_foods\non-food_animate_polar_bear.jpg	1	1	1	non-food_animate_polar_bear	0	G	4	0	137	0		0	0	93.2671992	93.3671816
26626.75	0.0999641	112	hunger	stimuli/non_foods\non-food_inanimate_bucket.jpg	1	1	1	non-food_inanimate_bucket	0	T	14	0	165	0		0	0	93.4172161	93.5171802
26664.25	0.0999934	113	hunger	stimuli/non_foods\non-food_inanimate_padlock.jpg	1	1	1	non-food_inanimate_padlock	0	H	5	0	199	0		0	0	93.5671958	93.6671892
26701.75	0.0999825	114	hunger	stimuli/foods\minestrone_soup.jpg	1	1	1	minestrone_soup	1	N	10	0	82	0		0	0	93.7171963	93.8171788
26739.25	0.0999847	115	hunger	stimuli/foods\fennel.jpg	1	1	1	fennel	1	F	3	0	47	0		0	0	93.8671918	93.9671765
26776.75	0.1000091	116	hunger	stimuli/non_foods\non-food_inanimate_skirt.jpg	1	1	1	non-food_inanimate_skirt	0	U	23	1	209	0		0	0	94.0171923	94.1172014
26814.25	0.099943	117	hunger	stimuli/foods\chocolate_pralines.jpg	1	1	1	chocolate_pralines	1	L	8	0	28	0		0	0	94.1672314	94.2671744
26851.75	0.0999881	118	hunger	stimuli/foods\cereal.jpg	1	1	1	cereal	1	F	3	0	22	0		0	0	94.3171887	94.4171768
26889.25	0.0999842	119	hunger	stimuli/non_foods\non-food_inanimate_skateboard.jpg	1	1	1	non-food_inanimate_skateboard	0	M	9	0	208	1	a	0.5418213	1	94.4671883	94.5671725
26926.75	0.0999845	120	hunger	stimuli/foods\nectarine.jpg	1	1	1	nectarine	1	S	13	0	87	0		0	0	94.617187	94.7171715
26964.25	0.0999877	121	hunger	stimuli/non_foods\non-food_animate_seahorse.jpg	1	1	1	non-food_animate_seahorse	0	R	12	0	145	0		0	0	94.7671826	94.8671703
27001.75	0.0999848	122	hunger	stimuli/non_foods\non-food_animate_sea_turtle.jpg	1	1	1	non-food_animate_sea_turtle	0	L	8	0	144	0		0	0	94.9171819	95.0171667
27039.25	0.099988	123	hunger	stimuli/non_foods\non-food_inanimate_chandelier.jpg	1	1	1	non-food_inanimate_chandelier	0	J	6	0	173	0		0	0	95.0671793	95.1671673
27076.75	0.0999717	124	hunger	stimuli/foods\risotto_with_zucchini.jpg	1	1	1	risotto_with_zucchini	1	H	5	0	260	0		0	0	95.2171973	95.317169
27114.25	0.0999841	125	hunger	stimuli/non_foods\non-food_inanimate_moss.jpg	1	1	1	non-food_inanimate_moss	0	P	11	0	194	0		0	0	95.3671811	95.4671652
27151.75	0.0999934	126	hunger	stimuli/foods\avocado.jpg	1	1	1	avocado	1	D	2	0	5	0		0	0	95.5171743	95.6171677
27189.25	0.0999845	127	hunger	stimuli/non_foods\non-food_inanimate_desk.jpg	1	1	1	non-food_inanimate_desk	0	M	9	0	178	0		0	0	95.6671783	95.7671628
27226.75	0.1000182	128	hunger	stimuli/non_foods\non-food_inanimate_hay.jpg	1	1	1	non-food_inanimate_hay	0	X	17	0	187	0		0	0	95.8171897	95.9172079
27264.25	0.0999643	129	hunger	stimuli/foods\mandarin.jpg	1	1	1	mandarin	1	B	0	0	79	0		0	0	95.9671964	96.0671607
27301.75	0.0999842	130	hunger	stimuli/non_foods\non-food_inanimate_stapler.jpg	1	1	1	non-food_inanimate_stapler	0	N	10	0	213	0		0	0	96.1171747	96.2171589
27339.25	0.0999856	131	hunger	stimuli/foods\raisins.jpg	1	1	1	raisins	1	V	15	0	252	0		0	0	96.2671688	96.3671544
27376.75	0.0999793	132	hunger	stimuli/foods\egg.jpg	1	1	1	egg	1	T	14	0	45	0		0	0	96.4171763	96.5171556
27414.25	0.0999931	133	hunger	stimuli/non_foods\non-food_animate_deer.jpg	1	1	1	non-food_animate_deer	0	P	11	0	105	0		0	0	96.5671634	96.6671565
27451.75	0.0999902	134	hunger	stimuli/foods\museli_bars.jpg	1	1	1	museli_bars	1	X	17	0	84	0		0	0	96.7171656	96.8171558
27489.25	0.0999831	135	hunger	stimuli/foods\grapefruits.jpg	1	1	1	grapefruits	1	K	7	0	59	0		0	0	96.867169	96.9671521
27526.75	0.0999882	136	hunger	stimuli/non_foods\non-food_inanimate_toilet.jpg	1	1	1	non-food_inanimate_toilet	0	S	13	0	220	0		0	0	97.017164	97.1171522
27564.25	0.0999705	137	hunger	stimuli/non_foods\non-food_animate_dolphin.jpg	1	1	1	non-food_animate_dolphin	0	M	9	0	106	0		0	0	97.1671805	97.267151
27601.75	0.0999862	138	hunger	stimuli/foods\cupcake.jpg	1	1	1	cupcake	1	T	14	0	42	0		0	0	97.3171636	97.4171498
27639.25	0.0999883	139	hunger	stimuli/foods\pancakes.jpg	1	1	1	pancakes	1	W	16	0	234	0		0	0	97.4671613	97.5671496
28664.25	0.0999827	140	hunger	stimuli/foods\ice_cream.jpg	1	2	1	ice_cream	1	P	11	0	68	0		0	0	101.5671359	101.6671186
28701.75	0.0999854	141	hunger	stimuli/non_foods\non-food_inanimate_chair.jpg	1	2	1	non-food_inanimate_chair	0	N	10	0	172	0		0	0	101.7171114	101.8170968
28739.25	0.0999847	142	hunger	stimuli/non_foods\non-food_animate_lizard.jpg	1	2	1	non-food_animate_lizard	0	G	4	0	126	0		0	0	101.8671269	101.9671116
28776.75	0.0999756	143	hunger	stimuli/foods\tomato.jpg	1	2	1	tomato	1	T	14	0	276	0		0	0	102.0171276	102.1171032
28814.25	0.0999861	144	hunger	stimuli/foods\fruit_flan.jpg	1	2	1	fruit_flan	1	K	7	0	53	0		0	0	102.1671232	102.2671093
28851.75	0.1000008	145	hunger	stimuli/non_foods\non-food_inanimate_short_sleeved_shirt.jpg	1	2	1	non-food_inanimate_short_sleeved_shirt	0	N	10	0	207	0		0	0	102.3171216	102.4171224
28889.25	0.0999733	146	hunger	stimuli/non_foods\non-food_inanimate_tent.jpg	1	2	1	non-food_inanimate_tent	0	R	12	0	219	0		0	0	102.4671293	102.5671026
28926.75	0.0999755	147	hunger	stimuli/foods\mango.jpg	1	2	1	mango	1	W	16	0	80	0		0	0	102.6171211	102.7170966
28964.25	0.0999846	148	hunger	stimuli/non_foods\non-food_animate_cow.jpg	1	2	1	non-food_animate_cow	0	Z	18	0	103	0		0	0	102.7671113	102.8670959
29001.75	0.099984	149	hunger	stimuli/non_foods\non-food_animate_woman.jpg	1	2	1	non-food_animate_woman	0	J	6	0	154	0		0	0	102.9171224	103.0171064
29039.25	0.1000093	150	hunger	stimuli/non_foods\non-food_inanimate_towel.jpg	1	2	1	non-food_inanimate_towel	0	L	8	0	221	0		0	0	103.0670919	103.1671012
29076.75	0.0999899	151	hunger	stimuli/foods\mushroom.jpg	1	2	1	mushroom	1	S	13	0	85	0		0	0	103.2171142	103.3171041
29114.25	0.0999818	152	hunger	stimuli/non_foods\non-food_animate_german_shepherd.jpg	1	2	1	non-food_animate_german_shepherd	0	D	2	0	114	0		0	0	103.3671164	103.4670982
29151.75	0.0999856	153	hunger	stimuli/non_foods\non-food_animate_chicken.jpg	1	2	1	non-food_animate_chicken	0	H	5	0	101	0		0	0	103.5171117	103.6170973
29189.25	0.099958	154	hunger	stimuli/non_foods\non-food_animate_bat.jpg	1	2	1	non-food_animate_bat	0	R	12	0	94	0		0	0	103.6671307	103.7670887
29226.75	0.1000073	155	hunger	stimuli/non_foods\non-food_inanimate_cupboard.jpg	1	2	1	non-food_inanimate_cupboard	0	J	6	0	177	0		0	0	103.817108	103.9171153
29264.25	0.0999849	156	hunger	stimuli/foods\honey.jpg	1	2	1	honey	1	A	19	1	66	0		0	0	103.9671096	104.0670945
29301.75	0.1000207	157	hunger	stimuli/foods\frankfurter_and_provolone_salad.jpg	1	2	1	frankfurter_and_provolone_salad	1	K	7	0	49	0		0	0	104.1171066	104.2171273
29339.25	0.0999386	158	hunger	stimuli/non_foods\non-food_animate_baby_sitting.jpg	1	2	1	non-food_animate_baby_sitting	0	M	9	0	93	0		0	0	104.2671518	104.3670904
29376.75	0.0999875	159	hunger	stimuli/non_foods\non-food_animate_alligator.jpg	1	2	1	non-food_animate_alligator	0	F	3	0	90	1	a	0.5418202	1	104.4171047	104.5170922
29414.25	0.0999858	160	hunger	stimuli/non_foods\non-food_inanimate_grass.jpg	1	2	1	non-food_inanimate_grass	0	H	5	0	184	0		0	0	104.5671062	104.667092
29451.75	0.0999869	161	hunger	stimuli/foods\bagel.jpg	1	2	1	bagel	1	M	9	0	6	0		0	0	104.7171034	104.8170903
29489.25	0.0999943	162	hunger	stimuli/non_foods\non-food_animate_llama.jpg	1	2	1	non-food_animate_llama	0	T	14	0	127	0		0	0	104.8670914	104.9670857
29526.75	0.0999779	163	hunger	stimuli/non_foods\non-food_animate_pigeon.jpg	1	2	1	non-food_animate_pigeon	0	W	16	0	136	0		0	0	105.0171001	105.117078
29564.25	0.0999959	164	hunger	stimuli/foods\salami.jpg	1	2	1	salami	1	H	5	0	263	0		0	0	105.1671003	105.2670962
29601.75	0.1000097	165	hunger	stimuli/non_foods\non-food_inanimate_shell.jpg	1	2	1	non-food_inanimate_shell	0	F	3	0	206	0		0	0	105.3170768	105.4170865
29639.25	0.0999866	166	hunger	stimuli/foods\red_beans.jpg	1	2	1	red_beans	1	B	0	0	255	0		0	0	105.4670959	105.5670825
29676.75	0.0999676	167	hunger	stimuli/non_foods\non-food_animate_peacock.jpg	1	2	1	non-food_animate_peacock	0	G	4	0	134	0		0	0	105.617118	105.7170856
29714.25	0.0999842	168	hunger	stimuli/foods\grilled_chicken_breast.jpg	1	2	1	grilled_chicken_breast	1	F	3	0	63	0		0	0	105.7670967	105.8670809
29751.75	0.0999954	169	hunger	stimuli/foods\red_cabbage.jpg	1	2	1	red_cabbage	1	X	17	0	256	0		0	0	105.9170939	106.0170893
29789.25	0.0999641	170	hunger	stimuli/foods\wafer.jpg	1	2	1	wafer	1	F	3	0	277	0		0	0	106.067115	106.1670791
29826.75	0.0999873	171	hunger	stimuli/non_foods\non-food_inanimate_nettle.jpg	1	2	1	non-food_inanimate_nettle	0	T	14	0	197	0		0	0	106.2170911	106.3170784
29864.25	0.0999858	172	hunger	stimuli/non_foods\non-food_inanimate_cactus_pot_plant.jpg	1	2	1	non-food_inanimate_cactus_pot_plant	0	D	2	0	169	0		0	0	106.3670908	106.4670766
29901.75	0.0999851	173	hunger	stimuli/foods\cream_donuts.jpg	1	2	1	cream_donuts	1	H	5	0	39	0		0	0	106.5170894	106.6170745
29939.25	0.0999864	174	hunger	stimuli/foods\oregano.jpg	1	2	1	oregano	1	K	7	0	231	0		0	0	106.6670876	106.767074
29976.75	0.0999866	175	hunger	stimuli/non_foods\non-food_inanimate_suitcase.jpg	1	2	1	non-food_inanimate_suitcase	0	N	10	0	215	0		0	0	106.8170898	106.9170764
30014.25	0.0999842	176	hunger	stimuli/foods\linguine_with_clams.jpg	1	2	1	linguine_with_clams	1	T	14	0	77	0		0	0	106.9670865	107.0670707
30051.75	0.0999798	177	hunger	stimuli/non_foods\non-food_inanimate_button.jpg	1	2	1	non-food_inanimate_button	0	F	3	0	168	0		0	0	107.1170926	107.2170724
30089.25	0.099984	178	hunger	stimuli/non_foods\non-food_animate_penguin.jpg	1	2	1	non-food_animate_penguin	0	H	5	0	135	0		0	0	107.2670852	107.3670692
30126.75	0.0999853	179	hunger	stimuli/foods\watermelon.jpg	1	2	1	watermelon	1	R	12	0	279	0		0	0	107.4170823	107.5170676
30164.25	0.0999875	180	hunger	stimuli/foods\kiwi.jpg	1	2	1	kiwi	1	H	5	0	69	0		0	0	107.5670821	107.6670696
30201.75	0.099995	181	hunger	stimuli/foods\blackberry.jpg	1	2	1	blackberry	1	V	15	0	11	0		0	0	107.7170839	107.8170789
30239.25	0.0999838	182	hunger	stimuli/foods\croissant.jpg	1	2	1	croissant	1	B	0	0	40	0		0	0	107.8670935	107.9670773
30276.75	0.0999862	183	hunger	stimuli/non_foods\non-food_inanimate_rope.jpg	1	2	1	non-food_inanimate_rope	0	W	16	0	204	0		0	0	108.0170782	108.1170644
30314.25	0.0999857	184	hunger	stimuli/non_foods\non-food_inanimate_protractor.jpg	1	2	1	non-food_inanimate_protractor	0	M	9	0	201	0		0	0	108.1670754	108.2670611
30351.75	0.0999865	185	hunger	stimuli/non_foods\non-food_inanimate_nest.jpg	1	2	1	non-food_inanimate_nest	0	T	14	0	196	0		0	0	108.3170755	108.417062
30389.25	0.0999906	186	hunger	stimuli/non_foods\non-food_animate_donkey.jpg	1	2	1	non-food_animate_donkey	0	K	7	0	107	0		0	0	108.4670674	108.567058
30426.75	0.0999871	187	hunger	stimuli/non_foods\non-food_animate_fox.jpg	1	2	1	non-food_animate_fox	0	W	16	0	112	0		0	0	108.6170724	108.7170595
30464.25	0.0999867	188	hunger	stimuli/non_foods\non-food_animate_butterfly.jpg	1	2	1	non-food_animate_butterfly	0	H	5	0	96	0		0	0	108.7670718	108.8670585
30501.75	0.0999837	189	hunger	stimuli/foods\cinnamon.jpg	1	2	1	cinnamon	1	S	13	0	30	0		0	0	108.9170711	109.0170548
30539.25	0.0999848	190	hunger	stimuli/non_foods\non-food_animate_camel.jpg	1	2	1	non-food_animate_camel	0	W	16	0	97	0		0	0	109.0670719	109.1670567
30576.75	0.0999835	191	hunger	stimuli/non_foods\non-food_animate_cat.jpg	1	2	1	non-food_animate_cat	0	X	17	0	98	0		0	0	109.2170694	109.3170529
30614.25	0.0999856	192	hunger	stimuli/non_foods\non-food_inanimate_socks.jpg	1	2	1	non-food_inanimate_socks	0	B	0	0	211	0		0	0	109.3670664	109.467052
30651.75	0.0999897	193	hunger	stimuli/foods\lamb_chops.jpg	1	2	1	lamb_chops	1	L	8	0	70	0		0	0	109.5170788	109.6170685
30689.25	0.0999853	194	hunger	stimuli/non_foods\non-food_inanimate_bowling_ball.jpg	1	2	1	non-food_inanimate_bowling_ball	0	M	9	0	162	0		0	0	109.6670669	109.7670522
30726.75	0.1000128	195	hunger	stimuli/non_foods\non-food_inanimate_briefcase.jpg	1	2	1	non-food_inanimate_briefcase	0	L	8	0	163	0		0	0	109.8170394	109.9170522
30764.25	0.0999882	196	hunger	stimuli/foods\stew_with_potatoes_and_carrots.jpg	1	2	1	stew_with_potatoes_and_carrots	1	W	16	0	271	0		0	0	109.9670606	110.0670488
30801.75	0.0999899	197	hunger	stimuli/foods\mortadella.jpg	1	2	1	mortadella	1	H	5	0	83	0		0	0	110.1170589	110.2170488
30839.25	0.0999806	198	hunger	stimuli/non_foods\non-food_inanimate_canoe.jpg	1	2	1	non-food_inanimate_canoe	0	F	3	0	170	0		0	0	110.2670588	110.3670394
30876.75	0.099966	199	hunger	stimuli/non_foods\non-food_animate_sea_lion.jpg	1	2	1	non-food_animate_sea_lion	0	C	1	0	143	0		0	0	110.4170519	110.5170179
30914.25	0.0999823	200	hunger	stimuli/non_foods\non-food_inanimate_tulip.jpg	1	2	1	non-food_inanimate_tulip	0	F	3	0	224	0		0	0	110.5670587	110.667041
30951.75	0.0999624	201	hunger	stimuli/foods\coffee_beans.jpg	1	2	1	coffee_beans	1	P	11	0	34	0		0	0	110.7170787	110.8170411
30989.25	0.099985	202	hunger	stimuli/foods\radish.jpg	1	2	1	radish	1	K	7	0	251	0		0	0	110.867055	110.96704
31026.75	0.0999861	203	hunger	stimuli/foods\cooked_ham.jpg	1	2	1	cooked_ham	1	X	17	0	35	0		0	0	111.0170553	111.1170414
31064.25	0.0999911	204	hunger	stimuli/non_foods\non-food_inanimate_bush.jpg	1	2	1	non-food_inanimate_bush	0	W	16	0	167	0		0	0	111.1670509	111.267042
31101.75	0.1000093	205	hunger	stimuli/non_foods\non-food_animate_yellow_bug.jpg	1	2	1	non-food_animate_yellow_bug	0	H	5	0	155	0		0	0	111.3170591	111.4170684
31139.25	0.0999658	206	hunger	stimuli/non_foods\non-food_animate_ladybug.jpg	1	2	1	non-food_animate_ladybug	0	T	14	0	124	0		0	0	111.4670709	111.5670367
31176.75	0.0999855	207	hunger	stimuli/foods\brussel_sprouts.jpg	1	2	1	brussel_sprouts	1	Z	18	0	15	0		0	0	111.6170503	111.7170358
31214.25	0.099986	208	hunger	stimuli/non_foods\non-food_animate_Asian_man.jpg	1	2	1	non-food_animate_Asian_man	0	G	4	0	88	0		0	0	111.7670463	111.8670323
31251.75	0.0999814	209	hunger	stimuli/non_foods\non-food_inanimate_ring.jpg	1	2	1	non-food_inanimate_ring	0	W	16	0	203	0		0	0	111.9170496	112.017031
31289.25	0.0999903	210	hunger	stimuli/foods\steak.jpg	1	2	1	steak	1	T	14	0	270	0		0	0	112.0670416	112.1670319
31326.75	0.0999869	211	hunger	stimuli/non_foods\non-food_inanimate_drum_set.jpg	1	2	1	non-food_inanimate_drum_set	0	S	13	0	179	0		0	0	112.2170457	112.3170326
31364.25	0.0999988	212	hunger	stimuli/non_foods\non-food_animate_duck.jpg	1	2	1	non-food_animate_duck	0	X	17	0	109	0		0	0	112.3670422	112.467041
31401.75	0.099987	213	hunger	stimuli/foods\dates.jpg	1	2	1	dates	1	U	23	1	43	0		0	0	112.5170404	112.6170274
31439.25	0.099982	214	hunger	stimuli/non_foods\non-food_animate_green_bug.jpg	1	2	1	non-food_animate_green_bug	0	F	3	0	118	0		0	0	112.6670424	112.7670244
31476.75	0.0999835	215	hunger	stimuli/foods\mussels.jpg	1	2	1	mussels	1	P	11	0	86	0		0	0	112.8170393	112.9170228
31514.25	0.1000031	216	hunger	stimuli/non_foods\non-food_animate_elephant.jpg	1	2	1	non-food_animate_elephant	0	G	4	0	111	1	a	0.5418213	1	112.9670355	113.0670386
31551.75	0.0999623	217	hunger	stimuli/non_foods\non-food_inanimate_cap.jpg	1	2	1	non-food_inanimate_cap	0	W	16	0	171	0		0	0	113.1170604	113.2170227
31589.25	0.0999836	218	hunger	stimuli/non_foods\non-food_inanimate_construction_helment.jpg	1	2	1	non-food_inanimate_construction_helment	0	T	14	0	175	0		0	0	113.2670344	113.367018
31626.75	0.0999858	219	hunger	stimuli/foods\cabbage.jpg	1	2	1	cabbage	1	G	4	0	16	0		0	0	113.4170358	113.5170216
31664.25	0.0999838	220	hunger	stimuli/non_foods\non-food_inanimate_horn.jpg	1	2	1	non-food_inanimate_horn	0	J	6	0	190	0		0	0	113.5670327	113.6670165
31701.75	0.0999847	221	hunger	stimuli/non_foods\non-food_inanimate_table.jpg	1	2	1	non-food_inanimate_table	0	K	7	0	217	0		0	0	113.7170307	113.8170154
31739.25	0.0999833	222	hunger	stimuli/foods\strawberry.jpg	1	2	1	strawberry	1	F	3	0	272	0		0	0	113.8670328	113.9670161
31776.75	0.0999835	223	hunger	stimuli/foods\swordfish.jpg	1	2	1	swordfish	1	S	13	0	273	0		0	0	114.0170295	114.117013
31814.25	0.0999893	224	hunger	stimuli/foods\lentils.jpg	1	2	1	lentils	1	K	7	0	74	0		0	0	114.1670257	114.267015
31851.75	0.0999839	225	hunger	stimuli/foods\almonds.jpg	1	2	1	almonds	1	S	13	0	0	0		0	0	114.3170289	114.4170128
31889.25	0.0999869	226	hunger	stimuli/foods\apricot.jpg	1	2	1	apricot	1	L	8	0	2	0		0	0	114.4670268	114.5670137
31926.75	0.0999847	227	hunger	stimuli/non_foods\non-food_inanimate_scissors.jpg	1	2	1	non-food_inanimate_scissors	0	M	9	0	205	0		0	0	114.6170294	114.7170141
31964.25	0.099998	228	hunger	stimuli/non_foods\non-food_inanimate_leaf.jpg	1	2	1	non-food_inanimate_leaf	0	F	3	0	192	0		0	0	114.767024	114.867022
32001.75	0.1000068	229	hunger	stimuli/non_foods\non-food_animate_raccoon.jpg	1	2	1	non-food_animate_raccoon	0	C	1	0	139	0		0	0	114.9170006	115.0170074
32039.25	0.0999847	230	hunger	stimuli/non_foods\non-food_animate_mouse.jpg	1	2	1	non-food_animate_mouse	0	R	12	0	131	0		0	0	115.0670212	115.1670059
32076.75	0.099992	231	hunger	stimuli/non_foods\non-food_inanimate_nailpolish.jpg	1	2	1	non-food_inanimate_nailpolish	0	V	15	0	195	0		0	0	115.2170181	115.3170101
32114.25	0.0999848	232	hunger	stimuli/foods\donut.jpg	1	2	1	donut	1	B	0	0	44	0		0	0	115.3670208	115.4670056
32151.75	0.0999879	233	hunger	stimuli/non_foods\non-food_animate_young_girl.jpg	1	2	1	non-food_animate_young_girl	0	D	2	0	157	0		0	0	115.5170148	115.6170027
32189.25	0.0999902	234	hunger	stimuli/non_foods\non-food_inanimate_guitar.jpg	1	2	1	non-food_inanimate_guitar	0	P	11	0	185	0		0	0	115.6670149	115.7670051
32226.75	0.0999819	235	hunger	stimuli/non_foods\non-food_inanimate_lighter.jpg	1	2	1	non-food_inanimate_lighter	0	W	16	0	193	0		0	0	115.8170174	115.9169993
32264.25	0.0999885	236	hunger	stimuli/non_foods\non-food_inanimate_orchid.jpg	1	2	1	non-food_inanimate_orchid	0	V	15	0	198	0		0	0	115.9670093	116.0669978
32301.75	0.0999857	237	hunger	stimuli/foods\fried_calamari.jpg	1	2	1	fried_calamari	1	S	13	0	50	0		0	0	116.1170147	116.2170004
32339.25	0.0999886	238	hunger	stimuli/foods\lemon.jpg	1	2	1	lemon	1	H	5	0	72	0		0	0	116.2670094	116.366998
32376.75	0.099987	239	hunger	stimuli/foods\baked_lamb_with_potatoes.jpg	1	2	1	baked_lamb_with_potatoes	1	J	6	0	8	0		0	0	116.417011	116.516998
32414.25	0.1000198	240	hunger	stimuli/non_foods\non-food_inanimate_fire_extinguisher.jpg	1	2	1	non-food_inanimate_fire_extinguisher	0	T	14	0	181	0		0	0	116.5670112	116.667031
32451.75	0.0999446	241	hunger	stimuli/non_foods\non-food_animate_snail.jpg	1	2	1	non-food_animate_snail	0	G	4	0	149	0		0	0	116.7170556	116.8170002
32489.25	0.0999895	242	hunger	stimuli/foods\potatoes.jpg	1	2	1	potatoes	1	R	12	0	248	0		0	0	116.867008	116.9669975
32526.75	0.0999813	243	hunger	stimuli/non_foods\non-food_animate_swan.jpg	1	2	1	non-food_animate_swan	0	X	17	0	152	0		0	0	117.0170076	117.1169889
32564.25	0.0999857	244	hunger	stimuli/foods\cauliflower.jpg	1	2	1	cauliflower	1	W	16	0	20	0		0	0	117.1670058	117.2669915
32601.75	0.0999828	245	hunger	stimuli/non_foods\non-food_animate_iguana.jpg	1	2	1	non-food_animate_iguana	0	L	8	0	121	0		0	0	117.3170069	117.4169897
32639.25	0.099983	246	hunger	stimuli/foods\pumpkin.jpg	1	2	1	pumpkin	1	N	10	0	250	0		0	0	117.4670034	117.5669864
32676.75	0.0999901	247	hunger	stimuli/foods\fried_zucchini.jpg	1	2	1	fried_zucchini	1	W	16	0	51	0		0	0	117.6169995	117.7169896
32714.25	0.0999649	248	hunger	stimuli/foods\capsicum.jpg	1	2	1	capsicum	1	X	17	0	18	0		0	0	117.7670202	117.8669851
32751.75	0.0999892	249	hunger	stimuli/foods\oven-roasted_tomatoes.jpg	1	2	1	oven-roasted_tomatoes	1	S	13	0	232	0		0	0	117.9169982	118.0169874
32789.25	0.099983	250	hunger	stimuli/non_foods\non-food_inanimate_broom.jpg	1	2	1	non-food_inanimate_broom	0	R	12	0	164	0		0	0	118.0670001	118.1669831
32826.75	0.0999835	251	hunger	stimuli/non_foods\non-food_inanimate_folding_chair.jpg	1	2	1	non-food_inanimate_folding_chair	0	T	14	0	182	0		0	0	118.2169973	118.3169808
32864.25	0.1000103	252	hunger	stimuli/non_foods\non-food_inanimate_buds.jpg	1	2	1	non-food_inanimate_buds	0	H	5	0	166	0		0	0	118.3669952	118.4670055
32901.75	0.0999492	253	hunger	stimuli/non_foods\non-food_animate_clown.jpg	1	2	1	non-food_animate_clown	0	I	21	1	102	0		0	0	118.5170309	118.6169801
32939.25	0.0999874	254	hunger	stimuli/foods\toasted_bread_with_tomatoes.jpg	1	2	1	toasted_bread_with_tomatoes	1	F	3	0	275	0		0	0	118.6669935	118.7669809
32976.75	0.0999842	255	hunger	stimuli/non_foods\non-food_inanimate_toy_airplane.jpg	1	2	1	non-food_inanimate_toy_airplane	0	K	7	0	222	0		0	0	118.8169931	118.9169773
33014.25	0.0999846	256	hunger	stimuli/foods\apple.jpg	1	2	1	apple	1	V	15	0	1	0		0	0	118.9669906	119.0669752
33051.75	0.099988	257	hunger	stimuli/foods\cherry.jpg	1	2	1	cherry	1	G	4	0	23	0		0	0	119.1169865	119.2169745
33089.25	0.0999801	258	hunger	stimuli/non_foods\non-food_inanimate_bicycle.jpg	1	2	1	non-food_inanimate_bicycle	0	R	12	0	161	0		0	0	119.2669915	119.3669716
33126.75	0.0999859	259	hunger	stimuli/non_foods\non-food_animate_bee.jpg	1	2	1	non-food_animate_bee	0	P	11	0	95	0		0	0	119.4169861	119.516972
33164.25	0.0999671	260	hunger	stimuli/non_foods\non-food_inanimate_watering_can.jpg	1	2	1	non-food_inanimate_watering_can	0	C	1	0	225	0		0	0	119.566998	119.6669651
33201.75	0.0999895	261	hunger	stimuli/foods\cinnamon_sroll.jpg	1	2	1	cinnamon_sroll	1	X	17	0	31	0		0	0	119.7169832	119.8169727
33239.25	0.0999853	262	hunger	stimuli/non_foods\non-food_animate_baby_crawling.jpg	1	2	1	non-food_animate_baby_crawling	0	T	14	0	92	0		0	0	119.8669824	119.9669677
33276.75	0.0999874	263	hunger	stimuli/non_foods\non-food_inanimate_highlighter.jpg	1	2	1	non-food_inanimate_highlighter	0	B	0	0	189	0		0	0	120.0169822	120.1169696
33314.25	0.0999951	264	hunger	stimuli/foods\potato_chips.jpg	1	2	1	potato_chips	1	X	17	0	247	0		0	0	120.166988	120.2669831
33351.75	0.0999789	265	hunger	stimuli/non_foods\non-food_animate_ant.jpg	1	2	1	non-food_animate_ant	0	P	11	0	91	0		0	0	120.3169878	120.4169667
33389.25	0.0999954	266	hunger	stimuli/non_foods\non-food_inanimate_jeans.jpg	1	2	1	non-food_inanimate_jeans	0	X	17	0	191	0		0	0	120.4669707	120.5669661
33426.75	0.0999834	267	hunger	stimuli/non_foods\non-food_animate_caterpillar.jpg	1	2	1	non-food_animate_caterpillar	0	S	13	0	99	0		0	0	120.6169774	120.7169608
33464.25	0.0999901	268	hunger	stimuli/foods\chocolate_pudding.jpg	1	2	1	chocolate_pudding	1	J	6	0	29	0		0	0	120.7669762	120.8669663
33501.75	0.0999848	269	hunger	stimuli/foods\taco.jpg	1	2	1	taco	1	S	13	0	274	0		0	0	120.9169738	121.0169586
33539.25	0.0999879	270	hunger	stimuli/foods\orange.jpg	1	2	1	orange	1	X	17	0	230	0		0	0	121.0669736	121.1669615
33576.75	0.0999864	271	hunger	stimuli/foods\lime.jpg	1	2	1	lime	1	M	9	0	76	0		0	0	121.2169727	121.3169591
33614.25	0.0999842	272	hunger	stimuli/foods\chestnut.jpg	1	2	1	chestnut	1	G	4	0	24	0		0	0	121.3669728	121.466957
33651.75	0.0999877	273	hunger	stimuli/foods\cucumber.jpg	1	2	1	cucumber	1	B	0	0	41	0		0	0	121.5169708	121.6169585
33689.25	0.0999873	274	hunger	stimuli/non_foods\non-food_animate_lion.jpg	1	2	1	non-food_animate_lion	0	S	13	0	125	0		0	0	121.6669676	121.7669549
33726.75	0.0999968	275	hunger	stimuli/non_foods\non-food_inanimate_tree.jpg	1	2	1	non-food_inanimate_tree	0	X	17	0	223	0		0	0	121.8169587	121.9169555
33764.25	0.1000027	276	hunger	stimuli/foods\chocolate_bar.jpg	1	2	1	chocolate_bar	1	G	4	0	26	0		0	0	121.9669747	122.0669774
33801.75	0.0999535	277	hunger	stimuli/foods\lasagna.jpg	1	2	1	lasagna	1	H	5	0	71	0		0	0	122.1169713	122.2169248
33839.25	0.0999894	278	hunger	stimuli/foods\lemon_meringue_pie.jpg	1	2	1	lemon_meringue_pie	1	F	3	0	73	0		0	0	122.2669634	122.3669528
33876.75	0.0999837	279	hunger	stimuli/foods\meatballs.jpg	1	2	1	meatballs	1	P	11	0	81	0		0	0	122.4169633	122.516947
34635.25	0.0999764	280	hunger	stimuli/foods\pickles.jpg	1	3	1	pickles	1	V	15	0	242	0		0	0	125.4502847	125.5502611
34672.75	0.099965	281	hunger	stimuli/foods\strawberry.jpg	1	3	1	strawberry	1	X	17	0	272	0		0	0	125.6002926	125.7002576
34710.25	0.0999829	282	hunger	stimuli/foods\avocado.jpg	1	3	1	avocado	1	M	9	0	5	0		0	0	125.7502723	125.8502552
34747.75	0.0999851	283	hunger	stimuli/non_foods\non-food_inanimate_broom.jpg	1	3	1	non-food_inanimate_broom	0	T	14	0	164	0		0	0	125.9002667	126.0002518
34785.25	0.0999739	284	hunger	stimuli/foods\honey.jpg	1	3	1	honey	1	Z	18	0	66	0		0	0	126.0502723	126.1502462
34822.75	0.0999961	285	hunger	stimuli/foods\cereal.jpg	1	3	1	cereal	1	T	14	0	22	0		0	0	126.200257	126.3002531
34860.25	0.100015	286	hunger	stimuli/non_foods\non-food_animate_ram.jpg	1	3	1	non-food_animate_ram	0	J	6	0	140	0		0	0	126.3502363	126.4502513
34897.75	0.0999979	287	hunger	stimuli/non_foods\non-food_inanimate_chair.jpg	1	3	1	non-food_inanimate_chair	0	F	3	0	172	0		0	0	126.5002643	126.6002622
34935.25	0.099976	288	hunger	stimuli/non_foods\non-food_animate_Asian_man.jpg	1	3	1	non-food_animate_Asian_man	0	B	0	0	88	0		0	0	126.6502719	126.7502479
34972.75	0.0999878	289	hunger	stimuli/non_foods\non-food_inanimate_couch.jpg	1	3	1	non-food_inanimate_couch	0	J	6	0	176	0		0	0	126.8002607	126.9002485
35010.25	0.0999904	290	hunger	stimuli/foods\grapes.jpg	1	3	1	grapes	1	L	8	0	60	0		0	0	126.9502557	127.0502461
35047.75	0.1000034	291	hunger	stimuli/foods\potatoes.jpg	1	3	1	potatoes	1	P	11	0	248	0		0	0	127.1002574	127.2002608
35085.25	0.0999597	292	hunger	stimuli/non_foods\non-food_animate_giraffe.jpg	1	3	1	non-food_animate_giraffe	0	J	6	0	115	0		0	0	127.2502839	127.3502436
35122.75	0.0999732	293	hunger	stimuli/foods\mango.jpg	1	3	1	mango	1	G	4	0	80	0		0	0	127.4002647	127.5002379
35160.25	0.0999906	294	hunger	stimuli/foods\bagel.jpg	1	3	1	bagel	1	W	16	0	6	0		0	0	127.5502536	127.6502442
35197.75	0.0999836	295	hunger	stimuli/foods\cream_donuts.jpg	1	3	1	cream_donuts	1	X	17	0	39	0		0	0	127.7002538	127.8002374
35235.25	0.099989	296	hunger	stimuli/foods\rice_cake.jpg	1	3	1	rice_cake	1	D	2	0	258	0		0	0	127.85025	127.950239
35272.75	0.0999978	297	hunger	stimuli/foods\meatballs.jpg	1	3	1	meatballs	1	N	10	0	81	0		0	0	128.000251	128.1002488
35310.25	0.1000055	298	hunger	stimuli/non_foods\non-food_animate_Causasian_man.jpg	1	3	1	non-food_animate_Causasian_man	0	L	8	0	89	0		0	0	128.1502284	128.2502339
35347.75	0.0999882	299	hunger	stimuli/non_foods\non-food_inanimate_teddy_bear.jpg	1	3	1	non-food_inanimate_teddy_bear	0	N	10	0	218	0		0	0	128.3002484	128.4002366
35385.25	0.0999846	300	hunger	stimuli/non_foods\non-food_inanimate_scissors.jpg	1	3	1	non-food_inanimate_scissors	0	J	6	0	205	0		0	0	128.4502474	128.550232
35422.75	0.0999827	301	hunger	stimuli/foods\radish.jpg	1	3	1	radish	1	C	1	0	251	0		0	0	128.6002518	128.7002345
35460.25	0.0999837	302	hunger	stimuli/non_foods\non-food_animate_grasshopper.jpg	1	3	1	non-food_animate_grasshopper	0	Z	18	0	117	0		0	0	128.7502466	128.8502303
35497.75	0.0999853	303	hunger	stimuli/foods\fruit_pie.jpg	1	3	1	fruit_pie	1	J	6	0	54	0		0	0	128.9002457	129.000231
35535.25	0.099945	304	hunger	stimuli/non_foods\non-food_animate_runner.jpg	1	3	1	non-food_animate_runner	0	Z	18	0	142	0		0	0	129.0502866	129.1502316
35572.75	0.0999861	305	hunger	stimuli/non_foods\non-food_animate_tortoise.jpg	1	3	1	non-food_animate_tortoise	0	K	7	0	153	0		0	0	129.2002421	129.3002282
35610.25	0.0999854	306	hunger	stimuli/non_foods\non-food_animate_sea_turtle.jpg	1	3	1	non-food_animate_sea_turtle	0	X	17	0	144	0		0	0	129.3502396	129.450225
35647.75	0.0999836	307	hunger	stimuli/non_foods\non-food_inanimate_highlighter.jpg	1	3	1	non-food_inanimate_highlighter	0	C	1	0	189	0		0	0	129.500242	129.6002256
35685.25	0.0999858	308	hunger	stimuli/non_foods\non-food_inanimate_suitcase.jpg	1	3	1	non-food_inanimate_suitcase	0	D	2	0	215	0		0	0	129.6502381	129.7502239
35722.75	0.099983	309	hunger	stimuli/non_foods\non-food_animate_iguana.jpg	1	3	1	non-food_animate_iguana	0	L	8	0	121	0		0	0	129.8002517	129.9002347
35760.25	0.0999823	310	hunger	stimuli/foods\minestrone_soup.jpg	1	3	1	minestrone_soup	1	P	11	0	82	0		0	0	129.9502401	130.0502224
35797.75	0.0999864	311	hunger	stimuli/foods\pomegranate.jpg	1	3	1	pomegranate	1	K	7	0	244	0		0	0	130.1002329	130.2002193
35835.25	0.0999866	312	hunger	stimuli/foods\cooked_ham.jpg	1	3	1	cooked_ham	1	C	1	0	35	0		0	0	130.2502337	130.3502203
35872.75	0.0999833	313	hunger	stimuli/foods\egg.jpg	1	3	1	egg	1	J	6	0	45	0		0	0	130.4002337	130.500217
35910.25	0.0999885	314	hunger	stimuli/non_foods\non-food_inanimate_bush.jpg	1	3	1	non-food_inanimate_bush	0	P	11	0	167	0		0	0	130.5502316	130.6502201
35947.75	0.1000229	315	hunger	stimuli/foods\fruit_flan.jpg	1	3	1	fruit_flan	1	G	4	0	53	0		0	0	130.7002312	130.8002541
35985.25	0.0999373	316	hunger	stimuli/non_foods\non-food_inanimate_shell.jpg	1	3	1	non-food_inanimate_shell	0	J	6	0	206	0		0	0	130.8502777	130.950215
36022.75	0.0999899	317	hunger	stimuli/non_foods\non-food_animate_ladybug.jpg	1	3	1	non-food_animate_ladybug	0	S	13	0	124	0		0	0	131.0002267	131.1002166
36060.25	0.0999824	318	hunger	stimuli/foods\omelette.jpg	1	3	1	omelette	1	N	10	0	228	0		0	0	131.1502297	131.2502121
36097.75	0.0999844	319	hunger	stimuli/non_foods\non-food_inanimate_headphones.jpg	1	3	1	non-food_inanimate_headphones	0	M	9	0	188	0		0	0	131.3002265	131.4002109
36135.25	0.0999868	320	hunger	stimuli/foods\potato_chips.jpg	1	3	1	potato_chips	1	C	1	0	247	0		0	0	131.4502247	131.5502115
36172.75	0.0999804	321	hunger	stimuli/foods\lettuce.jpg	1	3	1	lettuce	1	W	16	0	75	0		0	0	131.6002274	131.7002078
36210.25	0.0999889	322	hunger	stimuli/non_foods\non-food_inanimate_chandelier.jpg	1	3	1	non-food_inanimate_chandelier	0	T	14	0	173	0		0	0	131.7502215	131.8502104
36247.75	0.0999652	323	hunger	stimuli/foods\peas.jpg	1	3	1	peas	1	L	8	0	240	0		0	0	131.9002392	132.0002044
36285.25	0.0999871	324	hunger	stimuli/foods\museli_bars.jpg	1	3	1	museli_bars	1	H	5	0	84	0		0	0	132.0502195	132.1502066
36322.75	0.0999862	325	hunger	stimuli/non_foods\non-food_animate_clown.jpg	1	3	1	non-food_animate_clown	0	W	16	0	102	0		0	0	132.2002211	132.3002073
36360.25	0.0999851	326	hunger	stimuli/non_foods\non-food_inanimate_nest.jpg	1	3	1	non-food_inanimate_nest	0	L	8	0	196	0		0	0	132.3502176	132.4502027
36397.75	0.100003	327	hunger	stimuli/non_foods\non-food_animate_mouse.jpg	1	3	1	non-food_animate_mouse	0	R	12	0	131	0		0	0	132.5002106	132.6002136
36435.25	0.0999489	328	hunger	stimuli/foods\chilli.jpg	1	3	1	chilli	1	B	0	0	25	0		0	0	132.650255	132.7502039
36472.75	0.0999868	329	hunger	stimuli/foods\brussel_sprouts.jpg	1	3	1	brussel_sprouts	1	K	7	0	15	0		0	0	132.8002125	132.9001993
36510.25	0.0999886	330	hunger	stimuli/non_foods\non-food_animate_caterpillar.jpg	1	3	1	non-food_animate_caterpillar	0	L	8	0	99	0		0	0	132.9502102	133.0501988
36547.75	0.0999865	331	hunger	stimuli/non_foods\non-food_inanimate_towel.jpg	1	3	1	non-food_inanimate_towel	0	X	17	0	221	0		0	0	133.100215	133.2002015
36585.25	0.0999901	332	hunger	stimuli/non_foods\non-food_animate_mammoth.jpg	1	3	1	non-food_animate_mammoth	0	H	5	0	128	0		0	0	133.250205	133.3501951
36622.75	0.0999882	333	hunger	stimuli/foods\apricot.jpg	1	3	1	apricot	1	P	11	0	2	0		0	0	133.4002103	133.5001985
36660.25	0.0999847	334	hunger	stimuli/non_foods\non-food_animate_dragonfly.jpg	1	3	1	non-food_animate_dragonfly	0	D	2	0	108	0		0	0	133.5502073	133.650192
36697.75	0.0999715	335	hunger	stimuli/non_foods\non-food_animate_cheetah.jpg	1	3	1	non-food_animate_cheetah	0	L	8	0	100	0		0	0	133.7002221	133.8001936
36735.25	0.0999852	336	hunger	stimuli/foods\green_beans.jpg	1	3	1	green_beans	1	B	0	0	61	0		0	0	133.8502111	133.9501963
36772.75	0.0999832	337	hunger	stimuli/non_foods\non-food_inanimate_folding_chair.jpg	1	3	1	non-food_inanimate_folding_chair	0	F	3	0	182	0		0	0	134.0002038	134.100187
36810.25	0.0999858	338	hunger	stimuli/foods\blackberry.jpg	1	3	1	blackberry	1	C	1	0	11	0		0	0	134.1502027	134.2501885
36847.75	0.1000049	339	hunger	stimuli/foods\lemon.jpg	1	3	1	lemon	1	H	5	0	72	0		0	0	134.3002251	134.40023
36885.25	0.0999702	340	hunger	stimuli/non_foods\non-food_animate_chicken.jpg	1	3	1	non-food_animate_chicken	0	V	15	0	101	0		0	0	134.4502156	134.5501858
36922.75	0.0999866	341	hunger	stimuli/non_foods\non-food_animate_lion.jpg	1	3	1	non-food_animate_lion	0	M	9	0	125	0		0	0	134.6002018	134.7001884
36960.25	0.0999864	342	hunger	stimuli/foods\raw_ham.jpg	1	3	1	raw_ham	1	R	12	0	253	0		0	0	134.7501976	134.850184
36997.75	0.0999856	343	hunger	stimuli/foods\swordfish.jpg	1	3	1	swordfish	1	H	5	0	273	0		0	0	134.9001988	135.0001844
37035.25	0.0999855	344	hunger	stimuli/foods\cracker.jpg	1	3	1	cracker	1	Z	18	0	38	0		0	0	135.0501985	135.150184
37072.75	0.0999884	345	hunger	stimuli/non_foods\non-food_animate_polar_bear.jpg	1	3	1	non-food_animate_polar_bear	0	G	4	0	137	0		0	0	135.200193	135.3001814
37110.25	0.0999835	346	hunger	stimuli/non_foods\non-food_animate_cow.jpg	1	3	1	non-food_animate_cow	0	W	16	0	103	0		0	0	135.3501967	135.4501802
37147.75	0.0999558	347	hunger	stimuli/foods\linguine_with_clams.jpg	1	3	1	linguine_with_clams	1	C	1	0	77	0		0	0	135.5002161	135.6001719
37185.25	0.0999935	348	hunger	stimuli/foods\beetroots.jpg	1	3	1	beetroots	1	T	14	0	10	0		0	0	135.6501858	135.7501793
37222.75	0.0999686	349	hunger	stimuli/non_foods\non-food_inanimate_rope.jpg	1	3	1	non-food_inanimate_rope	0	J	6	0	204	0		0	0	135.8001855	135.9001541
37260.25	0.0999814	350	hunger	stimuli/non_foods\non-food_inanimate_briefcase.jpg	1	3	1	non-food_inanimate_briefcase	0	P	11	0	163	0		0	0	135.9501875	136.0501689
37297.75	0.099978	351	hunger	stimuli/non_foods\non-food_inanimate_lighter.jpg	1	3	1	non-food_inanimate_lighter	0	L	8	0	193	0		0	0	136.1002188	136.2001968
37335.25	0.0999534	352	hunger	stimuli/non_foods\non-food_inanimate_button.jpg	1	3	1	non-food_inanimate_button	0	P	11	0	168	0		0	0	136.2502185	136.3501719
37372.75	0.0999876	353	hunger	stimuli/foods\clams.jpg	1	3	1	clams	1	C	1	0	32	0		0	0	136.400186	136.5001736
37410.25	0.0999878	354	hunger	stimuli/non_foods\non-food_animate_sea_lion.jpg	1	3	1	non-food_animate_sea_lion	0	H	5	0	143	0		0	0	136.5501852	136.650173
37447.75	0.0999866	355	hunger	stimuli/foods\carrot.jpg	1	3	1	carrot	1	S	13	0	19	0		0	0	136.7001804	136.800167
37485.25	0.0999921	356	hunger	stimuli/non_foods\non-food_animate_baby_sitting.jpg	1	3	1	non-food_animate_baby_sitting	0	F	3	0	93	0		0	0	136.8501753	136.9501674
37522.75	0.0999844	357	hunger	stimuli/non_foods\non-food_inanimate_socks.jpg	1	3	1	non-food_inanimate_socks	0	B	0	0	211	0		0	0	137.0001813	137.1001657
37560.25	0.1000045	358	hunger	stimuli/foods\pork_and_rice.jpg	1	3	1	pork_and_rice	1	Z	18	0	245	0		0	0	137.1501815	137.250186
37597.75	0.0999661	359	hunger	stimuli/foods\gnocchi.jpg	1	3	1	gnocchi	1	H	5	0	58	0		0	0	137.3002012	137.4001673
37635.25	0.0999862	360	hunger	stimuli/non_foods\non-food_inanimate_jeans.jpg	1	3	1	non-food_inanimate_jeans	0	P	11	0	191	0		0	0	137.4501767	137.5501629
37672.75	0.0999885	361	hunger	stimuli/foods\oregano.jpg	1	3	1	oregano	1	J	6	0	231	0		0	0	137.6001748	137.7001633
37710.25	0.099984	362	hunger	stimuli/foods\nectarine.jpg	1	3	1	nectarine	1	K	7	0	87	0		0	0	137.7501747	137.8501587
37747.75	0.0999951	363	hunger	stimuli/non_foods\non-food_inanimate_grass.jpg	1	3	1	non-food_inanimate_grass	0	D	2	0	184	0		0	0	137.9001667	138.0001618
37785.25	0.0999669	364	hunger	stimuli/foods\fruit_salad.jpg	1	3	1	fruit_salad	1	K	7	0	55	0		0	0	138.0501936	138.1501605
37822.75	0.0999891	365	hunger	stimuli/foods\spaghetti_with_meat_sauce.jpg	1	3	1	spaghetti_with_meat_sauce	1	C	1	0	267	0		0	0	138.2001683	138.3001574
37860.25	0.0999858	366	hunger	stimuli/foods\smoked_ham.jpg	1	3	1	smoked_ham	1	W	16	0	266	0		0	0	138.3501695	138.4501553
37897.75	0.0999834	367	hunger	stimuli/non_foods\non-food_inanimate_watering_can.jpg	1	3	1	non-food_inanimate_watering_can	0	B	0	0	225	0		0	0	138.5001696	138.600153
37935.25	0.0999862	368	hunger	stimuli/non_foods\non-food_inanimate_soccer_ball.jpg	1	3	1	non-food_inanimate_soccer_ball	0	P	11	0	210	0		0	0	138.6501673	138.7501535
37972.75	0.0999891	369	hunger	stimuli/non_foods\non-food_animate_donkey.jpg	1	3	1	non-food_animate_donkey	0	S	13	0	107	0		0	0	138.800164	138.9001531
38010.25	0.1000036	370	hunger	stimuli/non_foods\non-food_inanimate_fern.jpg	1	3	1	non-food_inanimate_fern	0	L	8	0	180	0		0	0	138.9501626	139.0501662
38047.75	0.0999832	371	hunger	stimuli/non_foods\non-food_animate_butterfly.jpg	1	3	1	non-food_animate_butterfly	0	T	14	0	96	0		0	0	139.1001682	139.2001514
38085.25	0.099982	372	hunger	stimuli/non_foods\non-food_inanimate_bucket.jpg	1	3	1	non-food_inanimate_bucket	0	W	16	0	165	0		0	0	139.2501658	139.3501478
38122.75	0.099988	373	hunger	stimuli/non_foods\non-food_inanimate_nettle.jpg	1	3	1	non-food_inanimate_nettle	0	B	0	0	197	0		0	0	139.4001605	139.5001485
38160.25	0.099985	374	hunger	stimuli/non_foods\non-food_animate_squirrel.jpg	1	3	1	non-food_animate_squirrel	0	T	14	0	150	0		0	0	139.5501628	139.6501478
38197.75	0.0999659	375	hunger	stimuli/non_foods\non-food_inanimate_bamboo.jpg	1	3	1	non-food_inanimate_bamboo	0	R	12	0	159	0		0	0	139.7001804	139.8001463
38235.25	0.0999761	376	hunger	stimuli/foods\potato_and_green_bean_salad.jpg	1	3	1	potato_and_green_bean_salad	1	X	17	0	246	0		0	0	139.8501693	139.9501454
38272.75	0.0999895	377	hunger	stimuli/foods\chocolate_bar.jpg	1	3	1	chocolate_bar	1	C	1	0	26	0		0	0	140.0001543	140.1001438
38310.25	0.0999869	378	hunger	stimuli/foods\asparagus.jpg	1	3	1	asparagus	1	N	10	0	4	0		0	0	140.1501565	140.2501434
38347.75	0.0999859	379	hunger	stimuli/non_foods\non-food_animate_frog.jpg	1	3	1	non-food_animate_frog	0	J	6	0	113	0		0	0	140.3001577	140.4001436
38385.25	0.0999908	380	hunger	stimuli/foods\cupcake.jpg	1	3	1	cupcake	1	G	4	0	42	0		0	0	140.4501502	140.550141
38422.75	0.099981	381	hunger	stimuli/non_foods\non-food_inanimate_padlock.jpg	1	3	1	non-food_inanimate_padlock	0	H	5	0	199	0		0	0	140.6001564	140.7001374
38460.25	0.0999852	382	hunger	stimuli/foods\pea_pod.jpg	1	3	1	pea_pod	1	S	13	0	237	0		0	0	140.7501521	140.8501373
38497.75	0.0999729	383	hunger	stimuli/non_foods\non-food_animate_raccoon.jpg	1	3	1	non-food_animate_raccoon	0	W	16	0	139	0		0	0	140.9001611	141.000134
38535.25	0.0999921	384	hunger	stimuli/foods\cinnamon_sroll.jpg	1	3	1	cinnamon_sroll	1	E	20	1	31	0		0	0	141.050149	141.1501411
38572.75	0.0999838	385	hunger	stimuli/non_foods\non-food_animate_german_shepherd.jpg	1	3	1	non-food_animate_german_shepherd	0	X	17	0	114	0		0	0	141.2001465	141.3001303
38610.25	0.0999905	386	hunger	stimuli/non_foods\non-food_animate_woman.jpg	1	3	1	non-food_animate_woman	0	S	13	0	154	0		0	0	141.3501449	141.4501354
38647.75	0.0999421	387	hunger	stimuli/non_foods\non-food_inanimate_stoplight.jpg	1	3	1	non-food_inanimate_stoplight	0	V	15	0	214	1	a	0.5418714	1	141.5001899	141.600132
38685.25	0.0999837	388	hunger	stimuli/non_foods\non-food_inanimate_stapler.jpg	1	3	1	non-food_inanimate_stapler	0	T	14	0	213	0		0	0	141.6501444	141.7501281
38722.75	0.0999913	389	hunger	stimuli/non_foods\non-food_animate_hummingbird.jpg	1	3	1	non-food_animate_hummingbird	0	G	4	0	120	0		0	0	141.8001422	141.9001335
38760.25	0.0999822	390	hunger	stimuli/foods\oven-roasted_tomatoes.jpg	1	3	1	oven-roasted_tomatoes	1	T	14	0	232	0		0	0	141.9501437	142.0501259
38797.75	0.099986	391	hunger	stimuli/foods\rockmelon.jpg	1	3	1	rockmelon	1	X	17	0	262	0		0	0	142.1001402	142.2001262
38835.25	0.0999843	392	hunger	stimuli/non_foods\non-food_inanimate_guitar.jpg	1	3	1	non-food_inanimate_guitar	0	K	7	0	185	0		0	0	142.2501421	142.3501264
38872.75	0.0999828	393	hunger	stimuli/foods\pancakes.jpg	1	3	1	pancakes	1	J	6	0	234	0		0	0	142.4001387	142.5001215
38910.25	0.0999857	394	hunger	stimuli/non_foods\non-food_inanimate_fire_extinguisher.jpg	1	3	1	non-food_inanimate_fire_extinguisher	0	M	9	0	181	0		0	0	142.5501377	142.6501234
38947.75	0.0999851	395	hunger	stimuli/non_foods\non-food_inanimate_bed.jpg	1	3	1	non-food_inanimate_bed	0	D	2	0	160	0		0	0	142.7001358	142.8001209
38985.25	0.0999877	396	hunger	stimuli/foods\lime.jpg	1	3	1	lime	1	R	12	0	76	0		0	0	142.8501329	142.9501206
39022.75	0.0999859	397	hunger	stimuli/foods\eggplant.jpg	1	3	1	eggplant	1	D	2	0	46	0		0	0	143.000135	143.1001209
39060.25	0.1000157	398	hunger	stimuli/non_foods\non-food_inanimate_hay.jpg	1	3	1	non-food_inanimate_hay	0	V	15	0	187	0		0	0	143.150134	143.2501497
39097.75	0.0999392	399	hunger	stimuli/foods\broccoli.jpg	1	3	1	broccoli	1	H	5	0	13	0		0	0	143.3001793	143.4001185
39135.25	0.0999575	400	hunger	stimuli/foods\almonds.jpg	1	3	1	almonds	1	X	17	0	0	0		0	0	143.4501271	143.5500846
39172.75	0.0999873	401	hunger	stimuli/foods\salmon.jpg	1	3	1	salmon	1	W	16	0	264	0		0	0	143.6001254	143.7001127
39210.25	0.0999889	402	hunger	stimuli/non_foods\non-food_animate_green_bug.jpg	1	3	1	non-food_animate_green_bug	0	G	4	0	118	0		0	0	143.7501348	143.8501237
39247.75	0.0999864	403	hunger	stimuli/non_foods\non-food_animate_cat.jpg	1	3	1	non-food_animate_cat	0	U	23	1	98	0		0	0	143.9001243	144.0001107
39285.25	0.0999895	404	hunger	stimuli/foods\coffee_beans.jpg	1	3	1	coffee_beans	1	R	12	0	34	0		0	0	144.0501244	144.1501139
39322.75	0.0999863	405	hunger	stimuli/foods\fried_zucchini.jpg	1	3	1	fried_zucchini	1	P	11	0	51	0		0	0	144.2001241	144.3001104
39360.25	0.0999705	406	hunger	stimuli/foods\lentils.jpg	1	3	1	lentils	1	N	10	0	74	0		0	0	144.3501374	144.4501079
39397.75	0.09999	407	hunger	stimuli/foods\hazelnuts.jpg	1	3	1	hazelnuts	1	X	17	0	65	1	a	0.6918214	1	144.5001192	144.6001092
39435.25	0.0999823	408	hunger	stimuli/foods\chocolate_pudding.jpg	1	3	1	chocolate_pudding	1	H	5	0	29	0		0	0	144.6501227	144.750105
39472.75	0.0999817	409	hunger	stimuli/non_foods\non-food_animate_ant.jpg	1	3	1	non-food_animate_ant	0	N	10	0	91	0		0	0	144.8001238	144.9001055
39510.25	0.1000251	410	hunger	stimuli/non_foods\non-food_inanimate_construction_helment.jpg	1	3	1	non-food_inanimate_construction_helment	0	L	8	0	175	0		0	0	144.9501243	145.0501494
39547.75	0.0999648	411	hunger	stimuli/non_foods\non-food_animate_slug.jpg	1	3	1	non-food_animate_slug	0	M	9	0	148	0		0	0	145.1001373	145.2001021
39585.25	0.0999865	412	hunger	stimuli/foods\lasagna.jpg	1	3	1	lasagna	1	L	8	0	71	0		0	0	145.2501159	145.3501024
39622.75	0.0999877	413	hunger	stimuli/non_foods\non-food_animate_dolphin.jpg	1	3	1	non-food_animate_dolphin	0	N	10	0	106	0		0	0	145.4001147	145.5001024
39660.25	0.0999865	414	hunger	stimuli/non_foods\non-food_animate_skunk.jpg	1	3	1	non-food_animate_skunk	0	B	0	0	147	0		0	0	145.5501135	145.6501
39697.75	0.0999873	415	hunger	stimuli/foods\rice.jpg	1	3	1	rice	1	F	3	0	257	0		0	0	145.7001111	145.8000984
39735.25	0.0999834	416	hunger	stimuli/foods\spring_onions.jpg	1	3	1	spring_onions	1	X	17	0	269	0		0	0	145.8501125	145.9500959
39772.5	0.0999878	417	hunger	stimuli/foods\cauliflower.jpg	1	3	1	cauliflower	1	J	6	0	20	0		0	0	146.0001061	146.1000939
39810.25	0.0999704	418	hunger	stimuli/foods\baked_cod_with_carrots_and_green_beans.jpg	1	3	1	baked_cod_with_carrots_and_green_beans	1	L	8	0	7	0		0	0	146.1501261	146.2500965
39847.75	0.0999864	419	hunger	stimuli/non_foods\non-food_inanimate_waterlily.jpg	1	3	1	non-food_inanimate_waterlily	0	T	14	0	226	0		0	0	146.3001065	146.4000929
40689.25	0.0999633	420	hunger	stimuli/non_foods\non-food_animate_alligator.jpg	1	4	1	non-food_animate_alligator	0	L	8	0	90	0		0	0	149.6667701	149.7667334
40726.75	0.0999824	421	hunger	stimuli/foods\waffle.jpg	1	4	1	waffle	1	G	4	0	278	0		0	0	149.81675	149.9167324
40764.25	0.0999849	422	hunger	stimuli/foods\capsicum.jpg	1	4	1	capsicum	1	T	14	0	18	0		0	0	149.9667463	150.0667312
40801.75	0.0999901	423	hunger	stimuli/non_foods\non-food_animate_camel.jpg	1	4	1	non-food_animate_camel	0	H	5	0	97	0		0	0	150.1167421	150.2167322
40839.25	0.0999691	424	hunger	stimuli/foods\fennel.jpg	1	4	1	fennel	1	D	2	0	47	0		0	0	150.2667561	150.3667252
40876.75	0.0999935	425	hunger	stimuli/non_foods\non-food_inanimate_alarm_clock.jpg	1	4	1	non-food_inanimate_alarm_clock	0	N	10	0	158	0		0	0	150.4167319	150.5167254
40914.25	0.0999854	426	hunger	stimuli/non_foods\non-food_inanimate_drum_set.jpg	1	4	1	non-food_inanimate_drum_set	0	G	4	0	179	0		0	0	150.5667424	150.6667278
40951.75	0.0999903	427	hunger	stimuli/non_foods\non-food_animate_peacock.jpg	1	4	1	non-food_animate_peacock	0	J	6	0	134	0		0	0	150.716733	150.8167233
40989.25	0.0999667	428	hunger	stimuli/non_foods\non-food_inanimate_cupboard.jpg	1	4	1	non-food_inanimate_cupboard	0	G	4	0	177	0		0	0	150.8667325	150.9666992
41026.75	0.0999943	429	hunger	stimuli/non_foods\non-food_inanimate_cactus_pot_plant.jpg	1	4	1	non-food_inanimate_cactus_pot_plant	0	F	3	0	169	0		0	0	151.0167106	151.1167049
41064.25	0.1000127	430	hunger	stimuli/non_foods\non-food_inanimate_tent.jpg	1	4	1	non-food_inanimate_tent	0	S	13	0	219	0		0	0	151.1667077	151.2667204
41101.75	0.099995	431	hunger	stimuli/foods\croissant.jpg	1	4	1	croissant	1	C	1	0	40	0		0	0	151.3167269	151.4167219
41139.25	0.0999787	432	hunger	stimuli/non_foods\non-food_inanimate_sun_flower.jpg	1	4	1	non-food_inanimate_sun_flower	0	K	7	0	216	0		0	0	151.466742	151.5667207
41176.75	0.0999808	433	hunger	stimuli/foods\lemon_meringue_pie.jpg	1	4	1	lemon_meringue_pie	1	D	2	0	73	0		0	0	151.6167336	151.7167144
41214.25	0.1000015	434	hunger	stimuli/foods\mushroom.jpg	1	4	1	mushroom	1	K	7	0	85	0		0	0	151.7667183	151.8667198
41251.75	0.0999916	435	hunger	stimuli/non_foods\non-food_animate_fox.jpg	1	4	1	non-food_animate_fox	0	B	0	0	112	0		0	0	151.9167279	152.0167195
41289.25	0.0999867	436	hunger	stimuli/foods\pepperoni_pizza.jpg	1	4	1	pepperoni_pizza	1	S	13	0	241	0		0	0	152.0667264	152.1667131
41326.75	0.0999847	437	hunger	stimuli/foods\ice_cream.jpg	1	4	1	ice_cream	1	N	10	0	68	0		0	0	152.216729	152.3167137
41364.25	0.0999965	438	hunger	stimuli/non_foods\non-food_inanimate_clover.jpg	1	4	1	non-food_inanimate_clover	0	G	4	0	174	0		0	0	152.366717	152.4667135
41401.75	0.0999843	439	hunger	stimuli/non_foods\non-food_inanimate_bicycle.jpg	1	4	1	non-food_inanimate_bicycle	0	M	9	0	161	0		0	0	152.5167281	152.6167124
41439.25	0.0999849	440	hunger	stimuli/non_foods\non-food_inanimate_tree.jpg	1	4	1	non-food_inanimate_tree	0	X	17	0	223	0		0	0	152.6667264	152.7667113
41476.75	0.0999738	441	hunger	stimuli/non_foods\non-food_animate_snail.jpg	1	4	1	non-food_animate_snail	0	P	11	0	149	0		0	0	152.8167273	152.9167011
41514.25	0.0999934	442	hunger	stimuli/non_foods\non-food_animate_porcupine.jpg	1	4	1	non-food_animate_porcupine	0	F	3	0	138	0		0	0	152.9667131	153.0667065
41551.75	0.0999874	443	hunger	stimuli/foods\pumpkin.jpg	1	4	1	pumpkin	1	M	9	0	250	0		0	0	153.1167114	153.2166988
41589.25	0.0999853	444	hunger	stimuli/non_foods\non-food_animate_baby_crawling.jpg	1	4	1	non-food_animate_baby_crawling	0	C	1	0	92	0		0	0	153.2667163	153.3667016
41626.75	0.0999665	445	hunger	stimuli/non_foods\non-food_animate_parrot.jpg	1	4	1	non-food_animate_parrot	0	H	5	0	133	0		0	0	153.4167209	153.5166874
41664.25	0.099989	446	hunger	stimuli/non_foods\non-food_inanimate_horn.jpg	1	4	1	non-food_inanimate_horn	0	P	11	0	190	0		0	0	153.5667049	153.6666939
41701.75	0.0999918	447	hunger	stimuli/foods\risotto_with_zucchini.jpg	1	4	1	risotto_with_zucchini	1	D	2	0	260	0		0	0	153.7167057	153.8166975
41739.25	0.0999794	448	hunger	stimuli/foods\taco.jpg	1	4	1	taco	1	W	16	0	274	0		0	0	153.8667108	153.9666902
41776.75	0.0999831	449	hunger	stimuli/foods\tomato.jpg	1	4	1	tomato	1	C	1	0	276	0		0	0	154.0167058	154.1166889
41814.25	0.1000071	450	hunger	stimuli/foods\red_cabbage.jpg	1	4	1	red_cabbage	1	Z	18	0	256	0		0	0	154.1667038	154.2667109
41851.75	0.0999836	451	hunger	stimuli/non_foods\non-food_inanimate_ring.jpg	1	4	1	non-food_inanimate_ring	0	L	8	0	203	0		0	0	154.3167062	154.4166898
41889.25	0.0999896	452	hunger	stimuli/non_foods\non-food_animate_killer_whale.jpg	1	4	1	non-food_animate_killer_whale	0	D	2	0	123	0		0	0	154.4667003	154.5666899
41926.75	0.0999924	453	hunger	stimuli/foods\baked_lamb_with_potatoes.jpg	1	4	1	baked_lamb_with_potatoes	1	W	16	0	8	0		0	0	154.6167027	154.7166951
41964.25	0.0999842	454	hunger	stimuli/foods\cooked_prawn.jpg	1	4	1	cooked_prawn	1	L	8	0	36	0		0	0	154.7667081	154.8666923
42001.75	0.099965	455	hunger	stimuli/foods\dates.jpg	1	4	1	dates	1	T	14	0	43	0		0	0	154.9167092	155.0166742
42039.25	0.0999912	456	hunger	stimuli/foods\chocolate_chip_cookies.jpg	1	4	1	chocolate_chip_cookies	1	H	5	0	27	0		0	0	155.0667027	155.1666939
42076.75	0.0999879	457	hunger	stimuli/foods\pasta_carbonara.jpg	1	4	1	pasta_carbonara	1	O	22	1	236	0		0	0	155.2167064	155.3166943
42114.25	0.0999848	458	hunger	stimuli/non_foods\non-food_inanimate_cap.jpg	1	4	1	non-food_inanimate_cap	0	L	8	0	171	0		0	0	155.3667073	155.4666921
42151.75	0.0999772	459	hunger	stimuli/foods\prawn.jpg	1	4	1	prawn	1	R	12	0	249	0		0	0	155.5167049	155.6166821
42189.25	0.1000036	460	hunger	stimuli/foods\raw_sausage.jpg	1	4	1	raw_sausage	1	W	16	0	254	1	a	0.4501789	1	155.6666969	155.7667005
42226.75	0.0999822	461	hunger	stimuli/foods\corncob.jpg	1	4	1	corncob	1	R	12	0	37	0		0	0	155.8167027	155.9166849
42264.25	0.0999847	462	hunger	stimuli/foods\celery.jpg	1	4	1	celery	1	W	16	0	21	0		0	0	155.9666989	156.0666836
42301.75	0.0999779	463	hunger	stimuli/non_foods\non-food_inanimate_hammer.jpg	1	4	1	non-food_inanimate_hammer	0	F	3	0	186	0		0	0	156.1166984	156.2166763
42339.25	0.0999882	464	hunger	stimuli/non_foods\non-food_animate_young_boy.jpg	1	4	1	non-food_animate_young_boy	0	L	8	0	156	0		0	0	156.2666949	156.3666831
42376.75	0.0999853	465	hunger	stimuli/foods\oyster.jpg	1	4	1	oyster	1	T	14	0	233	0		0	0	156.4166949	156.5166802
42414.25	0.0999891	466	hunger	stimuli/foods\pear.jpg	1	4	1	pear	1	R	12	0	239	0		0	0	156.5666934	156.6666825
42451.75	0.0999916	467	hunger	stimuli/non_foods\non-food_animate_penguin.jpg	1	4	1	non-food_animate_penguin	0	S	13	0	135	0		0	0	156.7166913	156.8166829
42489.25	0.0999857	468	hunger	stimuli/foods\savory_pie.jpg	1	4	1	savory_pie	1	C	1	0	265	0		0	0	156.8666918	156.9666775
42526.75	0.1000044	469	hunger	stimuli/foods\brie.jpg	1	4	1	brie	1	J	6	0	12	0		0	0	157.0166921	157.1166965
42564.25	0.0999765	470	hunger	stimuli/foods\grilled_chicken_breast.jpg	1	4	1	grilled_chicken_breast	1	T	14	0	63	0		0	0	157.1666887	157.2666652
42601.75	0.0999943	471	hunger	stimuli/non_foods\non-food_animate_monkey.jpg	1	4	1	non-food_animate_monkey	0	W	16	0	130	0		0	0	157.316684	157.4166783
42639.25	0.0999931	472	hunger	stimuli/foods\fries.jpg	1	4	1	fries	1	Z	18	0	52	0		0	0	157.4666804	157.5666735
42676.75	0.0999985	473	hunger	stimuli/foods\cannoli.jpg	1	4	1	cannoli	1	V	15	0	17	0		0	0	157.6166751	157.7166736
42714.25	0.0999597	474	hunger	stimuli/foods\peach.jpg	1	4	1	peach	1	P	11	0	238	0		0	0	157.7666921	157.8666518
42751.75	0.0999768	475	hunger	stimuli/non_foods\non-food_animate_seal.jpg	1	4	1	non-food_animate_seal	0	H	5	0	146	0		0	0	157.9166817	158.0166585
42789.25	0.099985	476	hunger	stimuli/non_foods\non-food_inanimate_rack.jpg	1	4	1	non-food_inanimate_rack	0	Z	18	0	202	0		0	0	158.0666825	158.1666675
42826.75	0.0999915	477	hunger	stimuli/non_foods\non-food_animate_yellow_bug.jpg	1	4	1	non-food_animate_yellow_bug	0	G	4	0	155	0		0	0	158.2166757	158.3166672
42864.25	0.0999861	478	hunger	stimuli/non_foods\non-food_inanimate_moss.jpg	1	4	1	non-food_inanimate_moss	0	J	6	0	194	0		0	0	158.3666783	158.4666644
42901.75	0.0999615	479	hunger	stimuli/foods\chestnut.jpg	1	4	1	chestnut	1	W	16	0	24	0		0	0	158.5167025	158.616664
42939.25	0.0999881	480	hunger	stimuli/non_foods\non-food_inanimate_pine_cone.jpg	1	4	1	non-food_inanimate_pine_cone	0	G	4	0	200	0		0	0	158.6666782	158.7666663
42976.75	0.0999836	481	hunger	stimuli/foods\hamburger.jpg	1	4	1	hamburger	1	M	9	0	64	0		0	0	158.8166838	158.9166674
43014.25	0.0999685	482	hunger	stimuli/non_foods\non-food_inanimate_desk.jpg	1	4	1	non-food_inanimate_desk	0	B	0	0	178	0		0	0	158.9666883	159.0666568
43051.75	0.0999829	483	hunger	stimuli/foods\cinnamon.jpg	1	4	1	cinnamon	1	F	3	0	30	0		0	0	159.116679	159.2166619
43089.25	0.0999863	484	hunger	stimuli/non_foods\non-food_animate_llama.jpg	1	4	1	non-food_animate_llama	0	H	5	0	127	0		0	0	159.2666772	159.3666635
43126.75	0.1000077	485	hunger	stimuli/non_foods\non-food_animate_eagle.jpg	1	4	1	non-food_animate_eagle	0	U	23	1	110	0		0	0	159.4166547	159.5166624
43164.25	0.0999761	486	hunger	stimuli/non_foods\non-food_animate_gorilla.jpg	1	4	1	non-food_animate_gorilla	0	X	17	0	116	0		0	0	159.5666747	159.6666508
43201.75	0.0999902	487	hunger	stimuli/foods\mussels.jpg	1	4	1	mussels	1	M	9	0	86	0		0	0	159.7166605	159.8166507
43239.25	0.0999907	488	hunger	stimuli/non_foods\non-food_animate_rhino.jpg	1	4	1	non-food_animate_rhino	0	W	16	0	141	0		0	0	159.8666635	159.9666542
43276.75	0.1000001	489	hunger	stimuli/non_foods\non-food_animate_millipede.jpg	1	4	1	non-food_animate_millipede	0	M	9	0	129	0		0	0	160.0166573	160.1166574
43314.25	0.0999848	490	hunger	stimuli/foods\coconut.jpg	1	4	1	coconut	1	G	4	0	33	0		0	0	160.1666678	160.2666526
43351.75	0.0999782	491	hunger	stimuli/non_foods\non-food_inanimate_toy_airplane.jpg	1	4	1	non-food_inanimate_toy_airplane	0	X	17	0	222	1	a	1.0007424	1	160.3166753	160.4166535
43389.25	0.0999863	492	hunger	stimuli/foods\pineapple.jpg	1	4	1	pineapple	1	T	14	0	243	0		0	0	160.4666651	160.5666514
43426.75	0.0999649	493	hunger	stimuli/non_foods\non-food_animate_bat.jpg	1	4	1	non-food_animate_bat	0	N	10	0	94	0		0	0	160.6166565	160.7166214
43464.25	0.099981	494	hunger	stimuli/non_foods\non-food_inanimate_skirt.jpg	1	4	1	non-food_inanimate_skirt	0	H	5	0	209	0		0	0	160.7666667	160.8666477
43501.75	0.0999586	495	hunger	stimuli/foods\onion.jpg	1	4	1	onion	1	R	12	0	229	0		0	0	160.9166635	161.0166221
43539.25	0.0999889	496	hunger	stimuli/non_foods\non-food_inanimate_protractor.jpg	1	4	1	non-food_inanimate_protractor	0	C	1	0	201	0		0	0	161.0666606	161.1666495
43576.75	0.0999868	497	hunger	stimuli/foods\salami.jpg	1	4	1	salami	1	V	15	0	263	0		0	0	161.2166586	161.3166454
43614.25	0.0999688	498	hunger	stimuli/foods\spinach.jpg	1	4	1	spinach	1	X	17	0	268	0		0	0	161.3666745	161.4666433
43651.75	0.0999875	499	hunger	stimuli/foods\artichoke.jpg	1	4	1	artichoke	1	H	5	0	3	0		0	0	161.516651	161.6166385
43689.25	0.0999887	500	hunger	stimuli/foods\garlic.jpg	1	4	1	garlic	1	K	7	0	56	0		0	0	161.6666479	161.7666366
43726.75	0.1000016	501	hunger	stimuli/foods\figs.jpg	1	4	1	figs	1	U	23	1	48	0		0	0	161.8166498	161.9166514
43764.25	0.0999942	502	hunger	stimuli/non_foods\non-food_inanimate_tulip.jpg	1	4	1	non-food_inanimate_tulip	0	N	10	0	224	0		0	0	161.9666548	162.066649
43801.75	0.0999832	503	hunger	stimuli/foods\stew_with_potatoes_and_carrots.jpg	1	4	1	stew_with_potatoes_and_carrots	1	H	5	0	271	0		0	0	162.1166443	162.2166275
43839.25	0.0999945	504	hunger	stimuli/foods\frankfurter_and_provolone_salad.jpg	1	4	1	frankfurter_and_provolone_salad	1	G	4	0	49	1	a	0.5418244	1	162.26664	162.3666345
43876.75	0.0999937	505	hunger	stimuli/non_foods\non-food_inanimate_buds.jpg	1	4	1	non-food_inanimate_buds	0	X	17	0	166	0		0	0	162.4166426	162.5166363
43914.25	0.0999883	506	hunger	stimuli/non_foods\non-food_inanimate_short_sleeved_shirt.jpg	1	4	1	non-food_inanimate_short_sleeved_shirt	0	K	7	0	207	0		0	0	162.566645	162.6666333
43951.75	0.099951	507	hunger	stimuli/foods\fried_calamari.jpg	1	4	1	fried_calamari	1	P	11	0	50	0		0	0	162.7166545	162.8166055
43989.25	0.0999849	508	hunger	stimuli/foods\donut.jpg	1	4	1	donut	1	B	0	0	44	0		0	0	162.8666386	162.9666235
44026.75	0.0999818	509	hunger	stimuli/foods\cucumber.jpg	1	4	1	cucumber	1	F	3	0	41	0		0	0	163.0166375	163.1166193
44064.25	0.1000167	510	hunger	stimuli/non_foods\non-food_animate_deer.jpg	1	4	1	non-food_animate_deer	0	R	12	0	105	0		0	0	163.1666147	163.2666314
44101.75	0.0999737	511	hunger	stimuli/foods\watermelon.jpg	1	4	1	watermelon	1	N	10	0	279	0		0	0	163.3166455	163.4166192
44139.25	0.0999882	512	hunger	stimuli/non_foods\non-food_inanimate_toilet.jpg	1	4	1	non-food_inanimate_toilet	0	Z	18	0	220	0		0	0	163.4666394	163.5666276
44176.75	0.0999837	513	hunger	stimuli/foods\wafer.jpg	1	4	1	wafer	1	B	0	0	277	0		0	0	163.6166349	163.7166186
44214.25	0.1000044	514	hunger	stimuli/non_foods\non-food_animate_swan.jpg	1	4	1	non-food_animate_swan	0	Z	18	0	152	0		0	0	163.7666298	163.8666342
44251.75	0.0999844	515	hunger	stimuli/foods\roasted_chicken.jpg	1	4	1	roasted_chicken	1	K	7	0	261	0		0	0	163.9166295	164.0166139
44289.25	0.0999968	516	hunger	stimuli/foods\ginger_root.jpg	1	4	1	ginger_root	1	P	11	0	57	0		0	0	164.0666277	164.1666245
44326.75	0.0999866	517	hunger	stimuli/foods\green_olives.jpg	1	4	1	green_olives	1	N	10	0	62	0		0	0	164.216635	164.3166216
44364.25	0.0999778	518	hunger	stimuli/non_foods\non-food_animate_elephant.jpg	1	4	1	non-food_animate_elephant	0	T	14	0	111	0		0	0	164.3666319	164.4666097
44401.75	0.0999716	519	hunger	stimuli/non_foods\non-food_animate_pigeon.jpg	1	4	1	non-food_animate_pigeon	0	X	17	0	136	0		0	0	164.5166487	164.6166203
44439.25	0.0999578	520	hunger	stimuli/non_foods\non-food_inanimate_wrench.jpg	1	4	1	non-food_inanimate_wrench	0	R	12	0	227	0		0	0	164.666659	164.7666168
44476.75	0.1000142	521	hunger	stimuli/foods\chocolate_pralines.jpg	1	4	1	chocolate_pralines	1	D	2	0	28	0		0	0	164.8166019	164.9166161
44514.25	0.0999878	522	hunger	stimuli/foods\raisins.jpg	1	4	1	raisins	1	Z	18	0	252	0		0	0	164.9666305	165.0666183
44551.75	0.0999726	523	hunger	stimuli/non_foods\non-food_inanimate_speakers.jpg	1	4	1	non-food_inanimate_speakers	0	H	5	0	212	0		0	0	165.1166428	165.2166154
44589.25	0.0999881	524	hunger	stimuli/non_foods\non-food_inanimate_table.jpg	1	4	1	non-food_inanimate_table	0	J	6	0	217	0		0	0	165.2666251	165.3666132
44626.75	0.0999848	525	hunger	stimuli/non_foods\non-food_animate_horse.jpg	1	4	1	non-food_animate_horse	0	C	1	0	119	0		0	0	165.4166184	165.5166032
44664.25	0.0999738	526	hunger	stimuli/foods\brownie.jpg	1	4	1	brownie	1	J	6	0	14	0		0	0	165.5666293	165.6666031
44701.75	0.1000221	527	hunger	stimuli/non_foods\non-food_animate_student_female.jpg	1	4	1	non-food_animate_student_female	0	P	11	0	151	0		0	0	165.7166103	165.8166324
44739.25	0.0999949	528	hunger	stimuli/foods\lamb_chops.jpg	1	4	1	lamb_chops	1	T	14	0	70	0		0	0	165.8666091	165.966604
44776.75	0.0999986	529	hunger	stimuli/foods\grapefruits.jpg	1	4	1	grapefruits	1	B	0	0	59	0		0	0	166.0166086	166.1166072
44814.25	0.100007	530	hunger	stimuli/non_foods\non-food_animate_bee.jpg	1	4	1	non-food_animate_bee	0	X	17	0	95	0		0	0	166.1666163	166.2666233
44851.75	0.0999753	531	hunger	stimuli/foods\red_beans.jpg	1	4	1	red_beans	1	L	8	0	255	0		0	0	166.3166213	166.4165966
44889.25	0.0999856	532	hunger	stimuli/non_foods\non-food_inanimate_bowling_ball.jpg	1	4	1	non-food_inanimate_bowling_ball	0	R	12	0	162	0		0	0	166.4666167	166.5666023
44926.75	0.1000027	533	hunger	stimuli/foods\mortadella.jpg	1	4	1	mortadella	1	Z	18	0	83	0		0	0	166.6166027	166.7166054
44964.25	0.0999923	534	hunger	stimuli/non_foods\non-food_animate_young_girl.jpg	1	4	1	non-food_animate_young_girl	0	G	4	0	157	0		0	0	166.7666008	166.8665931
45001.75	0.0999899	535	hunger	stimuli/non_foods\non-food_animate_duck.jpg	1	4	1	non-food_animate_duck	0	I	21	1	109	0		0	0	166.9166123	167.0166022
45039.25	0.0999748	536	hunger	stimuli/foods\mandarin.jpg	1	4	1	mandarin	1	G	4	0	79	0		0	0	167.0666161	167.1665909
45076.75	0.0999638	537	hunger	stimuli/non_foods\non-food_animate_kangaroo.jpg	1	4	1	non-food_animate_kangaroo	0	T	14	0	122	0		0	0	167.2166079	167.3165717
45114.25	0.1000222	538	hunger	stimuli/foods\risotto_with_peas_and_asparagus_tips.jpg	1	4	1	risotto_with_peas_and_asparagus_tips	1	F	3	0	259	0		0	0	167.3665829	167.4666051
45151.75	0.0999756	539	hunger	stimuli/foods\apple.jpg	1	4	1	apple	1	H	5	0	1	0		0	0	167.5166089	167.6165845
45189.25	0.0999875	540	hunger	stimuli/foods\cherry.jpg	1	4	1	cherry	1	L	8	0	23	0		0	0	167.666602	167.7665895
45226.75	0.1000001	541	hunger	stimuli/foods\hotdog.jpg	1	4	1	hotdog	1	D	2	0	67	0		0	0	167.8165894	167.9165895
45264.25	0.0999921	542	hunger	stimuli/non_foods\non-food_animate_dachshund.jpg	1	4	1	non-food_animate_dachshund	0	F	3	0	104	0		0	0	167.9666001	168.0665922
45301.75	0.0999933	543	hunger	stimuli/non_foods\non-food_inanimate_gloves.jpg	1	4	1	non-food_inanimate_gloves	0	B	0	0	183	0		0	0	168.1165995	168.2165928
45339.25	0.0999851	544	hunger	stimuli/foods\banana.jpg	1	4	1	banana	1	P	11	0	9	0		0	0	168.2666062	168.3665913
45376.75	0.0999728	545	hunger	stimuli/foods\orange.jpg	1	4	1	orange	1	Z	18	0	230	0		0	0	168.4166134	168.5165862
45414.25	0.0999848	546	hunger	stimuli/foods\papaya.jpg	1	4	1	papaya	1	B	0	0	235	0		0	0	168.5666038	168.6665886
45451.75	0.0999917	547	hunger	stimuli/foods\steak.jpg	1	4	1	steak	1	M	9	0	270	0		0	0	168.7165999	168.8165916
45489.25	0.0999938	548	hunger	stimuli/non_foods\non-food_inanimate_canoe.jpg	1	4	1	non-food_inanimate_canoe	0	F	3	0	170	0		0	0	168.8666013	168.9665951
45526.75	0.0999893	549	hunger	stimuli/foods\cabbage.jpg	1	4	1	cabbage	1	J	6	0	16	0		0	0	169.0165803	169.1165696
45564.25	0.1000253	550	hunger	stimuli/non_foods\non-food_inanimate_skateboard.jpg	1	4	1	non-food_inanimate_skateboard	0	L	8	0	208	0		0	0	169.1665693	169.2665946
45601.75	0.099991	551	hunger	stimuli/non_foods\non-food_animate_lizard.jpg	1	4	1	non-food_animate_lizard	0	N	10	0	126	0		0	0	169.3165976	169.4165886
45639.25	0.0999836	552	hunger	stimuli/non_foods\non-food_inanimate_leaf.jpg	1	4	1	non-food_inanimate_leaf	0	C	1	0	192	0		0	0	169.4665968	169.5665804
45676.75	0.0999816	553	hunger	stimuli/non_foods\non-food_animate_seahorse.jpg	1	4	1	non-food_animate_seahorse	0	K	7	0	145	0		0	0	169.6165935	169.7165751
45714.25	0.0999833	554	hunger	stimuli/non_foods\non-food_inanimate_orchid.jpg	1	4	1	non-food_inanimate_orchid	0	D	2	0	198	0		0	0	169.7665977	169.866581
45751.75	0.0999776	555	hunger	stimuli/foods\kiwi.jpg	1	4	1	kiwi	1	C	1	0	69	0		0	0	169.9166016	170.0165792
45789.25	0.0999893	556	hunger	stimuli/non_foods\non-food_inanimate_nailpolish.jpg	1	4	1	non-food_inanimate_nailpolish	0	D	2	0	195	0		0	0	170.0665922	170.1665815
45826.75	0.0999823	557	hunger	stimuli/foods\toasted_bread_with_tomatoes.jpg	1	4	1	toasted_bread_with_tomatoes	1	H	5	0	275	0		0	0	170.2165931	170.3165754
45864.25	0.0999837	558	hunger	stimuli/foods\lollies.jpg	1	4	1	lollies	1	W	16	0	78	0		0	0	170.3665892	170.4665729
45901.75	0.099996	559	hunger	stimuli/non_foods\non-food_animate_owl.jpg	1	4	1	non-food_animate_owl	0	N	10	0	132	0		0	0	170.5165784	170.6165744
46601.75	0.0999754	560	hunger	stimuli/foods\salami.jpg	1	5	1	salami	1	C	1	0	263	0		0	0	173.3165736	173.416549
46639.25	0.0999872	561	hunger	stimuli/non_foods\non-food_inanimate_scissors.jpg	1	5	1	non-food_inanimate_scissors	0	J	6	0	205	0		0	0	173.4665638	173.566551
46676.75	0.0999874	562	hunger	stimuli/non_foods\non-food_animate_woman.jpg	1	5	1	non-food_animate_woman	0	X	17	0	154	0		0	0	173.6165656	173.716553
46714.25	0.0999623	563	hunger	stimuli/non_foods\non-food_inanimate_towel.jpg	1	5	1	non-food_inanimate_towel	0	M	9	0	221	0		0	0	173.7665871	173.8665494
46751.75	0.0999709	564	hunger	stimuli/foods\risotto_with_zucchini.jpg	1	5	1	risotto_with_zucchini	1	L	8	0	260	0		0	0	173.9165761	174.016547
46789.25	0.0999843	565	hunger	stimuli/foods\pumpkin.jpg	1	5	1	pumpkin	1	C	1	0	250	0		0	0	174.0665614	174.1665457
46826.75	0.0999905	566	hunger	stimuli/foods\fried_calamari.jpg	1	5	1	fried_calamari	1	Z	18	0	50	0		0	0	174.2165569	174.3165474
46864.25	0.0999823	567	hunger	stimuli/non_foods\non-food_inanimate_soccer_ball.jpg	1	5	1	non-food_inanimate_soccer_ball	0	M	9	0	210	0		0	0	174.3665596	174.4665419
46901.75	0.0999869	568	hunger	stimuli/foods\savory_pie.jpg	1	5	1	savory_pie	1	N	10	0	265	0		0	0	174.5165563	174.6165432
46939.25	0.0999856	569	hunger	stimuli/non_foods\non-food_animate_baby_sitting.jpg	1	5	1	non-food_animate_baby_sitting	0	P	11	0	93	0		0	0	174.666557	174.7665426
46976.75	0.0999808	570	hunger	stimuli/non_foods\non-food_animate_fox.jpg	1	5	1	non-food_animate_fox	0	F	3	0	112	0		0	0	174.816556	174.9165368
47014.25	0.0999866	571	hunger	stimuli/non_foods\non-food_inanimate_buds.jpg	1	5	1	non-food_inanimate_buds	0	V	15	0	166	0		0	0	174.9665547	175.0665413
47051.75	0.099991	572	hunger	stimuli/non_foods\non-food_animate_donkey.jpg	1	5	1	non-food_animate_donkey	0	T	14	0	107	0		0	0	175.1165471	175.2165381
47089.25	0.099987	573	hunger	stimuli/foods\bagel.jpg	1	5	1	bagel	1	N	10	0	6	0		0	0	175.2665487	175.3665357
47126.75	0.0999852	574	hunger	stimuli/foods\figs.jpg	1	5	1	figs	1	K	7	0	48	0		0	0	175.4165511	175.5165363
47164.25	0.099943	575	hunger	stimuli/foods\coffee_beans.jpg	1	5	1	coffee_beans	1	C	1	0	34	0		0	0	175.5665917	175.6665347
47201.75	0.0999897	576	hunger	stimuli/foods\raw_ham.jpg	1	5	1	raw_ham	1	V	15	0	253	0		0	0	175.7165467	175.8165364
47239.25	0.1000241	577	hunger	stimuli/foods\chocolate_chip_cookies.jpg	1	5	1	chocolate_chip_cookies	1	B	0	0	27	0		0	0	175.8665511	175.9665752
47276.75	0.0999867	578	hunger	stimuli/foods\minestrone_soup.jpg	1	5	1	minestrone_soup	1	K	7	0	82	0		0	0	176.0165445	176.1165312
47314.25	0.0999851	579	hunger	stimuli/non_foods\non-food_animate_owl.jpg	1	5	1	non-food_animate_owl	0	M	9	0	132	0		0	0	176.1665442	176.2665293
47351.75	0.099984	580	hunger	stimuli/foods\apricot.jpg	1	5	1	apricot	1	W	16	0	2	0		0	0	176.3165444	176.4165284
47389.25	0.0999902	581	hunger	stimuli/non_foods\non-food_animate_porcupine.jpg	1	5	1	non-food_animate_porcupine	0	I	21	1	138	0		0	0	176.4665422	176.5665324
47426.75	0.0999808	582	hunger	stimuli/non_foods\non-food_inanimate_alarm_clock.jpg	1	5	1	non-food_inanimate_alarm_clock	0	R	12	0	158	0		0	0	176.6165455	176.7165263
47464.25	0.099978	583	hunger	stimuli/foods\toasted_bread_with_tomatoes.jpg	1	5	1	toasted_bread_with_tomatoes	1	P	11	0	275	0		0	0	176.7665432	176.8665212
47501.75	0.0999863	584	hunger	stimuli/foods\ginger_root.jpg	1	5	1	ginger_root	1	K	7	0	57	0		0	0	176.9165379	177.0165242
47539.25	0.0999872	585	hunger	stimuli/non_foods\non-food_animate_sea_turtle.jpg	1	5	1	non-food_animate_sea_turtle	0	T	14	0	144	0		0	0	177.0665353	177.1665225
47576.75	0.1000286	586	hunger	stimuli/non_foods\non-food_inanimate_tulip.jpg	1	5	1	non-food_inanimate_tulip	0	N	10	0	224	0		0	0	177.2165358	177.3165644
47614.25	0.0999403	587	hunger	stimuli/non_foods\non-food_animate_polar_bear.jpg	1	5	1	non-food_animate_polar_bear	0	P	11	0	137	1	a	0.9918655	1	177.3665847	177.466525
47651.75	0.0999788	588	hunger	stimuli/foods\almonds.jpg	1	5	1	almonds	1	L	8	0	0	0		0	0	177.5165362	177.616515
47689.25	0.0999948	589	hunger	stimuli/non_foods\non-food_animate_mammoth.jpg	1	5	1	non-food_animate_mammoth	0	H	5	0	128	0		0	0	177.6665279	177.7665227
47726.75	0.0999823	590	hunger	stimuli/foods\lentils.jpg	1	5	1	lentils	1	F	3	0	74	0		0	0	177.8165336	177.9165159
47764.25	0.0999852	591	hunger	stimuli/non_foods\non-food_inanimate_tree.jpg	1	5	1	non-food_inanimate_tree	0	X	17	0	223	0		0	0	177.9665288	178.066514
47801.75	0.0999902	592	hunger	stimuli/foods\peas.jpg	1	5	1	peas	1	K	7	0	240	0		0	0	178.1165292	178.2165194
47839.25	0.0999835	593	hunger	stimuli/non_foods\non-food_inanimate_briefcase.jpg	1	5	1	non-food_inanimate_briefcase	0	S	13	0	163	0		0	0	178.266529	178.3665125
47876.75	0.0999706	594	hunger	stimuli/foods\mandarin.jpg	1	5	1	mandarin	1	V	15	0	79	0		0	0	178.4165438	178.5165144
47914.25	0.0999826	595	hunger	stimuli/non_foods\non-food_inanimate_toy_airplane.jpg	1	5	1	non-food_inanimate_toy_airplane	0	F	3	0	222	0		0	0	178.5665282	178.6665108
47951.75	0.0999881	596	hunger	stimuli/foods\baked_cod_with_carrots_and_green_beans.jpg	1	5	1	baked_cod_with_carrots_and_green_beans	1	K	7	0	7	0		0	0	178.7165255	178.8165136
47989.25	0.0999823	597	hunger	stimuli/foods\banana.jpg	1	5	1	banana	1	N	10	0	9	0		0	0	178.8665292	178.9665115
48026.75	0.1000307	598	hunger	stimuli/non_foods\non-food_animate_student_female.jpg	1	5	1	non-food_animate_student_female	0	R	12	0	151	0		0	0	179.016521	179.1165517
48064.25	0.0999502	599	hunger	stimuli/non_foods\non-food_animate_clown.jpg	1	5	1	non-food_animate_clown	0	W	16	0	102	0		0	0	179.1665587	179.2665089
48101.75	0.0999832	600	hunger	stimuli/foods\cannoli.jpg	1	5	1	cannoli	1	V	15	0	17	0		0	0	179.3165209	179.4165041
48139.25	0.0999871	601	hunger	stimuli/foods\spinach.jpg	1	5	1	spinach	1	T	14	0	268	0		0	0	179.4665176	179.5665047
48176.75	0.0999815	602	hunger	stimuli/non_foods\non-food_inanimate_orchid.jpg	1	5	1	non-food_inanimate_orchid	0	S	13	0	198	0		0	0	179.6165228	179.7165043
48214.25	0.0999848	603	hunger	stimuli/foods\grilled_chicken_breast.jpg	1	5	1	grilled_chicken_breast	1	N	10	0	63	0		0	0	179.7665179	179.8665027
48251.75	0.0999893	604	hunger	stimuli/foods\gnocchi.jpg	1	5	1	gnocchi	1	W	16	0	58	0		0	0	179.9165154	180.0165047
48289.25	0.0999894	605	hunger	stimuli/foods\red_cabbage.jpg	1	5	1	red_cabbage	1	M	9	0	256	0		0	0	180.0665152	180.1665046
48326.75	0.0999723	606	hunger	stimuli/foods\beetroots.jpg	1	5	1	beetroots	1	R	12	0	10	0		0	0	180.2165266	180.3164989
48364.25	0.0999874	607	hunger	stimuli/non_foods\non-food_inanimate_hammer.jpg	1	5	1	non-food_inanimate_hammer	0	B	0	0	186	0		0	0	180.3665129	180.4665003
48401.75	0.0999812	608	hunger	stimuli/non_foods\non-food_inanimate_cactus_pot_plant.jpg	1	5	1	non-food_inanimate_cactus_pot_plant	0	V	15	0	169	0		0	0	180.5165126	180.6164938
48439.25	0.0999853	609	hunger	stimuli/foods\salmon.jpg	1	5	1	salmon	1	D	2	0	264	0		0	0	180.6665089	180.7664942
48476.75	0.1000263	610	hunger	stimuli/foods\green_beans.jpg	1	5	1	green_beans	1	P	11	0	61	0		0	0	180.816518	180.9165443
48514.25	0.099969	611	hunger	stimuli/non_foods\non-food_inanimate_broom.jpg	1	5	1	non-food_inanimate_broom	0	C	1	0	164	0		0	0	180.966525	181.066494
48551.75	0.0999885	612	hunger	stimuli/foods\fruit_flan.jpg	1	5	1	fruit_flan	1	G	4	0	53	0		0	0	181.116506	181.2164945
48589.25	0.0999834	613	hunger	stimuli/foods\baked_lamb_with_potatoes.jpg	1	5	1	baked_lamb_with_potatoes	1	S	13	0	8	0		0	0	181.2665074	181.3664908
48626.75	0.0999841	614	hunger	stimuli/non_foods\non-food_inanimate_table.jpg	1	5	1	non-food_inanimate_table	0	N	10	0	217	0		0	0	181.4165028	181.5164869
48664.25	0.099987	615	hunger	stimuli/non_foods\non-food_animate_runner.jpg	1	5	1	non-food_animate_runner	0	K	7	0	142	0		0	0	181.566504	181.666491
48701.75	0.0999861	616	hunger	stimuli/foods\pea_pod.jpg	1	5	1	pea_pod	1	X	17	0	237	0		0	0	181.716503	181.8164891
48739.25	0.0999884	617	hunger	stimuli/non_foods\non-food_animate_camel.jpg	1	5	1	non-food_animate_camel	0	R	12	0	97	0		0	0	181.8665029	181.9664913
48776.75	0.0999691	618	hunger	stimuli/non_foods\non-food_animate_ladybug.jpg	1	5	1	non-food_animate_ladybug	0	V	15	0	124	0		0	0	182.0165149	182.116484
48814.25	0.0999868	619	hunger	stimuli/foods\fennel.jpg	1	5	1	fennel	1	T	14	0	47	0		0	0	182.1664964	182.2664832
48851.75	0.0999875	620	hunger	stimuli/foods\coconut.jpg	1	5	1	coconut	1	M	9	0	33	0		0	0	182.3164989	182.4164864
48889.25	0.0999818	621	hunger	stimuli/non_foods\non-food_animate_snail.jpg	1	5	1	non-food_animate_snail	0	X	17	0	149	0		0	0	182.4664933	182.5664751
48926.75	0.0999949	622	hunger	stimuli/non_foods\non-food_animate_monkey.jpg	1	5	1	non-food_animate_monkey	0	J	6	0	130	0		0	0	182.6165106	182.7165055
48964.25	0.0999482	623	hunger	stimuli/foods\ice_cream.jpg	1	5	1	ice_cream	1	C	1	0	68	0		0	0	182.7665307	182.8664789
49001.75	0.0999831	624	hunger	stimuli/non_foods\non-food_inanimate_moss.jpg	1	5	1	non-food_inanimate_moss	0	Z	18	0	194	0		0	0	182.9164948	183.0164779
49039.25	0.0999893	625	hunger	stimuli/non_foods\non-food_animate_horse.jpg	1	5	1	non-food_animate_horse	0	J	6	0	119	0		0	0	183.066492	183.1664813
49076.75	0.0999842	626	hunger	stimuli/foods\pasta_carbonara.jpg	1	5	1	pasta_carbonara	1	N	10	0	236	0		0	0	183.2164909	183.3164751
49114.25	0.0999896	627	hunger	stimuli/foods\oregano.jpg	1	5	1	oregano	1	R	12	0	231	0		0	0	183.3664898	183.4664794
49151.75	0.0999878	628	hunger	stimuli/foods\potatoes.jpg	1	5	1	potatoes	1	L	8	0	248	0		0	0	183.5164891	183.6164769
49189.25	0.0999762	629	hunger	stimuli/non_foods\non-food_inanimate_leaf.jpg	1	5	1	non-food_inanimate_leaf	0	C	1	0	192	0		0	0	183.6664862	183.7664624
49226.75	0.0999651	630	hunger	stimuli/non_foods\non-food_inanimate_construction_helment.jpg	1	5	1	non-food_inanimate_construction_helment	0	F	3	0	175	0		0	0	183.8165082	183.9164733
49264.25	0.099986	631	hunger	stimuli/non_foods\non-food_animate_tortoise.jpg	1	5	1	non-food_animate_tortoise	0	D	2	0	153	0		0	0	183.9664838	184.0664698
49301.75	0.0999908	632	hunger	stimuli/non_foods\non-food_inanimate_lighter.jpg	1	5	1	non-food_inanimate_lighter	0	G	4	0	193	0		0	0	184.1164827	184.2164735
49339.25	0.0999855	633	hunger	stimuli/foods\brie.jpg	1	5	1	brie	1	B	0	0	12	0		0	0	184.2664841	184.3664696
49376.75	0.099991	634	hunger	stimuli/non_foods\non-food_animate_butterfly.jpg	1	5	1	non-food_animate_butterfly	0	R	12	0	96	0		0	0	184.4164788	184.5164698
49414.25	0.0999801	635	hunger	stimuli/non_foods\non-food_animate_dragonfly.jpg	1	5	1	non-food_animate_dragonfly	0	Z	18	0	108	0		0	0	184.5664884	184.6664685
49451.75	0.0999885	636	hunger	stimuli/foods\chocolate_pudding.jpg	1	5	1	chocolate_pudding	1	X	17	0	29	0		0	0	184.7164778	184.8164663
49489.25	0.0999884	637	hunger	stimuli/non_foods\non-food_animate_eagle.jpg	1	5	1	non-food_animate_eagle	0	F	3	0	110	0		0	0	184.8664812	184.9664696
49526.75	0.0999362	638	hunger	stimuli/non_foods\non-food_animate_frog.jpg	1	5	1	non-food_animate_frog	0	K	7	0	113	0		0	0	185.0165299	185.1164661
49564.25	0.0999861	639	hunger	stimuli/foods\cupcake.jpg	1	5	1	cupcake	1	M	9	0	42	0		0	0	185.1664769	185.266463
49601.75	0.0999704	640	hunger	stimuli/foods\lime.jpg	1	5	1	lime	1	S	13	0	76	0		0	0	185.3164939	185.4164643
49639.25	0.0999953	641	hunger	stimuli/foods\cinnamon.jpg	1	5	1	cinnamon	1	K	7	0	30	0		0	0	185.4664768	185.5664721
49676.75	0.0999891	642	hunger	stimuli/foods\mussels.jpg	1	5	1	mussels	1	L	8	0	86	0		0	0	185.6164779	185.716467
49714.25	0.0999836	643	hunger	stimuli/non_foods\non-food_inanimate_bicycle.jpg	1	5	1	non-food_inanimate_bicycle	0	J	6	0	161	0		0	0	185.7664754	185.866459
49751.75	0.0999858	644	hunger	stimuli/foods\cream_donuts.jpg	1	5	1	cream_donuts	1	N	10	0	39	0		0	0	185.9164713	186.0164571
49789.25	0.0999923	645	hunger	stimuli/foods\artichoke.jpg	1	5	1	artichoke	1	K	7	0	3	0		0	0	186.0664661	186.1664584
49826.75	0.0999637	646	hunger	stimuli/non_foods\non-food_animate_gorilla.jpg	1	5	1	non-food_animate_gorilla	0	H	5	0	116	0		0	0	186.2164892	186.3164529
49864.25	0.0999862	647	hunger	stimuli/foods\pineapple.jpg	1	5	1	pineapple	1	C	1	0	243	0		0	0	186.3664657	186.4664519
49901.75	0.0999853	648	hunger	stimuli/foods\pork_and_rice.jpg	1	5	1	pork_and_rice	1	W	16	0	245	0		0	0	186.516467	186.6164523
49939.25	0.0999834	649	hunger	stimuli/non_foods\non-food_inanimate_rack.jpg	1	5	1	non-food_inanimate_rack	0	G	4	0	202	0		0	0	186.666465	186.7664484
49976.75	0.0999856	650	hunger	stimuli/foods\chestnut.jpg	1	5	1	chestnut	1	Z	18	0	24	0		0	0	186.8164657	186.9164513
50014.25	0.0999878	651	hunger	stimuli/foods\red_beans.jpg	1	5	1	red_beans	1	G	4	0	255	0		0	0	186.9664608	187.0664486
50051.75	0.0999853	652	hunger	stimuli/non_foods\non-food_inanimate_wrench.jpg	1	5	1	non-food_inanimate_wrench	0	R	12	0	227	0		0	0	187.1164635	187.2164488
50089.25	0.1000059	653	hunger	stimuli/foods\chocolate_pralines.jpg	1	5	1	chocolate_pralines	1	L	8	0	28	0		0	0	187.2664614	187.3664673
50126.75	0.0999863	654	hunger	stimuli/foods\cereal.jpg	1	5	1	cereal	1	M	9	0	22	0		0	0	187.4164604	187.5164467
50164.25	0.0999857	655	hunger	stimuli/foods\celery.jpg	1	5	1	celery	1	D	2	0	21	0		0	0	187.5664552	187.6664409
50201.75	0.0999893	656	hunger	stimuli/non_foods\non-food_animate_slug.jpg	1	5	1	non-food_animate_slug	0	J	6	0	148	0		0	0	187.7164591	187.8164484
50239.25	0.0999837	657	hunger	stimuli/non_foods\non-food_animate_elephant.jpg	1	5	1	non-food_animate_elephant	0	L	8	0	111	0		0	0	187.8664531	187.9664368
50276.75	0.0999008	658	hunger	stimuli/foods\orange.jpg	1	5	1	orange	1	P	11	0	230	0		0	0	188.0165624	188.1164632
50314.25	0.0999843	659	hunger	stimuli/non_foods\non-food_animate_cheetah.jpg	1	5	1	non-food_animate_cheetah	0	V	15	0	100	0		0	0	188.1664563	188.2664406
50351.75	0.0999861	660	hunger	stimuli/non_foods\non-food_animate_seahorse.jpg	1	5	1	non-food_animate_seahorse	0	L	8	0	145	0		0	0	188.3164508	188.4164369
50389.25	0.0999863	661	hunger	stimuli/foods\watermelon.jpg	1	5	1	watermelon	1	S	13	0	279	0		0	0	188.466452	188.5664383
50426.75	0.099987	662	hunger	stimuli/non_foods\non-food_inanimate_skirt.jpg	1	5	1	non-food_inanimate_skirt	0	X	17	0	209	0		0	0	188.6164495	188.7164365
50464.25	0.0999805	663	hunger	stimuli/non_foods\non-food_inanimate_fire_extinguisher.jpg	1	5	1	non-food_inanimate_fire_extinguisher	0	R	12	0	181	0		0	0	188.7664506	188.8664311
50501.75	0.0999713	664	hunger	stimuli/foods\wafer.jpg	1	5	1	wafer	1	D	2	0	277	0		0	0	188.9164548	189.0164261
50539.25	0.0999946	665	hunger	stimuli/foods\fries.jpg	1	5	1	fries	1	V	15	0	52	0		0	0	189.0664367	189.1664313
50576.75	0.0999874	666	hunger	stimuli/non_foods\non-food_inanimate_tent.jpg	1	5	1	non-food_inanimate_tent	0	G	4	0	219	0		0	0	189.2164459	189.3164333
50614.25	0.0999917	667	hunger	stimuli/non_foods\non-food_animate_rhino.jpg	1	5	1	non-food_animate_rhino	0	X	17	0	141	0		0	0	189.366444	189.4664357
50651.75	0.0999852	668	hunger	stimuli/non_foods\non-food_inanimate_desk.jpg	1	5	1	non-food_inanimate_desk	0	M	9	0	178	0		0	0	189.5164427	189.6164279
50689.25	0.1000078	669	hunger	stimuli/non_foods\non-food_animate_alligator.jpg	1	5	1	non-food_animate_alligator	0	D	2	0	90	0		0	0	189.6664469	189.7664547
50726.75	0.0999402	670	hunger	stimuli/foods\cherry.jpg	1	5	1	cherry	1	S	13	0	23	0		0	0	189.8164857	189.9164259
50764.25	0.099986	671	hunger	stimuli/foods\green_olives.jpg	1	5	1	green_olives	1	N	10	0	62	0		0	0	189.9664394	190.0664254
50801.75	0.0999816	672	hunger	stimuli/foods\spaghetti_with_meat_sauce.jpg	1	5	1	spaghetti_with_meat_sauce	1	X	17	0	267	0		0	0	190.1164413	190.2164229
50839.25	0.0999838	673	hunger	stimuli/foods\linguine_with_clams.jpg	1	5	1	linguine_with_clams	1	C	1	0	77	0		0	0	190.2664379	190.3664217
50876.75	0.0999842	674	hunger	stimuli/non_foods\non-food_inanimate_horn.jpg	1	5	1	non-food_inanimate_horn	0	E	20	1	190	0		0	0	190.416439	190.5164232
50914.25	0.0999881	675	hunger	stimuli/non_foods\non-food_inanimate_watering_can.jpg	1	5	1	non-food_inanimate_watering_can	0	W	16	0	225	0		0	0	190.5664328	190.6664209
50951.75	0.0999852	676	hunger	stimuli/non_foods\non-food_animate_llama.jpg	1	5	1	non-food_animate_llama	0	S	13	0	127	0		0	0	190.7164354	190.8164206
50989.25	0.0999751	677	hunger	stimuli/non_foods\non-food_animate_grasshopper.jpg	1	5	1	non-food_animate_grasshopper	0	T	14	0	117	1	a	0.4432398	1	190.8664473	190.9664224
51026.75	0.099986	678	hunger	stimuli/foods\rice.jpg	1	5	1	rice	1	X	17	0	257	0		0	0	191.0164316	191.1164176
51064.25	0.0999885	679	hunger	stimuli/non_foods\non-food_animate_yellow_bug.jpg	1	5	1	non-food_animate_yellow_bug	0	V	15	0	155	0		0	0	191.1664329	191.2664214
51101.75	0.0999846	680	hunger	stimuli/foods\broccoli.jpg	1	5	1	broccoli	1	W	16	0	13	0		0	0	191.316431	191.4164156
51139.25	0.0999908	681	hunger	stimuli/non_foods\non-food_animate_squirrel.jpg	1	5	1	non-food_animate_squirrel	0	R	12	0	150	0		0	0	191.466444	191.5664348
51176.75	0.0999566	682	hunger	stimuli/non_foods\non-food_animate_Causasian_man.jpg	1	5	1	non-food_animate_Causasian_man	0	D	2	0	89	0		0	0	191.6164571	191.7164137
51214.25	0.0999802	683	hunger	stimuli/non_foods\non-food_inanimate_folding_chair.jpg	1	5	1	non-food_inanimate_folding_chair	0	C	1	0	182	0		0	0	191.7664274	191.8664076
51251.75	0.0999879	684	hunger	stimuli/foods\blackberry.jpg	1	5	1	blackberry	1	X	17	0	11	0		0	0	191.916426	192.0164139
51289.25	0.0999867	685	hunger	stimuli/foods\eggplant.jpg	1	5	1	eggplant	1	T	14	0	46	0		0	0	192.06642	192.1664067
51326.75	0.0999883	686	hunger	stimuli/non_foods\non-food_animate_kangaroo.jpg	1	5	1	non-food_animate_kangaroo	0	J	6	0	122	0		0	0	192.2164203	192.3164086
51364.25	0.0999863	687	hunger	stimuli/non_foods\non-food_inanimate_skateboard.jpg	1	5	1	non-food_inanimate_skateboard	0	N	10	0	208	0		0	0	192.366422	192.4664083
51401.75	0.0999827	688	hunger	stimuli/non_foods\non-food_animate_young_girl.jpg	1	5	1	non-food_animate_young_girl	0	P	11	0	157	0		0	0	192.5164221	192.6164048
51439.25	0.1000004	689	hunger	stimuli/non_foods\non-food_animate_giraffe.jpg	1	5	1	non-food_animate_giraffe	0	G	4	0	115	0		0	0	192.6664191	192.7664195
51476.75	0.0999806	690	hunger	stimuli/non_foods\non-food_animate_penguin.jpg	1	5	1	non-food_animate_penguin	0	Z	18	0	135	0		0	0	192.8164214	192.916402
51514.25	0.0999661	691	hunger	stimuli/non_foods\non-food_animate_raccoon.jpg	1	5	1	non-food_animate_raccoon	0	B	0	0	139	0		0	0	192.966414	193.0663801
51551.75	0.0999843	692	hunger	stimuli/foods\steak.jpg	1	5	1	steak	1	M	9	0	270	0		0	0	193.1164169	193.2164012
51589.25	0.0999992	693	hunger	stimuli/foods\cauliflower.jpg	1	5	1	cauliflower	1	N	10	0	20	0		0	0	193.2664295	193.3664287
51626.75	0.0999783	694	hunger	stimuli/non_foods\non-food_animate_caterpillar.jpg	1	5	1	non-food_animate_caterpillar	0	R	12	0	99	0		0	0	193.4164178	193.5163961
51664.25	0.0999844	695	hunger	stimuli/foods\oyster.jpg	1	5	1	oyster	1	C	1	0	233	0		0	0	193.566415	193.6663994
51701.75	0.0999851	696	hunger	stimuli/foods\museli_bars.jpg	1	5	1	museli_bars	1	B	0	0	84	0		0	0	193.7164105	193.8163956
51739.25	0.0999873	697	hunger	stimuli/foods\pepperoni_pizza.jpg	1	5	1	pepperoni_pizza	1	H	5	0	241	0		0	0	193.8664101	193.9663974
51776.75	0.099984	698	hunger	stimuli/foods\meatballs.jpg	1	5	1	meatballs	1	C	1	0	81	0		0	0	194.0164098	194.1163938
51814.25	0.0999856	699	hunger	stimuli/foods\cracker.jpg	1	5	1	cracker	1	M	9	0	38	0		0	0	194.1664091	194.2663947
52418.5	0.0999727	700	hunger	stimuli/foods\asparagus.jpg	1	6	1	asparagus	1	X	17	0	4	0		0	0	196.5830704	196.6830431
52456	0.0999781	701	hunger	stimuli/non_foods\non-food_animate_deer.jpg	1	6	1	non-food_animate_deer	0	C	1	0	105	0		0	0	196.7330545	196.8330326
52493.5	0.0999788	702	hunger	stimuli/foods\cabbage.jpg	1	6	1	cabbage	1	G	4	0	16	0		0	0	196.8830581	196.9830369
52531	0.0999844	703	hunger	stimuli/foods\croissant.jpg	1	6	1	croissant	1	C	1	0	40	0		0	0	197.0330517	197.1330361
52568.5	0.0999979	704	hunger	stimuli/non_foods\non-food_inanimate_chair.jpg	1	6	1	non-food_inanimate_chair	0	T	14	0	172	0		0	0	197.1830507	197.2830486
52606	0.0999833	705	hunger	stimuli/non_foods\non-food_inanimate_chandelier.jpg	1	6	1	non-food_inanimate_chandelier	0	D	2	0	173	0		0	0	197.3330547	197.433038
52643.5	0.0999847	706	hunger	stimuli/foods\rockmelon.jpg	1	6	1	rockmelon	1	W	16	0	262	0		0	0	197.4830488	197.5830335
52681	0.0999887	707	hunger	stimuli/foods\fried_zucchini.jpg	1	6	1	fried_zucchini	1	R	12	0	51	0		0	0	197.6330495	197.7330382
52718.5	0.1000132	708	hunger	stimuli/foods\fruit_pie.jpg	1	6	1	fruit_pie	1	T	14	0	54	0		0	0	197.7830346	197.8830478
52756	0.0999774	709	hunger	stimuli/non_foods\non-food_animate_seal.jpg	1	6	1	non-food_animate_seal	0	C	1	0	146	0		0	0	197.9330459	198.0330233
52793.5	0.0999875	710	hunger	stimuli/non_foods\non-food_inanimate_highlighter.jpg	1	6	1	non-food_inanimate_highlighter	0	B	0	0	189	0		0	0	198.0830439	198.1830314
52831	0.099976	711	hunger	stimuli/foods\cooked_ham.jpg	1	6	1	cooked_ham	1	G	4	0	35	0		0	0	198.2330441	198.3330201
52868.5	0.0999851	712	hunger	stimuli/foods\mango.jpg	1	6	1	mango	1	D	2	0	80	0		0	0	198.3830432	198.4830283
52906	0.1000038	713	hunger	stimuli/foods\lemon.jpg	1	6	1	lemon	1	K	7	0	72	0		0	0	198.5330203	198.6330241
52943.5	0.0999877	714	hunger	stimuli/non_foods\non-food_inanimate_bucket.jpg	1	6	1	non-food_inanimate_bucket	0	V	15	0	165	0		0	0	198.683038	198.7830257
52981	0.0999754	715	hunger	stimuli/non_foods\non-food_inanimate_protractor.jpg	1	6	1	non-food_inanimate_protractor	0	N	10	0	201	0		0	0	198.8330416	198.933017
53018.5	0.0999932	716	hunger	stimuli/non_foods\non-food_inanimate_teddy_bear.jpg	1	6	1	non-food_inanimate_teddy_bear	0	C	1	0	218	0		0	0	198.9830282	199.0830214
53056	0.0999564	717	hunger	stimuli/non_foods\non-food_animate_cat.jpg	1	6	1	non-food_animate_cat	0	A	19	1	98	0		0	0	199.133065	199.2330214
53093.5	0.0999807	718	hunger	stimuli/non_foods\non-food_inanimate_nailpolish.jpg	1	6	1	non-food_inanimate_nailpolish	0	D	2	0	195	0		0	0	199.2830313	199.383012
53131	0.0999928	719	hunger	stimuli/foods\spring_onions.jpg	1	6	1	spring_onions	1	J	6	0	269	0		0	0	199.4330266	199.5330194
53168.5	0.0999889	720	hunger	stimuli/foods\potato_and_green_bean_salad.jpg	1	6	1	potato_and_green_bean_salad	1	W	16	0	246	1	a	0.458368	1	199.583033	199.6830219
53206	0.0999869	721	hunger	stimuli/non_foods\non-food_animate_swan.jpg	1	6	1	non-food_animate_swan	0	P	11	0	152	0		0	0	199.7330316	199.8330185
53243.5	0.0999752	722	hunger	stimuli/non_foods\non-food_inanimate_bamboo.jpg	1	6	1	non-food_inanimate_bamboo	0	C	1	0	159	0		0	0	199.8830404	199.9830156
53281	0.0999667	723	hunger	stimuli/foods\potato_chips.jpg	1	6	1	potato_chips	1	H	5	0	247	0		0	0	200.0330399	200.1330066
53318.5	0.0999575	724	hunger	stimuli/non_foods\non-food_inanimate_padlock.jpg	1	6	1	non-food_inanimate_padlock	0	F	3	0	199	0		0	0	200.1830318	200.2829893
53356	0.0999877	725	hunger	stimuli/non_foods\non-food_inanimate_toilet.jpg	1	6	1	non-food_inanimate_toilet	0	B	0	0	220	0		0	0	200.3330284	200.4330161
53393.5	0.0999878	726	hunger	stimuli/non_foods\non-food_animate_sea_lion.jpg	1	6	1	non-food_animate_sea_lion	0	Z	18	0	143	0		0	0	200.4830244	200.5830122
53431	0.0999862	727	hunger	stimuli/foods\pancakes.jpg	1	6	1	pancakes	1	W	16	0	234	0		0	0	200.6330254	200.7330116
53468.5	0.0999849	728	hunger	stimuli/non_foods\non-food_inanimate_gloves.jpg	1	6	1	non-food_inanimate_gloves	0	C	1	0	183	0		0	0	200.7830274	200.8830123
53506	0.0999854	729	hunger	stimuli/foods\grapefruits.jpg	1	6	1	grapefruits	1	F	3	0	59	0		0	0	200.9330228	201.0330082
53543.5	0.0999951	730	hunger	stimuli/foods\garlic.jpg	1	6	1	garlic	1	P	11	0	56	0		0	0	201.0830145	201.1830096
53581	0.0999954	731	hunger	stimuli/foods\cooked_prawn.jpg	1	6	1	cooked_prawn	1	X	17	0	36	0		0	0	201.2330108	201.3330062
53618.5	0.1000058	732	hunger	stimuli/foods\omelette.jpg	1	6	1	omelette	1	N	10	0	228	0		0	0	201.3830099	201.4830157
53656	0.0999991	733	hunger	stimuli/non_foods\non-food_inanimate_short_sleeved_shirt.jpg	1	6	1	non-food_inanimate_short_sleeved_shirt	0	M	9	0	207	0		0	0	201.5330095	201.6330086
53693.5	0.1000046	734	hunger	stimuli/foods\papaya.jpg	1	6	1	papaya	1	A	19	1	235	0		0	0	201.6829929	201.7829975
53731	0.1000035	735	hunger	stimuli/foods\rice_cake.jpg	1	6	1	rice_cake	1	J	6	0	258	0		0	0	201.8329947	201.9329982
