onset	duration	eventnumber	hunger_condition	stimfilename	blockno	trialno	is_faststream	stim	food_idx	letter	letter_idx	istarget	image_number	response	keypressed	rt	correct	time_stimon	time_stimoff
21025	0.0999977000174113	0	hunger	stimuli/non_foods\non-food_inanimate_grass.jpg	1	1	1	non-food_inanimate_grass	0	D	2	0	184	0		0	0	79.5407660999917	79.6407638000092
21062.5	0.100023399980273	1	hunger	stimuli/non_foods\non-food_inanimate_fern.jpg	1	1	1	non-food_inanimate_fern	0	J	6	0	180	0		0	0	79.6907799000037	79.790803299984
21100	0.0999791999929585	2	hunger	stimuli/non_foods\non-food_inanimate_hammer.jpg	1	1	1	non-food_inanimate_hammer	0	W	16	0	186	1	a	0	0	79.8407682999969	79.9407474999898
21137.5	0.0999503000057302	3	hunger	stimuli/non_foods\non-food_inanimate_stoplight.jpg	1	1	1	non-food_inanimate_stoplight	0	R	12	0	214	0		0	0	79.9908011999796	80.0907514999853
21175	0.0999862999888137	4	hunger	stimuli/foods\lamb_chops.jpg	1	1	1	lamb_chops	1	C	1	0	70	0		0	0	80.1407646000152	80.2407509000041
21212.5	0.099985699984245	5	hunger	stimuli/foods\papaya.jpg	1	1	1	papaya	1	J	6	0	235	0		0	0	80.2907675000024	80.3907531999866
21250	0.099975099961739	6	hunger	stimuli/non_foods\non-food_animate_baby_sitting.jpg	1	1	1	non-food_animate_baby_sitting	0	S	13	0	93	0		0	0	80.4407568000024	80.5407318999642
21287.5	0.100009899993893	7	hunger	stimuli/foods\banana.jpg	1	1	1	banana	1	F	3	0	9	0		0	0	80.5907356999815	80.6907455999753
21325	0.0999564999947324	8	hunger	stimuli/foods\pork_and_rice.jpg	1	1	1	pork_and_rice	1	L	8	0	245	0		0	0	80.7407639999874	80.8407204999821
21362.5	0.100001100043301	9	hunger	stimuli/foods\chocolate_chip_cookies.jpg	1	1	1	chocolate_chip_cookies	1	D	2	0	27	0		0	0	80.890734799963	80.9907359000063
21400	0.100006599968765	10	hunger	stimuli/non_foods\non-food_animate_slug.jpg	1	1	1	non-food_animate_slug	0	L	8	0	148	0		0	0	81.0407381000114	81.1407446999801
21437.5	0.0999789999914356	11	hunger	stimuli/foods\red_cabbage.jpg	1	1	1	red_cabbage	1	X	17	0	256	0		0	0	81.1907501000096	81.290729100001
21475	0.0999957000021823	12	hunger	stimuli/foods\potato_and_green_bean_salad.jpg	1	1	1	potato_and_green_bean_salad	1	S	13	0	246	0		0	0	81.3407439999864	81.4407396999886
21512.5	0.0997951999888755	13	hunger	stimuli/foods\cannoli.jpg	1	1	1	cannoli	1	H	5	0	17	0		0	0	81.4909258999978	81.5907210999867
21550	0.0999749000184238	14	hunger	stimuli/non_foods\non-food_animate_deer.jpg	1	1	1	non-food_animate_deer	0	G	4	0	105	0		0	0	81.640757999965	81.7407328999834
21587.5	0.0999813000089489	15	hunger	stimuli/foods\pasta_carbonara.jpg	1	1	1	pasta_carbonara	1	V	15	0	236	0		0	0	81.7907481999719	81.8907294999808
21625	0.0999823999591172	16	hunger	stimuli/foods\tomato.jpg	1	1	1	tomato	1	J	6	0	276	0		0	0	81.9407500000088	82.040732399968
21662.5	0.100001899991184	17	hunger	stimuli/non_foods\non-food_animate_giraffe.jpg	1	1	1	non-food_animate_giraffe	0	M	9	0	115	0		0	0	82.0907230000012	82.1907248999923
21700	0.0999795999960043	18	hunger	stimuli/foods\clams.jpg	1	1	1	clams	1	B	0	0	32	0		0	0	82.2407614999684	82.3407410999644
21737.5	0.0999741000123322	19	hunger	stimuli/non_foods\non-food_inanimate_nailpolish.jpg	1	1	1	non-food_inanimate_nailpolish	0	P	11	0	195	0		0	0	82.3907601999817	82.4907342999941
21775	0.0999879000009969	20	hunger	stimuli/non_foods\non-food_animate_raccoon.jpg	1	1	1	non-food_animate_raccoon	0	L	8	0	139	0		0	0	82.5407380000106	82.6407259000116
21812.5	0.0999838000279851	21	hunger	stimuli/foods\cherry.jpg	1	1	1	cherry	1	C	1	0	23	0		0	0	82.6907391999848	82.7907230000128
21850	0.0999868999933824	22	hunger	stimuli/foods\cracker.jpg	1	1	1	cracker	1	P	11	0	38	0		0	0	82.8407324000145	82.9407193000079
21887.5	0.0999844999751076	23	hunger	stimuli/foods\taco.jpg	1	1	1	taco	1	W	16	0	274	0		0	0	82.9907348999986	83.0907193999738
21925	0.0999881000025198	24	hunger	stimuli/non_foods\non-food_animate_mouse.jpg	1	1	1	non-food_animate_mouse	0	L	8	0	131	0		0	0	83.1407288999762	83.2407169999788
21962.5	0.100006799970288	25	hunger	stimuli/non_foods\non-food_inanimate_couch.jpg	1	1	1	non-food_inanimate_couch	0	Z	18	0	176	0		0	0	83.2907223000075	83.3907290999778
22000	0.0999843000317924	26	hunger	stimuli/foods\fennel.jpg	1	1	1	fennel	1	L	8	0	47	0		0	0	83.4407294999692	83.540713800001
22037.5	0.0999861000454985	27	hunger	stimuli/foods\nectarine.jpg	1	1	1	nectarine	1	R	12	0	87	0		0	0	83.5907250999589	83.6907112000044
22075	0.0999867999926209	28	hunger	stimuli/foods\grapes.jpg	1	1	1	grapes	1	H	5	0	60	0		0	0	83.7407250999822	83.8407118999748
22112.5	0.0999885000055656	29	hunger	stimuli/foods\eggplant.jpg	1	1	1	eggplant	1	C	1	0	46	0		0	0	83.8907190999598	83.9907075999654
22150	0.099960400024429	30	hunger	stimuli/non_foods\non-food_animate_cow.jpg	1	1	1	non-food_animate_cow	0	B	0	0	103	0		0	0	84.0407477999688	84.1407081999932
22187.5	0.0999932999839075	31	hunger	stimuli/foods\apricot.jpg	1	1	1	apricot	1	Z	18	0	2	0		0	0	84.1907112000044	84.2907044999884
22225	0.0999713999917731	32	hunger	stimuli/foods\capsicum.jpg	1	1	1	capsicum	1	M	9	0	18	0		0	0	84.3407157000038	84.4406870999956
22262.5	0.0999789999914356	33	hunger	stimuli/non_foods\non-food_inanimate_rack.jpg	1	1	1	non-food_inanimate_rack	0	J	6	0	202	0		0	0	84.4907182999887	84.5906972999801
22300	0.099985699984245	34	hunger	stimuli/foods\baked_lamb_with_potatoes.jpg	1	1	1	baked_lamb_with_potatoes	1	N	10	0	8	0		0	0	84.6407069999841	84.7406926999683
22337.5	0.099985699984245	35	hunger	stimuli/foods\peas.jpg	1	1	1	peas	1	K	7	0	240	0		0	0	84.790705499996	84.8906911999802
22375	0.0999948999960907	36	hunger	stimuli/foods\fried_calamari.jpg	1	1	1	fried_calamari	1	P	11	0	50	0		0	0	84.9407044000109	85.040699300007
22412.5	0.0999854999827221	37	hunger	stimuli/foods\rockmelon.jpg	1	1	1	rockmelon	1	D	2	0	262	0		0	0	85.0907046999782	85.190690199961
22450	0.0999841999728233	38	hunger	stimuli/foods\hazelnuts.jpg	1	1	1	hazelnuts	1	K	7	0	65	0		0	0	85.2407038999954	85.3406880999682
22487.5	0.0999849999789149	39	hunger	stimuli/non_foods\non-food_animate_cheetah.jpg	1	1	1	non-food_animate_cheetah	0	N	10	0	100	0		0	0	85.3906991999829	85.4906841999618
22525	0.0999787999899127	40	hunger	stimuli/foods\chestnut.jpg	1	1	1	chestnut	1	G	4	0	24	0		0	0	85.5406981999986	85.6406769999885
22562.5	0.100016899988987	41	hunger	stimuli/foods\fries.jpg	1	1	1	fries	1	B	0	0	52	0		0	0	85.6906958000036	85.7907126999926
22600	0.0999779000412673	42	hunger	stimuli/non_foods\non-food_inanimate_buds.jpg	1	1	1	non-food_inanimate_buds	0	X	17	0	166	0		0	0	85.8407020999584	85.9406799999997
22637.5	0.0999947999953292	43	hunger	stimuli/non_foods\non-food_inanimate_toilet.jpg	1	1	1	non-food_inanimate_toilet	0	D	2	0	220	0		0	0	85.9906926999683	86.0906874999637
22675	0.0999957999447361	44	hunger	stimuli/non_foods\non-food_animate_young_boy.jpg	1	1	1	non-food_animate_young_boy	0	S	13	0	156	0		0	0	86.1406882000156	86.2406839999603
22712.5	0.0999868000508286	45	hunger	stimuli/non_foods\non-food_animate_baby_crawling.jpg	1	1	1	non-food_animate_baby_crawling	0	H	5	0	92	0		0	0	86.2906936999643	86.3906805000152
22750	0.0999870999949053	46	hunger	stimuli/non_foods\non-food_inanimate_highlighter.jpg	1	1	1	non-food_inanimate_highlighter	0	K	7	0	189	0		0	0	86.4406916999724	86.5406787999673
22787.5	0.0999844999751076	47	hunger	stimuli/non_foods\non-food_inanimate_skirt.jpg	1	1	1	non-food_inanimate_skirt	0	L	8	0	209	0		0	0	86.5906931000063	86.6906775999814
22825	0.0999848000355996	48	hunger	stimuli/foods\savory_pie.jpg	1	1	1	savory_pie	1	G	4	0	265	0		0	0	86.7406846999656	86.8406695000012
22862.5	0.0999829000211321	49	hunger	stimuli/foods\roasted_chicken.jpg	1	1	1	roasted_chicken	1	R	12	0	261	0		0	0	86.890689199965	86.9906720999861
22900	0.0999899000162259	50	hunger	stimuli/foods\cream_donuts.jpg	1	1	1	cream_donuts	1	V	15	0	39	0		0	0	87.040682699997	87.1406726000132
22937.5	0.0999828999629244	51	hunger	stimuli/foods\mussels.jpg	1	1	1	mussels	1	N	10	0	86	0		0	0	87.1906879000016	87.2906707999646
22975	0.0999869999941438	52	hunger	stimuli/non_foods\non-food_inanimate_broom.jpg	1	1	1	non-food_inanimate_broom	0	D	2	0	164	0		0	0	87.340681599977	87.4406685999711
23012.5	0.099987699999474	53	hunger	stimuli/foods\spring_onions.jpg	1	1	1	spring_onions	1	B	0	0	269	0		0	0	87.4906818000018	87.5906695000012
23050	0.0999652000027709	54	hunger	stimuli/foods\cinnamon.jpg	1	1	1	cinnamon	1	V	15	0	30	0		0	0	87.6407008999959	87.7406660999986
23087.5	0.0999854999827221	55	hunger	stimuli/non_foods\non-food_inanimate_ring.jpg	1	1	1	non-food_inanimate_ring	0	D	2	0	203	0		0	0	87.7906771000125	87.8906625999953
23125	0.0999857000424527	56	hunger	stimuli/non_foods\non-food_animate_kangaroo.jpg	1	1	1	non-food_animate_kangaroo	0	S	13	0	122	0		0	0	87.9406745999586	88.040660300001
23162.5	0.0999871999956667	57	hunger	stimuli/non_foods\non-food_inanimate_tulip.jpg	1	1	1	non-food_inanimate_tulip	0	C	1	0	224	0		0	0	88.0906723999651	88.1906595999608
23200	0.0999849999789149	58	hunger	stimuli/non_foods\non-food_animate_runner.jpg	1	1	1	non-food_animate_runner	0	N	10	0	142	0		0	0	88.2406745000044	88.3406594999833
23237.5	0.0999861999880522	59	hunger	stimuli/non_foods\non-food_inanimate_alarm_clock.jpg	1	1	1	non-food_inanimate_alarm_clock	0	F	3	0	158	0		0	0	88.3906707999995	88.4906569999876
23275	0.0999843999743462	60	hunger	stimuli/foods\brussel_sprouts.jpg	1	1	1	brussel_sprouts	1	T	14	0	15	0		0	0	88.5406680000015	88.6406523999758
23312.5	0.0999693999765441	61	hunger	stimuli/non_foods\non-food_inanimate_leaf.jpg	1	1	1	non-food_inanimate_leaf	0	B	0	0	192	0		0	0	88.6906853999826	88.7906547999592
23350	0.0999856000416912	62	hunger	stimuli/foods\fruit_salad.jpg	1	1	1	fruit_salad	1	V	15	0	55	0		0	0	88.8406643999624	88.9406500000041
23387.5	0.0999883000040427	63	hunger	stimuli/non_foods\non-food_inanimate_soccer_ball.jpg	1	1	1	non-food_inanimate_soccer_ball	0	Z	18	0	210	0		0	0	88.9906634999788	89.0906517999829
23425	0.0999873999971896	64	hunger	stimuli/non_foods\non-food_animate_swan.jpg	1	1	1	non-food_animate_swan	0	E	20	1	152	0		0	0	89.140660199977	89.2406475999742
23462.5	0.100001999991946	65	hunger	stimuli/non_foods\non-food_animate_alligator.jpg	1	1	1	non-food_animate_alligator	0	M	9	0	90	0		0	0	89.2906605000026	89.3906624999945
23500	0.0999397000414319	66	hunger	stimuli/foods\cinnamon_sroll.jpg	1	1	1	cinnamon_sroll	1	V	15	0	31	0		0	0	89.4406985999667	89.5406383000081
23537.5	0.0999829000211321	67	hunger	stimuli/non_foods\non-food_animate_duck.jpg	1	1	1	non-food_animate_duck	0	Z	18	0	109	0		0	0	89.590656699962	89.6906395999831
23575	0.0999858999857679	68	hunger	stimuli/non_foods\non-food_animate_bee.jpg	1	1	1	non-food_animate_bee	0	K	7	0	95	0		0	0	89.7406574999914	89.8406433999771
23612.5	0.0999646999989636	69	hunger	stimuli/non_foods\non-food_animate_skunk.jpg	1	1	1	non-food_animate_skunk	0	M	9	0	147	0		0	0	89.8906548999948	89.9906195999938
23650	0.0999845999758691	70	hunger	stimuli/foods\cauliflower.jpg	1	1	1	cauliflower	1	F	3	0	20	0		0	0	90.0406460000086	90.1406305999844
23687.5	0.0999904000200331	71	hunger	stimuli/foods\chocolate_pudding.jpg	1	1	1	chocolate_pudding	1	G	4	0	29	0		0	0	90.1906409999938	90.2906314000138
23725	0.0999918000306934	72	hunger	stimuli/non_foods\non-food_inanimate_pine_cone.jpg	1	1	1	non-food_inanimate_pine_cone	0	Z	18	0	200	0		0	0	90.3406440999825	90.4406359000131
23762.5	0.0999867999926209	73	hunger	stimuli/non_foods\non-food_inanimate_sun_flower.jpg	1	1	1	non-food_inanimate_sun_flower	0	K	7	0	216	0		0	0	90.4906405999791	90.5906273999717
23800	0.0999821000150405	74	hunger	stimuli/non_foods\non-food_animate_lizard.jpg	1	1	1	non-food_animate_lizard	0	N	10	0	126	0		0	0	90.6406361999689	90.7406182999839
23837.5	0.100009799993131	75	hunger	stimuli/non_foods\non-food_inanimate_bed.jpg	1	1	1	non-food_inanimate_bed	0	H	5	0	160	0		0	0	90.7906196999829	90.8906294999761
23875	0.0999857999850065	76	hunger	stimuli/non_foods\non-food_animate_Asian_man.jpg	1	1	1	non-food_animate_Asian_man	0	D	2	0	88	0		0	0	90.940640899993	91.040626699978
23912.5	0.0999707999872044	77	hunger	stimuli/non_foods\non-food_animate_sea_lion.jpg	1	1	1	non-food_animate_sea_lion	0	M	9	0	143	0		0	0	91.0906538999989	91.1906246999861
23950	0.0999664000119083	78	hunger	stimuli/non_foods\non-food_inanimate_stapler.jpg	1	1	1	non-food_inanimate_stapler	0	J	6	0	213	0		0	0	91.2406511000008	91.3406175000127
23987.5	0.0999861000454985	79	hunger	stimuli/non_foods\non-food_animate_eagle.jpg	1	1	1	non-food_animate_eagle	0	X	17	0	110	0		0	0	91.3906281999662	91.4906143000117
24025	0.0999787999899127	80	hunger	stimuli/foods\prawn.jpg	1	1	1	prawn	1	S	13	0	249	0		0	0	91.5406284999917	91.6406072999816
24062.5	0.0999846999766305	81	hunger	stimuli/non_foods\non-food_animate_lion.jpg	1	1	1	non-food_animate_lion	0	T	14	0	125	0		0	0	91.6906250999891	91.7906097999658
24100	0.099985699984245	82	hunger	stimuli/foods\brie.jpg	1	1	1	brie	1	S	13	0	12	0		0	0	91.8406245000078	91.9406101999921
24137.5	0.0999863000470214	83	hunger	stimuli/non_foods\non-food_animate_caterpillar.jpg	1	1	1	non-food_animate_caterpillar	0	G	4	0	99	0		0	0	91.9906228999607	92.0906092000077
24175	0.0999958000029437	84	hunger	stimuli/non_foods\non-food_inanimate_rope.jpg	1	1	1	non-food_inanimate_rope	0	F	3	0	204	0		0	0	92.1406215999741	92.2406173999771
24212.5	0.0999953999998979	85	hunger	stimuli/foods\pumpkin.jpg	1	1	1	pumpkin	1	D	2	0	250	0		0	0	92.2906134999939	92.3906088999938
24250	0.0999890000093728	86	hunger	stimuli/non_foods\non-food_animate_horse.jpg	1	1	1	non-food_animate_horse	0	L	8	0	119	0		0	0	92.4406247999868	92.5406137999962
24287.5	0.0999833999667317	87	hunger	stimuli/foods\raw_sausage.jpg	1	1	1	raw_sausage	1	G	4	0	254	0		0	0	92.5906243000063	92.690607699973
24325	0.0999894999549724	88	hunger	stimuli/non_foods\non-food_animate_hummingbird.jpg	1	1	1	non-food_animate_hummingbird	0	X	17	0	120	0		0	0	92.7406224000151	92.8406118999701
24362.5	0.100020199955907	89	hunger	stimuli/non_foods\non-food_animate_frog.jpg	1	1	1	non-food_animate_frog	0	G	4	0	113	0		0	0	92.8906110000098	92.9906311999657
24400	0.099985699984245	90	hunger	stimuli/foods\green_olives.jpg	1	1	1	green_olives	1	L	8	0	62	0		0	0	93.0406161000137	93.140601799998
24437.5	0.0999716999940574	91	hunger	stimuli/non_foods\non-food_inanimate_chair.jpg	1	1	1	non-food_inanimate_chair	0	B	0	0	172	0		0	0	93.1906145999674	93.2905862999614
24475	0.0999683999689296	92	hunger	stimuli/foods\lemon.jpg	1	1	1	lemon	1	Z	18	0	72	0		0	0	93.3406071999925	93.4405755999614
24512.5	0.0999837999697775	93	hunger	stimuli/non_foods\non-food_inanimate_teddy_bear.jpg	1	1	1	non-food_inanimate_teddy_bear	0	V	15	0	218	0		0	0	93.4906049999991	93.5905887999688
24550	0.0999905000207946	94	hunger	stimuli/non_foods\non-food_inanimate_briefcase.jpg	1	1	1	non-food_inanimate_briefcase	0	L	8	0	163	0		0	0	93.640600099985	93.7405906000058
24587.5	0.100004400010221	95	hunger	stimuli/non_foods\non-food_animate_killer_whale.jpg	1	1	1	non-food_animate_killer_whale	0	C	1	0	123	0		0	0	93.7905935999588	93.890597999969
24625	0.0999864999903366	96	hunger	stimuli/non_foods\non-food_inanimate_toy_airplane.jpg	1	1	1	non-food_inanimate_toy_airplane	0	N	10	0	222	0		0	0	93.940601499984	94.0405879999744
24662.5	0.0999852999811992	97	hunger	stimuli/foods\pepperoni_pizza.jpg	1	1	1	pepperoni_pizza	1	Z	18	0	241	0		0	0	94.0905996999936	94.1905849999748
24700	0.0999870999949053	98	hunger	stimuli/non_foods\non-food_inanimate_horn.jpg	1	1	1	non-food_inanimate_horn	0	K	7	0	190	0		0	0	94.2405969999963	94.3405840999912
24737.5	0.0999894999549724	99	hunger	stimuli/foods\cupcake.jpg	1	1	1	cupcake	1	S	13	0	42	0		0	0	94.3905955000082	94.4905849999632
24775	0.0999859999865294	100	hunger	stimuli/non_foods\non-food_animate_bat.jpg	1	1	1	non-food_animate_bat	0	X	17	0	94	0		0	0	94.5406040999806	94.6405900999671
24812.5	0.100010699999984	101	hunger	stimuli/non_foods\non-food_animate_monkey.jpg	1	1	1	non-food_animate_monkey	0	P	11	0	130	0		0	0	94.69058699999	94.79059769999
24850	0.0999647999997251	102	hunger	stimuli/non_foods\non-food_inanimate_drum_set.jpg	1	1	1	non-food_inanimate_drum_set	0	N	10	0	179	0		0	0	94.840619799972	94.9405845999718
24887.5	0.0999853999819607	103	hunger	stimuli/foods\pineapple.jpg	1	1	1	pineapple	1	Z	18	0	243	0		0	0	94.9905952999834	95.0905806999654
24925	0.099985699984245	104	hunger	stimuli/non_foods\non-food_animate_woman.jpg	1	1	1	non-food_animate_woman	0	S	13	0	154	0		0	0	95.1405930999899	95.2405787999742
24962.5	0.0999855999834836	105	hunger	stimuli/foods\rice_cake.jpg	1	1	1	rice_cake	1	R	12	0	258	0		0	0	95.2905921000056	95.3905776999891
25000	0.0999843999743462	106	hunger	stimuli/foods\red_beans.jpg	1	1	1	red_beans	1	N	10	0	255	0		0	0	95.4405890000053	95.5405733999796
25037.5	0.0999861999880522	107	hunger	stimuli/foods\risotto_with_peas_and_asparagus_tips.jpg	1	1	1	risotto_with_peas_and_asparagus_tips	1	L	8	0	259	0		0	0	95.590586700011	95.6905728999991
25075	0.099984799977392	108	hunger	stimuli/non_foods\non-food_inanimate_hay.jpg	1	1	1	non-food_inanimate_hay	0	F	3	0	187	0		0	0	95.7405872999807	95.8405720999581
25112.5	0.0999841999728233	109	hunger	stimuli/foods\hotdog.jpg	1	1	1	hotdog	1	D	2	0	67	0		0	0	95.8905857999926	95.9905699999654
25150	0.0999816000112332	110	hunger	stimuli/foods\swordfish.jpg	1	1	1	swordfish	1	U	23	1	273	0		0	0	96.0405821999884	96.1405637999997
25187.5	0.0999916999717243	111	hunger	stimuli/foods\onion.jpg	1	1	1	onion	1	K	7	0	229	0		0	0	96.1905811000033	96.2905727999751
25225	0.10002249997342	112	hunger	stimuli/non_foods\non-food_inanimate_headphones.jpg	1	1	1	non-food_inanimate_headphones	0	D	2	0	188	0		0	0	96.3405710000079	96.4405934999813
25262.5	0.0999384999740869	113	hunger	stimuli/non_foods\non-food_inanimate_chandelier.jpg	1	1	1	non-food_inanimate_chandelier	0	J	6	0	173	0		0	0	96.4906142000109	96.590552699985
25300	0.0999708999879658	114	hunger	stimuli/foods\fried_zucchini.jpg	1	1	1	fried_zucchini	1	H	5	0	51	0		0	0	96.6405886000139	96.7405595000018
25337.5	0.0999878000002354	115	hunger	stimuli/non_foods\non-food_animate_porcupine.jpg	1	1	1	non-food_animate_porcupine	0	B	0	0	138	0		0	0	96.7905738999834	96.8905616999837
25375	0.0999835999682546	116	hunger	stimuli/non_foods\non-food_inanimate_cupboard.jpg	1	1	1	non-food_inanimate_cupboard	0	X	17	0	177	0		0	0	96.9405728999991	97.0405564999674
25412.5	0.099987699999474	117	hunger	stimuli/foods\lentils.jpg	1	1	1	lentils	1	W	16	0	74	0		0	0	97.090569699998	97.1905573999975
25450	0.099987699999474	118	hunger	stimuli/non_foods\non-food_inanimate_folding_chair.jpg	1	1	1	non-food_inanimate_folding_chair	0	Z	18	0	182	0		0	0	97.2405690999585	97.340556799958
25487.5	0.0999858000432141	119	hunger	stimuli/foods\apple.jpg	1	1	1	apple	1	B	0	0	1	0		0	0	97.3905666999635	97.4905525000067
25525	0.100002499995753	120	hunger	stimuli/non_foods\non-food_animate_clown.jpg	1	1	1	non-food_animate_clown	0	H	5	0	102	0		0	0	97.5405627000146	97.6405652000103
25562.5	0.0999861999880522	121	hunger	stimuli/non_foods\non-food_animate_gorilla.jpg	1	1	1	non-food_animate_gorilla	0	L	8	0	116	0		0	0	97.6905615999713	97.7905477999593
25600	0.099987699999474	122	hunger	stimuli/non_foods\non-food_inanimate_wrench.jpg	1	1	1	non-food_inanimate_wrench	0	X	17	0	227	0		0	0	97.8405596999801	97.9405473999796
25637.5	0.0999869999941438	123	hunger	stimuli/non_foods\non-food_inanimate_canoe.jpg	1	1	1	non-food_inanimate_canoe	0	J	6	0	170	0		0	0	97.9905597000034	98.0905466999975
25675	0.0999840999720618	124	hunger	stimuli/foods\dates.jpg	1	1	1	dates	1	G	4	0	43	0		0	0	98.1405568000046	98.2405408999766
25712.5	0.0999635999905877	125	hunger	stimuli/non_foods\non-food_animate_cat.jpg	1	1	1	non-food_animate_cat	0	S	13	0	98	0		0	0	98.2905768000055	98.3905403999961
25750	0.099987699999474	126	hunger	stimuli/non_foods\non-food_inanimate_fire_extinguisher.jpg	1	1	1	non-food_inanimate_fire_extinguisher	0	R	12	0	181	0		0	0	98.44055509998	98.5405427999794
25787.5	0.0999848999781534	127	hunger	stimuli/non_foods\non-food_inanimate_table.jpg	1	1	1	non-food_inanimate_table	0	I	21	1	217	0		0	0	98.5905536999926	98.6905385999708
25825	0.0999902000185102	128	hunger	stimuli/foods\waffle.jpg	1	1	1	waffle	1	X	17	0	278	0		0	0	98.7405487999786	98.8405389999971
25862.5	0.0999567999970168	129	hunger	stimuli/non_foods\non-food_animate_pigeon.jpg	1	1	1	non-food_animate_pigeon	0	P	11	0	136	0		0	0	98.8905510999612	98.9905078999582
25900	0.099965900008101	130	hunger	stimuli/non_foods\non-food_animate_seahorse.jpg	1	1	1	non-food_animate_seahorse	0	Z	18	0	145	0		0	0	99.0405417999718	99.1405076999799
25937.5	0.100009099987801	131	hunger	stimuli/foods\gnocchi.jpg	1	1	1	gnocchi	1	C	1	0	58	0		0	0	99.1905349000008	99.2905439999886
25975	0.0999965000082739	132	hunger	stimuli/non_foods\non-food_inanimate_clover.jpg	1	1	1	non-food_inanimate_clover	0	N	10	0	174	0		0	0	99.3405266999616	99.4405231999699
26012.5	0.0999845999758691	133	hunger	stimuli/foods\rice.jpg	1	1	1	rice	1	Z	18	0	257	1	a	0.893225400010124	1	99.4905372000067	99.5905217999825
26050	0.099986599991098	134	hunger	stimuli/non_foods\non-food_inanimate_watering_can.jpg	1	1	1	non-food_inanimate_watering_can	0	D	2	0	225	0		0	0	99.640545399976	99.7405319999671
26087.5	0.0999869999941438	135	hunger	stimuli/foods\coffee_beans.jpg	1	1	1	coffee_beans	1	Z	18	0	34	0		0	0	99.790540899965	99.8905278999591
26125	0.0999974000151269	136	hunger	stimuli/non_foods\non-food_animate_camel.jpg	1	1	1	non-food_animate_camel	0	X	17	0	97	0		0	0	99.9405393999768	100.040536799992
26162.5	0.0999525000224821	137	hunger	stimuli/foods\omelette.jpg	1	1	1	omelette	1	S	13	0	228	0		0	0	100.090559399978	100.1905119
26200	0.0999862999888137	138	hunger	stimuli/non_foods\non-food_inanimate_bowling_ball.jpg	1	1	1	non-food_inanimate_bowling_ball	0	F	3	0	162	0		0	0	100.240527699993	100.340513999981
26237.5	0.0999745999579318	139	hunger	stimuli/non_foods\non-food_inanimate_gloves.jpg	1	1	1	non-food_inanimate_gloves	0	N	10	0	183	0		0	0	100.390534900012	100.49050949997
26941.5	0.0999867999926209	140	hunger	stimuli/non_foods\non-food_animate_dachshund.jpg	1	2	1	non-food_animate_dachshund	0	M	9	0	104	0		0	0	103.207177900011	103.307164700003
26979	0.0999624999822117	141	hunger	stimuli/non_foods\non-food_animate_rhino.jpg	1	2	1	non-food_animate_rhino	0	V	15	0	141	0		0	0	103.357188299997	103.457150799979
27016.5	0.0999853000394069	142	hunger	stimuli/foods\coconut.jpg	1	2	1	coconut	1	C	1	0	33	0		0	0	103.507165799965	103.607151100005
27054	0.0999830000218935	143	hunger	stimuli/foods\strawberry.jpg	1	2	1	strawberry	1	N	10	0	272	0		0	0	103.657164599979	103.757147600001
27091.5	0.099983100022655	144	hunger	stimuli/non_foods\non-food_inanimate_bamboo.jpg	1	2	1	non-food_inanimate_bamboo	0	K	7	0	159	0		0	0	103.807161299977	103.9071444
27129	0.0999855999834836	145	hunger	stimuli/non_foods\non-food_inanimate_padlock.jpg	1	2	1	non-food_inanimate_padlock	0	Z	18	0	199	0		0	0	103.957159799989	104.057145399973
27166.5	0.0999830000218935	146	hunger	stimuli/non_foods\non-food_inanimate_scissors.jpg	1	2	1	non-food_inanimate_scissors	0	R	12	0	205	0		0	0	104.107156399987	104.207139400009
27204	0.099985100037884	147	hunger	stimuli/foods\fruit_flan.jpg	1	2	1	fruit_flan	1	D	2	0	53	0		0	0	104.257157899963	104.357143000001
27241.5	0.0999884000048041	148	hunger	stimuli/non_foods\non-food_animate_tortoise.jpg	1	2	1	non-food_animate_tortoise	0	W	16	0	153	0		0	0	104.407154199958	104.507142599963
27279	0.0999914000276476	149	hunger	stimuli/non_foods\non-food_animate_yellow_bug.jpg	1	2	1	non-food_animate_yellow_bug	0	F	3	0	155	0		0	0	104.557153899979	104.657145300007
27316.5	0.0999560999916866	150	hunger	stimuli/foods\cooked_prawn.jpg	1	2	1	cooked_prawn	1	L	8	0	36	0		0	0	104.707183999999	104.807140099991
27354	0.0999795999960043	151	hunger	stimuli/non_foods\non-food_inanimate_towel.jpg	1	2	1	non-food_inanimate_towel	0	W	16	0	221	0		0	0	104.857150900003	104.957130499999
27391.5	0.100013499963097	152	hunger	stimuli/foods\lettuce.jpg	1	2	1	lettuce	1	D	2	0	75	0		0	0	105.007146799995	105.107160299958
27429	0.0999355000094511	153	hunger	stimuli/non_foods\non-food_inanimate_tree.jpg	1	2	1	non-food_inanimate_tree	0	B	0	0	223	0		0	0	105.157192899962	105.257128399971
27466.5	0.0999867999926209	154	hunger	stimuli/non_foods\non-food_inanimate_socks.jpg	1	2	1	non-food_inanimate_socks	0	S	13	0	211	0		0	0	105.307142900012	105.407129700005
27504	0.0999821000150405	155	hunger	stimuli/non_foods\non-food_animate_snail.jpg	1	2	1	non-food_animate_snail	0	V	15	0	149	0		0	0	105.457143399981	105.557125499996
27541.5	0.0999856000416912	156	hunger	stimuli/non_foods\non-food_inanimate_skateboard.jpg	1	2	1	non-food_inanimate_skateboard	0	D	2	0	208	0		0	0	105.607138799969	105.707124400011
27579	0.0999872999964282	157	hunger	stimuli/non_foods\non-food_animate_ladybug.jpg	1	2	1	non-food_animate_ladybug	0	X	17	0	124	0		0	0	105.75713719998	105.857124499977
27616.5	0.0999833999667317	158	hunger	stimuli/non_foods\non-food_inanimate_orchid.jpg	1	2	1	non-food_inanimate_orchid	0	B	0	0	198	0		0	0	105.907137200003	106.00712059997
27654	0.0999637999921106	159	hunger	stimuli/foods\linguine_with_clams.jpg	1	2	1	linguine_with_clams	1	K	7	0	77	0		0	0	106.057134200004	106.157097999996
27691.5	0.0999720999971032	160	hunger	stimuli/foods\minestrone_soup.jpg	1	2	1	minestrone_soup	1	X	17	0	82	0		0	0	106.207136299985	106.307108399982
27729	0.0999780000420287	161	hunger	stimuli/non_foods\non-food_inanimate_cactus_pot_plant.jpg	1	2	1	non-food_inanimate_cactus_pot_plant	0	C	1	0	169	0		0	0	106.357130399963	106.457108400005
27766.5	0.099972500000149	162	hunger	stimuli/foods\cucumber.jpg	1	2	1	cucumber	1	L	8	0	41	0		0	0	106.507136499975	106.607108999975
27804	0.0999796999967657	163	hunger	stimuli/foods\toasted_bread_with_tomatoes.jpg	1	2	1	toasted_bread_with_tomatoes	1	U	23	1	275	0		0	0	106.657125399972	106.757105099969
27841.5	0.0999901000177488	164	hunger	stimuli/foods\pea_pod.jpg	1	2	1	pea_pod	1	P	11	0	237	0		0	0	106.807129099965	106.907119199983
27879	0.0999496000004001	165	hunger	stimuli/foods\stew_with_potatoes_and_carrots.jpg	1	2	1	stew_with_potatoes_and_carrots	1	X	17	0	271	0		0	0	106.957140499959	107.057090099959
27916.5	0.0999858999857679	166	hunger	stimuli/non_foods\non-food_animate_polar_bear.jpg	1	2	1	non-food_animate_polar_bear	0	K	7	0	137	0		0	0	107.107121700014	107.207107599999
27954	0.0999860999872908	167	hunger	stimuli/foods\mortadella.jpg	1	2	1	mortadella	1	R	12	0	83	1	a	0.706936900038272	1	107.257121799979	107.357107899967
27991.5	0.0999823000165634	168	hunger	stimuli/foods\brownie.jpg	1	2	1	brownie	1	K	7	0	14	0		0	0	107.407120499993	107.507102800009
28029	0.0999819000135176	169	hunger	stimuli/foods\ginger_root.jpg	1	2	1	ginger_root	1	J	6	0	57	0		0	0	107.557117899996	107.65709980001
28066.5	0.0999869999941438	170	hunger	stimuli/foods\ice_cream.jpg	1	2	1	ice_cream	1	N	10	0	68	0		0	0	107.707116000005	107.807102999999
28104	0.0999867999926209	171	hunger	stimuli/non_foods\non-food_inanimate_speakers.jpg	1	2	1	non-food_inanimate_speakers	0	G	4	0	212	0		0	0	107.857112800004	107.957099599997
28141.5	0.0999731000047177	172	hunger	stimuli/non_foods\non-food_inanimate_nest.jpg	1	2	1	non-food_inanimate_nest	0	P	11	0	196	0		0	0	108.007126799959	108.107099899964
28179	0.0999590000137687	173	hunger	stimuli/foods\mango.jpg	1	2	1	mango	1	L	8	0	80	0		0	0	108.157112299989	108.257071300002
28216.5	0.0999858999857679	174	hunger	stimuli/foods\pomegranate.jpg	1	2	1	pomegranate	1	V	15	0	244	0		0	0	108.307100299979	108.407086199964
28254	0.0999842999735847	175	hunger	stimuli/foods\chocolate_pralines.jpg	1	2	1	chocolate_pralines	1	D	2	0	28	0		0	0	108.457101900014	108.557086199988
28291.5	0.0999793999944814	176	hunger	stimuli/non_foods\non-food_inanimate_lighter.jpg	1	2	1	non-food_inanimate_lighter	0	R	12	0	193	0		0	0	108.607115799969	108.707095199963
28329	0.0999692000332288	177	hunger	stimuli/foods\frankfurter_and_provolone_salad.jpg	1	2	1	frankfurter_and_provolone_salad	1	D	2	0	49	0		0	0	108.757121199975	108.857090400008
28366.5	0.100001200044062	178	hunger	stimuli/foods\baked_cod_with_carrots_and_green_beans.jpg	1	2	1	baked_cod_with_carrots_and_green_beans	1	M	9	0	7	0		0	0	108.907086799969	109.007088000013
28404	0.0999855999834836	179	hunger	stimuli/foods\potato_chips.jpg	1	2	1	potato_chips	1	T	14	0	247	0		0	0	109.057099899976	109.157085499959
28441.5	0.0999900000169873	180	hunger	stimuli/non_foods\non-food_animate_young_girl.jpg	1	2	1	non-food_animate_young_girl	0	U	23	1	157	0		0	0	109.207094899961	109.307084899978
28479	0.0999643999966793	181	hunger	stimuli/non_foods\non-food_animate_seal.jpg	1	2	1	non-food_animate_seal	0	M	9	0	146	0		0	0	109.357098900015	109.457063300011
28516.5	0.0999895000131801	182	hunger	stimuli/foods\lasagna.jpg	1	2	1	lasagna	1	G	4	0	71	0		0	0	109.507085299992	109.607074800006
28554	0.0999622000381351	183	hunger	stimuli/non_foods\non-food_inanimate_desk.jpg	1	2	1	non-food_inanimate_desk	0	S	13	0	178	1	a	0.443305900029372	1	109.657101499964	109.757063700003
28591.5	0.0999600000213832	184	hunger	stimuli/foods\steak.jpg	1	2	1	steak	1	J	6	0	270	0		0	0	109.807109999994	109.907070000016
28629	0.0999899000162259	185	hunger	stimuli/foods\figs.jpg	1	2	1	figs	1	H	5	0	48	0		0	0	109.957081499975	110.057071399991
28666.5	0.0999871999956667	186	hunger	stimuli/non_foods\non-food_inanimate_nettle.jpg	1	2	1	non-food_inanimate_nettle	0	G	4	0	197	0		0	0	110.107080899994	110.20706809999
28704	0.0999900000169873	187	hunger	stimuli/foods\green_beans.jpg	1	2	1	green_beans	1	B	0	0	61	0		0	0	110.257081299962	110.357071299979
28741.5	0.0999550000415184	188	hunger	stimuli/foods\celery.jpg	1	2	1	celery	1	G	4	0	21	0		0	0	110.407108899963	110.507063900004
28779	0.0999763999716379	189	hunger	stimuli/foods\oregano.jpg	1	2	1	oregano	1	J	6	0	231	0		0	0	110.557086899993	110.657063299965
28816.5	0.099993199983146	190	hunger	stimuli/foods\wafer.jpg	1	2	1	wafer	1	P	11	0	277	0		0	0	110.707077300001	110.807070499985
28854	0.0999772999784909	191	hunger	stimuli/non_foods\non-food_animate_grasshopper.jpg	1	2	1	non-food_animate_grasshopper	0	B	0	0	117	0		0	0	110.857082200004	110.957059499982
28891.5	0.0999872999964282	192	hunger	stimuli/non_foods\non-food_animate_squirrel.jpg	1	2	1	non-food_animate_squirrel	0	P	11	0	150	0		0	0	111.007069999992	111.107057299989
28929	0.0999875999987125	193	hunger	stimuli/foods\orange.jpg	1	2	1	orange	1	B	0	0	230	0		0	0	111.157071399968	111.257058999967
28966.5	0.099985699984245	194	hunger	stimuli/non_foods\non-food_inanimate_button.jpg	1	2	1	non-food_inanimate_button	0	G	4	0	168	0		0	0	111.307066300011	111.407051999995
29004	0.0999808000051416	195	hunger	stimuli/foods\grilled_chicken_breast.jpg	1	2	1	grilled_chicken_breast	1	V	15	0	63	0		0	0	111.457064799964	111.55704559997
29041.5	0.0999894999549724	196	hunger	stimuli/foods\cooked_ham.jpg	1	2	1	cooked_ham	1	I	21	1	35	0		0	0	111.607059900009	111.707049399964
29079	0.0999832999659702	197	hunger	stimuli/foods\meatballs.jpg	1	2	1	meatballs	1	H	5	0	81	0		0	0	111.757064200006	111.857047499972
29116.5	0.0999845999758691	198	hunger	stimuli/foods\chilli.jpg	1	2	1	chilli	1	G	4	0	25	0		0	0	111.907073299983	112.007057899958
29154	0.0999868999933824	199	hunger	stimuli/non_foods\non-food_animate_owl.jpg	1	2	1	non-food_animate_owl	0	B	0	0	132	0		0	0	112.057066400012	112.157053300005
29191.5	0.0999966000090353	200	hunger	stimuli/non_foods\non-food_animate_student_female.jpg	1	2	1	non-food_animate_student_female	0	L	8	0	151	0		0	0	112.207073099969	112.307069699978
29229	0.100006999971811	201	hunger	stimuli/foods\asparagus.jpg	1	2	1	asparagus	1	M	9	0	4	0		0	0	112.357041899988	112.45704889996
29266.5	0.0999845000333153	202	hunger	stimuli/foods\spinach.jpg	1	2	1	spinach	1	P	11	0	268	0		0	0	112.507059899974	112.607044400007
29304	0.0999869999941438	203	hunger	stimuli/foods\broccoli.jpg	1	2	1	broccoli	1	R	12	0	13	0		0	0	112.65705769998	112.757044699974
29341.5	0.099981699953787	204	hunger	stimuli/foods\salmon.jpg	1	2	1	salmon	1	T	14	0	264	0		0	0	112.807058400009	112.907040099963
29379	0.0999854000401683	205	hunger	stimuli/non_foods\non-food_inanimate_jeans.jpg	1	2	1	non-food_inanimate_jeans	0	Z	18	0	191	0		0	0	112.957056899962	113.057042300003
29416.5	0.0999885999481194	206	hunger	stimuli/non_foods\non-food_inanimate_protractor.jpg	1	2	1	non-food_inanimate_protractor	0	M	9	0	201	0		0	0	113.107053000014	113.207041599962
29454	0.0999993000295945	207	hunger	stimuli/non_foods\non-food_animate_donkey.jpg	1	2	1	non-food_animate_donkey	0	T	14	0	107	0		0	0	113.257050899963	113.357050199993
29491.5	0.099986599991098	208	hunger	stimuli/foods\egg.jpg	1	2	1	egg	1	X	17	0	45	0		0	0	113.407060199999	113.50704679999
29529	0.0999824999598786	209	hunger	stimuli/non_foods\non-food_animate_dragonfly.jpg	1	2	1	non-food_animate_dragonfly	0	L	8	0	108	0		0	0	113.557051300013	113.657033799973
29566.5	0.0999875999987125	210	hunger	stimuli/non_foods\non-food_inanimate_bush.jpg	1	2	1	non-food_inanimate_bush	0	D	2	0	167	0		0	0	113.707045799994	113.807033399993
29604	0.0999860999872908	211	hunger	stimuli/foods\beetroots.jpg	1	2	1	beetroots	1	F	3	0	10	0		0	0	113.857047899975	113.957033999963
29641.5	0.0999655000050552	212	hunger	stimuli/foods\pancakes.jpg	1	2	1	pancakes	1	R	12	0	234	0		0	0	114.007062699995	114.1070282
29679	0.0999829999636859	213	hunger	stimuli/non_foods\non-food_animate_llama.jpg	1	2	1	non-food_animate_llama	0	J	6	0	127	0		0	0	114.157045	114.257027999964
29716.5	0.0999822000158019	214	hunger	stimuli/foods\honey.jpg	1	2	1	honey	1	L	8	0	66	0		0	0	114.307041099994	114.407023300009
29754	0.0999875999987125	215	hunger	stimuli/non_foods\non-food_animate_parrot.jpg	1	2	1	non-food_animate_parrot	0	T	14	0	133	0		0	0	114.457038799999	114.557026399998
29791.5	0.099992600036785	216	hunger	stimuli/foods\artichoke.jpg	1	2	1	artichoke	1	C	1	0	3	0		0	0	114.607031299965	114.707023900002
29829	0.0999846000340767	217	hunger	stimuli/non_foods\non-food_inanimate_tent.jpg	1	2	1	non-food_inanimate_tent	0	R	12	0	219	0		0	0	114.757034899958	114.857019499992
29866.5	0.0999913000268862	218	hunger	stimuli/non_foods\non-food_animate_mammoth.jpg	1	2	1	non-food_animate_mammoth	0	K	7	0	128	0		0	0	114.907026599976	115.007017900003
29904	0.100003500003368	219	hunger	stimuli/non_foods\non-food_animate_german_shepherd.jpg	1	2	1	non-food_animate_german_shepherd	0	S	13	0	114	0		0	0	115.057031999982	115.157035499986
29941.5	0.0999857999850065	220	hunger	stimuli/foods\oven-roasted_tomatoes.jpg	1	2	1	oven-roasted_tomatoes	1	B	0	0	232	0		0	0	115.207029699988	115.307015499973
29979	0.0999878000002354	221	hunger	stimuli/non_foods\non-food_animate_dolphin.jpg	1	2	1	non-food_animate_dolphin	0	F	3	0	106	0		0	0	115.35702689999	115.45701469999
30016.5	0.0999842999735847	222	hunger	stimuli/non_foods\non-food_animate_ant.jpg	1	2	1	non-food_animate_ant	0	C	1	0	91	0		0	0	115.507026200008	115.607010499982
30054	0.0999987000250258	223	hunger	stimuli/foods\avocado.jpg	1	2	1	avocado	1	S	13	0	5	0		0	0	115.657024699962	115.757023399987
30091.5	0.0999458999722265	224	hunger	stimuli/foods\chocolate_bar.jpg	1	2	1	chocolate_bar	1	T	14	0	26	0		0	0	115.807065000001	115.907010899973
30129	0.0999875999987125	225	hunger	stimuli/non_foods\non-food_animate_iguana.jpg	1	2	1	non-food_animate_iguana	0	J	6	0	121	0		0	0	115.95701969997	116.057007299969
30166.5	0.0999858999857679	226	hunger	stimuli/non_foods\non-food_animate_butterfly.jpg	1	2	1	non-food_animate_butterfly	0	G	4	0	96	0		0	0	116.107022000011	116.207007899997
30204	0.0999847000348382	227	hunger	stimuli/foods\blackberry.jpg	1	2	1	blackberry	1	D	2	0	11	0		0	0	116.257020199962	116.357004899997
30241.5	0.0999874999979511	228	hunger	stimuli/foods\mandarin.jpg	1	2	1	mandarin	1	W	16	0	79	0		0	0	116.407016000012	116.50700350001
30279	0.0999776999815367	229	hunger	stimuli/foods\grapefruits.jpg	1	2	1	grapefruits	1	N	10	0	59	0		0	0	116.557012000005	116.656989699986
30316.5	0.0999714999925345	230	hunger	stimuli/non_foods\non-food_animate_penguin.jpg	1	2	1	non-food_animate_penguin	0	H	5	0	135	0		0	0	116.707020799979	116.806992299971
30354	0.100041300000157	231	hunger	stimuli/foods\salami.jpg	1	2	1	salami	1	K	7	0	263	0		0	0	116.8570053	116.9570466
30391.5	0.0999938999884762	232	hunger	stimuli/foods\mushroom.jpg	1	2	1	mushroom	1	B	0	0	85	0		0	0	117.007003300008	117.106997199997
30429	0.0999777000397444	233	hunger	stimuli/foods\radish.jpg	1	2	1	radish	1	C	1	0	251	0		0	0	117.15701049997	117.25698820001
30466.5	0.0999889999511652	234	hunger	stimuli/foods\spaghetti_with_meat_sauce.jpg	1	2	1	spaghetti_with_meat_sauce	1	V	15	0	267	0		0	0	117.306997900014	117.406986899965
30504	0.100000100035686	235	hunger	stimuli/foods\raw_ham.jpg	1	2	1	raw_ham	1	N	10	0	253	1	a	0	0	117.456996899971	117.556997000007
30541.5	0.0999621999799274	236	hunger	stimuli/foods\peach.jpg	1	2	1	peach	1	J	6	0	238	0		0	0	117.607020099997	117.706982299977
30579	0.0999590999563225	237	hunger	stimuli/foods\carrot.jpg	1	2	1	carrot	1	N	10	0	19	0		0	0	117.757002400002	117.856961499958
30616.5	0.0999868999933824	238	hunger	stimuli/non_foods\non-food_inanimate_moss.jpg	1	2	1	non-food_inanimate_moss	0	D	2	0	194	0		0	0	117.906999700004	118.006986599998
30654	0.0999850000371225	239	hunger	stimuli/non_foods\non-food_animate_millipede.jpg	1	2	1	non-food_animate_millipede	0	H	5	0	129	0		0	0	118.056999999972	118.156985000009
30691.5	0.0999880000017583	240	hunger	stimuli/non_foods\non-food_inanimate_short_sleeved_shirt.jpg	1	2	1	non-food_inanimate_short_sleeved_shirt	0	Z	18	0	207	0		0	0	118.206993500004	118.306981500005
30729	0.0999891000101343	241	hunger	stimuli/foods\cereal.jpg	1	2	1	cereal	1	F	3	0	22	0		0	0	118.356993799971	118.456982899981
30766.5	0.0999845999758691	242	hunger	stimuli/foods\pear.jpg	1	2	1	pear	1	X	17	0	239	0		0	0	118.506993099989	118.606977699965
30804	0.0999679999658838	243	hunger	stimuli/foods\watermelon.jpg	1	2	1	watermelon	1	W	16	0	279	0		0	0	118.657008400012	118.756976399978
30841.5	0.0999862999888137	244	hunger	stimuli/non_foods\non-food_inanimate_guitar.jpg	1	2	1	non-food_inanimate_guitar	0	S	13	0	185	0		0	0	118.806992999977	118.906979299965
30879	0.0999999000341631	245	hunger	stimuli/non_foods\non-food_inanimate_cap.jpg	1	2	1	non-food_inanimate_cap	0	H	5	0	171	0		0	0	118.956972599961	119.056972499995
30916.5	0.0999828000203706	246	hunger	stimuli/foods\lemon_meringue_pie.jpg	1	2	1	lemon_meringue_pie	1	B	0	0	73	0		0	0	119.106987699983	119.206970500003
30954	0.0999969000113197	247	hunger	stimuli/foods\smoked_ham.jpg	1	2	1	smoked_ham	1	S	13	0	266	0		0	0	119.256984899985	119.356981799996
30991.5	0.0999608999700285	248	hunger	stimuli/non_foods\non-food_inanimate_waterlily.jpg	1	2	1	non-food_inanimate_waterlily	0	Z	18	0	226	0		0	0	119.407006699999	119.506967599969
31029	0.0999890000093728	249	hunger	stimuli/non_foods\non-food_animate_fox.jpg	1	2	1	non-food_animate_fox	0	N	10	0	112	0		0	0	119.556978899986	119.656967899995
31066.5	0.0999850000371225	250	hunger	stimuli/foods\croissant.jpg	1	2	1	croissant	1	O	22	1	40	0		0	0	119.706980499963	119.8069655
31104	0.0999847000348382	251	hunger	stimuli/non_foods\non-food_animate_sea_turtle.jpg	1	2	1	non-food_animate_sea_turtle	0	N	10	0	144	0		0	0	119.856977899966	119.956962600001
31141.5	0.0999891000101343	252	hunger	stimuli/non_foods\non-food_inanimate_bucket.jpg	1	2	1	non-food_inanimate_bucket	0	H	5	0	165	0		0	0	120.006974799966	120.106963899976
31179	0.0999821000150405	253	hunger	stimuli/foods\cabbage.jpg	1	2	1	cabbage	1	P	11	0	16	1	a	0.454065199999604	1	120.156976300001	120.256958400016
31216.5	0.0999858999857679	254	hunger	stimuli/foods\garlic.jpg	1	2	1	garlic	1	K	7	0	56	0		0	0	120.30697179999	120.406957699975
31254	0.0999746000161394	255	hunger	stimuli/foods\lollies.jpg	1	2	1	lollies	1	F	3	0	78	0		0	0	120.456983099983	120.556957699999
31291.5	0.0999864999903366	256	hunger	stimuli/foods\fruit_pie.jpg	1	2	1	fruit_pie	1	P	11	0	54	0		0	0	120.606968900014	120.706955400005
31329	0.0999862999888137	257	hunger	stimuli/foods\bagel.jpg	1	2	1	bagel	1	D	2	0	6	0		0	0	120.756967599969	120.856953899958
31366.5	0.0999833000241779	258	hunger	stimuli/non_foods\non-food_animate_ram.jpg	1	2	1	non-food_animate_ram	0	Z	18	0	140	0		0	0	120.90696599998	121.006949300005
31404	0.100014699972235	259	hunger	stimuli/foods\raisins.jpg	1	2	1	raisins	1	T	14	0	252	0		0	0	121.056964699994	121.156979399966
31441.5	0.0999708999879658	260	hunger	stimuli/foods\kiwi.jpg	1	2	1	kiwi	1	W	16	0	69	0		0	0	121.206978000002	121.30694889999
31479	0.0999878000002354	261	hunger	stimuli/non_foods\non-food_animate_chicken.jpg	1	2	1	non-food_animate_chicken	0	T	14	0	101	0		0	0	121.35696070001	121.45694850001
31516.5	0.0999930000398308	262	hunger	stimuli/non_foods\non-food_inanimate_bicycle.jpg	1	2	1	non-food_inanimate_bicycle	0	P	11	0	161	0		0	0	121.506958799961	121.6069518
31554	0.0999891000101343	263	hunger	stimuli/non_foods\non-food_animate_elephant.jpg	1	2	1	non-food_animate_elephant	0	D	2	0	111	0		0	0	121.656957899977	121.756946999987
31591.5	0.0999854999827221	264	hunger	stimuli/non_foods\non-food_inanimate_shell.jpg	1	2	1	non-food_inanimate_shell	0	G	4	0	206	0		0	0	121.806957499997	121.90694299998
31629	0.0999855999834836	265	hunger	stimuli/foods\museli_bars.jpg	1	2	1	museli_bars	1	R	12	0	84	0		0	0	121.956954199995	122.056939799979
31666.5	0.0999832999659702	266	hunger	stimuli/foods\donut.jpg	1	2	1	donut	1	N	10	0	44	0		0	0	122.106952400005	122.206935699971
31704	0.0999737000092864	267	hunger	stimuli/non_foods\non-food_animate_peacock.jpg	1	2	1	non-food_animate_peacock	0	P	11	0	134	0		0	0	122.256964	122.356937700009
31741.5	0.0999839000287466	268	hunger	stimuli/non_foods\non-food_animate_green_bug.jpg	1	2	1	non-food_animate_green_bug	0	M	9	0	118	0		0	0	122.406950899982	122.506934800011
31779	0.0999885000055656	269	hunger	stimuli/foods\almonds.jpg	1	2	1	almonds	1	P	11	0	0	0		0	0	122.556944899959	122.656933399965
31816.5	0.0999891000101343	270	hunger	stimuli/non_foods\non-food_inanimate_suitcase.jpg	1	2	1	non-food_inanimate_suitcase	0	D	2	0	215	0		0	0	122.70694589999	122.806935000001
31854	0.099988600006327	271	hunger	stimuli/foods\potatoes.jpg	1	2	1	potatoes	1	Z	18	0	248	0		0	0	122.856956999982	122.956945599988
31891.5	0.0999524999642745	272	hunger	stimuli/foods\lime.jpg	1	2	1	lime	1	S	13	0	76	0		0	0	123.006971900002	123.106924399966
31929	0.0999422000022605	273	hunger	stimuli/non_foods\non-food_animate_Causasian_man.jpg	1	2	1	non-food_animate_Causasian_man	0	M	9	0	89	0		0	0	123.156985000009	123.256927200011
31966.5	0.099985100037884	274	hunger	stimuli/foods\pickles.jpg	1	2	1	pickles	1	W	16	0	242	0		0	0	123.306938499969	123.406923600007
32004	0.0999869999941438	275	hunger	stimuli/non_foods\non-food_inanimate_construction_helment.jpg	1	2	1	non-food_inanimate_construction_helment	0	K	7	0	175	0		0	0	123.456935899972	123.556922899967
32041.5	0.0999831999652088	276	hunger	stimuli/foods\risotto_with_zucchini.jpg	1	2	1	risotto_with_zucchini	1	N	10	0	260	0		0	0	123.606936299999	123.706919499964
32079	0.0999866999918595	277	hunger	stimuli/foods\oyster.jpg	1	2	1	oyster	1	W	16	0	233	0		0	0	123.756930699979	123.856917399971
32116.5	0.10000640002545	278	hunger	stimuli/foods\corncob.jpg	1	2	1	corncob	1	K	7	0	37	0		0	0	123.90693269996	124.006939099985
32154	0.0999654000042938	279	hunger	stimuli/foods\hamburger.jpg	1	2	1	hamburger	1	G	4	0	64	0		0	0	124.056951100007	124.156916500011
32595.75	0.0999762999708764	280	hunger	stimuli/foods\risotto_with_peas_and_asparagus_tips.jpg	1	3	1	risotto_with_peas_and_asparagus_tips	1	J	6	0	259	0		0	0	125.823583999998	125.923560299969
32633.25	0.0999845999758691	281	hunger	stimuli/non_foods\non-food_animate_lizard.jpg	1	3	1	non-food_animate_lizard	0	T	14	0	126	0		0	0	125.973574000003	126.073558599979
32670.75	0.099989399954211	282	hunger	stimuli/non_foods\non-food_inanimate_bed.jpg	1	3	1	non-food_inanimate_bed	0	K	7	0	160	0		0	0	126.123578800005	126.223568199959
32708.25	0.0999453000258654	283	hunger	stimuli/foods\fruit_pie.jpg	1	3	1	fruit_pie	1	J	6	0	54	0		0	0	126.273610199976	126.373555500002
32745.75	0.099986599991098	284	hunger	stimuli/non_foods\non-food_inanimate_toilet.jpg	1	3	1	non-food_inanimate_toilet	0	C	1	0	220	0		0	0	126.423572300002	126.523558899993
32783.25	0.0999825000180863	285	hunger	stimuli/non_foods\non-food_inanimate_guitar.jpg	1	3	1	non-food_inanimate_guitar	0	W	16	0	185	0		0	0	126.573572799971	126.673555299989
32820.75	0.0999823999591172	286	hunger	stimuli/non_foods\non-food_animate_grasshopper.jpg	1	3	1	non-food_animate_grasshopper	0	Z	18	0	117	0		0	0	126.723567000008	126.823549399967
32858.25	0.0999838000279851	287	hunger	stimuli/foods\orange.jpg	1	3	1	orange	1	X	17	0	230	0		0	0	126.87356789998	126.973551700008
32895.75	0.099981100007426	288	hunger	stimuli/foods\brownie.jpg	1	3	1	brownie	1	Z	18	0	14	0		0	0	127.023565299984	127.123546399991
32933.25	0.0999822000158019	289	hunger	stimuli/foods\mussels.jpg	1	3	1	mussels	1	P	11	0	86	0		0	0	127.173563299992	127.273545500007
32970.75	0.0999746000161394	290	hunger	stimuli/foods\donut.jpg	1	3	1	donut	1	J	6	0	44	0		0	0	127.323571499961	127.423546099977
33008.25	0.0999822999583557	291	hunger	stimuli/non_foods\non-food_inanimate_toy_airplane.jpg	1	3	1	non-food_inanimate_toy_airplane	0	L	8	0	222	0		0	0	127.473559500009	127.573541799968
33045.75	0.0999849999789149	292	hunger	stimuli/foods\mushroom.jpg	1	3	1	mushroom	1	X	17	0	85	0		0	0	127.623560099979	127.723545099958
33083.25	0.0999847000348382	293	hunger	stimuli/foods\rockmelon.jpg	1	3	1	rockmelon	1	W	16	0	262	0		0	0	127.77355449996	127.873539199994
33120.75	0.0999897999572568	294	hunger	stimuli/foods\fennel.jpg	1	3	1	fennel	1	J	6	0	47	0		0	0	127.923557500006	128.023547299963
33158.25	0.0999492999981157	295	hunger	stimuli/non_foods\non-food_animate_young_girl.jpg	1	3	1	non-food_animate_young_girl	0	L	8	0	157	0		0	0	128.073587799969	128.173537099967
33195.75	0.0999828999629244	296	hunger	stimuli/non_foods\non-food_inanimate_socks.jpg	1	3	1	non-food_inanimate_socks	0	K	7	0	211	0		0	0	128.223551700008	128.323534599971
33233.25	0.0999874999979511	297	hunger	stimuli/foods\lemon.jpg	1	3	1	lemon	1	M	9	0	72	0		0	0	128.373548100004	128.473535600002
33270.75	0.0999726000009105	298	hunger	stimuli/non_foods\non-food_inanimate_jeans.jpg	1	3	1	non-food_inanimate_jeans	0	S	13	0	191	0		0	0	128.523547299963	128.623519899964
33308.25	0.0999797999975272	299	hunger	stimuli/foods\apple.jpg	1	3	1	apple	1	V	15	0	1	0		0	0	128.673549700005	128.773529500002
33345.75	0.099986599991098	300	hunger	stimuli/foods\lasagna.jpg	1	3	1	lasagna	1	K	7	0	71	0		0	0	128.823543199978	128.923529799969
33383.25	0.0999823000165634	301	hunger	stimuli/foods\celery.jpg	1	3	1	celery	1	H	5	0	21	0		0	0	128.973542099993	129.07352440001
33420.75	0.0999829000211321	302	hunger	stimuli/non_foods\non-food_animate_green_bug.jpg	1	3	1	non-food_animate_green_bug	0	D	2	0	118	0		0	0	129.123557799961	129.223540699983
33458.25	0.0999882000032812	303	hunger	stimuli/non_foods\non-food_animate_camel.jpg	1	3	1	non-food_animate_camel	0	W	16	0	97	0		0	0	129.273537600006	129.373525800009
33495.75	0.099983699969016	304	hunger	stimuli/non_foods\non-food_inanimate_briefcase.jpg	1	3	1	non-food_inanimate_briefcase	0	X	17	0	163	0		0	0	129.423535700014	129.523519399983
33533.25	0.099988600006327	305	hunger	stimuli/foods\salami.jpg	1	3	1	salami	1	F	3	0	263	0		0	0	129.573535699979	129.673524299986
33570.75	0.0999911999679171	306	hunger	stimuli/foods\minestrone_soup.jpg	1	3	1	minestrone_soup	1	G	4	0	82	0		0	0	129.723536500009	129.823527699977
33608.25	0.0999589000130072	307	hunger	stimuli/non_foods\non-food_animate_Asian_man.jpg	1	3	1	non-food_animate_Asian_man	0	L	8	0	88	0		0	0	129.87355889997	129.973517799983
33645.75	0.0999855999834836	308	hunger	stimuli/foods\chestnut.jpg	1	3	1	chestnut	1	D	2	0	24	0		0	0	130.023531300016	130.123516899999
33683.25	0.0999875999987125	309	hunger	stimuli/foods\bagel.jpg	1	3	1	bagel	1	N	10	0	6	0		0	0	130.173524999991	130.27351259999
33720.75	0.0999870999949053	310	hunger	stimuli/foods\pork_and_rice.jpg	1	3	1	pork_and_rice	1	R	12	0	245	0		0	0	130.323526099965	130.423513199959
33758.25	0.0999836000264622	311	hunger	stimuli/non_foods\non-food_animate_polar_bear.jpg	1	3	1	non-food_animate_polar_bear	0	K	7	0	137	0		0	0	130.473526099988	130.573509700014
33795.75	0.0999841999728233	312	hunger	stimuli/non_foods\non-food_animate_sea_lion.jpg	1	3	1	non-food_animate_sea_lion	0	C	1	0	143	0		0	0	130.6235246	130.723508799972
33833.25	0.0999869999941438	313	hunger	stimuli/non_foods\non-food_animate_dachshund.jpg	1	3	1	non-food_animate_dachshund	0	P	11	0	104	0		0	0	130.773522000003	130.873508999997
33870.75	0.0999599999631755	314	hunger	stimuli/non_foods\non-food_inanimate_stoplight.jpg	1	3	1	non-food_inanimate_stoplight	0	J	6	0	214	0		0	0	130.923542900011	131.023502899974
33908.25	0.100016899988987	315	hunger	stimuli/non_foods\non-food_animate_alligator.jpg	1	3	1	non-food_animate_alligator	0	M	9	0	90	0		0	0	131.073514699994	131.173531599983
33945.75	0.099984000029508	316	hunger	stimuli/foods\oven-roasted_tomatoes.jpg	1	3	1	oven-roasted_tomatoes	1	W	16	0	232	0		0	0	131.223515999969	131.323499999999
33983.25	0.099962999986019	317	hunger	stimuli/foods\pepperoni_pizza.jpg	1	3	1	pepperoni_pizza	1	M	9	0	241	0		0	0	131.373510600009	131.473473599995
34020.75	0.0999905999633484	318	hunger	stimuli/foods\clams.jpg	1	3	1	clams	1	D	2	0	32	0		0	0	131.523523600015	131.623514199979
34058.25	0.0999840999720618	319	hunger	stimuli/non_foods\non-food_animate_butterfly.jpg	1	3	1	non-food_animate_butterfly	0	N	10	0	96	0		0	0	131.673511500005	131.773495599977
34095.75	0.0999894000124186	320	hunger	stimuli/non_foods\non-food_animate_fox.jpg	1	3	1	non-food_animate_fox	0	X	17	0	112	0		0	0	131.823507099994	131.923496500007
34133.25	0.0999841000302695	321	hunger	stimuli/foods\swordfish.jpg	1	3	1	swordfish	1	J	6	0	273	0		0	0	131.973508099967	132.073492199997
34170.75	0.0999869999941438	322	hunger	stimuli/non_foods\non-food_animate_lion.jpg	1	3	1	non-food_animate_lion	0	D	2	0	125	0		0	0	132.123503600014	132.223490600009
34208.25	0.0999986000242643	323	hunger	stimuli/non_foods\non-food_inanimate_horn.jpg	1	3	1	non-food_inanimate_horn	0	F	3	0	190	0		0	0	132.273480999982	132.373479600006
34245.75	0.0999848999781534	324	hunger	stimuli/non_foods\non-food_animate_peacock.jpg	1	3	1	non-food_animate_peacock	0	K	7	0	134	0		0	0	132.42350189999	132.523486799968
34283.25	0.100006000022404	325	hunger	stimuli/non_foods\non-food_animate_mammoth.jpg	1	3	1	non-food_animate_mammoth	0	W	16	0	128	0		0	0	132.573497799982	132.673503800004
34320.75	0.0999701999826357	326	hunger	stimuli/non_foods\non-food_inanimate_broom.jpg	1	3	1	non-food_inanimate_broom	0	A	19	1	164	0		0	0	132.723513600009	132.823483799992
34358.25	0.0999870000523515	327	hunger	stimuli/foods\oyster.jpg	1	3	1	oyster	1	Z	18	0	233	0		0	0	132.87349649996	132.973483500013
34395.75	0.0999869000515901	328	hunger	stimuli/foods\hazelnuts.jpg	1	3	1	hazelnuts	1	M	9	0	65	0		0	0	133.023493799963	133.123480700015
34433.25	0.0999918999732472	329	hunger	stimuli/non_foods\non-food_inanimate_skirt.jpg	1	3	1	non-food_inanimate_skirt	0	T	14	0	209	1	a	0.541813199990429	1	133.173493999988	133.273485899961
34470.75	0.0999577999464236	330	hunger	stimuli/foods\fried_zucchini.jpg	1	3	1	fried_zucchini	1	D	2	0	51	0		0	0	133.323517500015	133.423475299962
34508.25	0.0999712999910116	331	hunger	stimuli/non_foods\non-food_inanimate_watering_can.jpg	1	3	1	non-food_inanimate_watering_can	0	Z	18	0	225	0		0	0	133.473506400012	133.573477700003
34545.75	0.0999654000042938	332	hunger	stimuli/non_foods\non-food_inanimate_moss.jpg	1	3	1	non-food_inanimate_moss	0	B	0	0	194	0		0	0	133.623491999984	133.723457399989
34583.25	0.0999556999886408	333	hunger	stimuli/non_foods\non-food_inanimate_teddy_bear.jpg	1	3	1	non-food_inanimate_teddy_bear	0	J	6	0	218	0		0	0	133.773490899999	133.873446599988
34620.75	0.0999848999781534	334	hunger	stimuli/foods\waffle.jpg	1	3	1	waffle	1	X	17	0	278	0		0	0	133.923486899992	134.02347179997
34658.25	0.0999829999636859	335	hunger	stimuli/non_foods\non-food_inanimate_rope.jpg	1	3	1	non-food_inanimate_rope	0	F	3	0	204	0		0	0	134.073486500012	134.173469499976
34695.75	0.0999884000048041	336	hunger	stimuli/foods\beetroots.jpg	1	3	1	beetroots	1	L	8	0	10	0		0	0	134.223480599991	134.323468999995
34733.25	0.0999792999937199	337	hunger	stimuli/foods\oregano.jpg	1	3	1	oregano	1	T	14	0	231	0		0	0	134.373483999982	134.473463299975
34770.75	0.0999886999488808	338	hunger	stimuli/non_foods\non-food_inanimate_tent.jpg	1	3	1	non-food_inanimate_tent	0	Z	18	0	219	0		0	0	134.523477200011	134.62346589996
34808.25	0.0999825999606401	339	hunger	stimuli/foods\green_olives.jpg	1	3	1	green_olives	1	L	8	0	62	0		0	0	134.6734803	134.773462899961
34845.75	0.099971599993296	340	hunger	stimuli/foods\museli_bars.jpg	1	3	1	museli_bars	1	N	10	0	84	0		0	0	134.823462900007	134.9234345
34883.25	0.100013300019782	341	hunger	stimuli/foods\blackberry.jpg	1	3	1	blackberry	1	X	17	0	11	0		0	0	134.973470399971	135.073483699991
34920.75	0.099976500030607	342	hunger	stimuli/non_foods\non-food_animate_giraffe.jpg	1	3	1	non-food_animate_giraffe	0	F	3	0	115	0		0	0	135.123481299961	135.223457799992
34958.25	0.0999887000070885	343	hunger	stimuli/foods\fried_calamari.jpg	1	3	1	fried_calamari	1	G	4	0	50	0		0	0	135.273468800006	135.373457500013
34995.75	0.0999614000320435	344	hunger	stimuli/non_foods\non-food_inanimate_orchid.jpg	1	3	1	non-food_inanimate_orchid	0	R	12	0	198	0		0	0	135.423468799971	135.523430200003
35033.25	0.100008399982471	345	hunger	stimuli/non_foods\non-food_animate_donkey.jpg	1	3	1	non-food_animate_donkey	0	W	16	0	107	0		0	0	135.573445099988	135.67345349997
35070.75	0.0999834999674931	346	hunger	stimuli/non_foods\non-food_animate_dragonfly.jpg	1	3	1	non-food_animate_dragonfly	0	H	5	0	108	0		0	0	135.723465799994	135.823449299962
35108.25	0.099987699999474	347	hunger	stimuli/foods\dates.jpg	1	3	1	dates	1	B	0	0	43	0		0	0	135.873463900003	135.973451600003
35145.75	0.0999757999670692	348	hunger	stimuli/foods\stew_with_potatoes_and_carrots.jpg	1	3	1	stew_with_potatoes_and_carrots	1	S	13	0	271	0		0	0	136.023460500001	136.123436299968
35183.25	0.0999875999987125	349	hunger	stimuli/foods\lamb_chops.jpg	1	3	1	lamb_chops	1	Z	18	0	70	0		0	0	136.173452799965	136.273440399964
35220.75	0.0999979000189342	350	hunger	stimuli/foods\croissant.jpg	1	3	1	croissant	1	H	5	0	40	0		0	0	136.323445699993	136.423443600012
35258.25	0.0999829000211321	351	hunger	stimuli/non_foods\non-food_inanimate_fire_extinguisher.jpg	1	3	1	non-food_inanimate_fire_extinguisher	0	G	4	0	181	0		0	0	136.473455599975	136.573438499996
35295.75	0.0999842000310309	352	hunger	stimuli/non_foods\non-food_inanimate_lighter.jpg	1	3	1	non-food_inanimate_lighter	0	D	2	0	193	0		0	0	136.623459099967	136.723443299998
35333.25	0.100014000025112	353	hunger	stimuli/foods\spaghetti_with_meat_sauce.jpg	1	3	1	spaghetti_with_meat_sauce	1	C	1	0	267	0		0	0	136.773455899965	136.873469899991
35370.75	0.0999381000292487	354	hunger	stimuli/non_foods\non-food_inanimate_chandelier.jpg	1	3	1	non-food_inanimate_chandelier	0	D	2	0	173	0		0	0	136.923499899975	137.023438000004
35408.25	0.0999722999986261	355	hunger	stimuli/foods\coconut.jpg	1	3	1	coconut	1	U	23	1	33	0		0	0	137.073451199976	137.173423499975
35445.75	0.0999826000188477	356	hunger	stimuli/foods\potatoes.jpg	1	3	1	potatoes	1	P	11	0	248	0		0	0	137.223450399993	137.323433000012
35483.25	0.0999665000126697	357	hunger	stimuli/foods\potato_and_green_bean_salad.jpg	1	3	1	potato_and_green_bean_salad	1	W	16	0	246	0		0	0	137.373452099971	137.473418599984
35520.75	0.100004800013267	358	hunger	stimuli/foods\cabbage.jpg	1	3	1	cabbage	1	L	8	0	16	1	a	0.541817800025456	1	137.523426799977	137.62343159999
35558.25	0.0999785999883898	359	hunger	stimuli/foods\grapes.jpg	1	3	1	grapes	1	C	1	0	60	0		0	0	137.673443000007	137.773421599995
35595.75	0.0999834999674931	360	hunger	stimuli/foods\pickles.jpg	1	3	1	pickles	1	L	8	0	242	0		0	0	137.82344539999	137.923428899958
35633.25	0.099974199954886	361	hunger	stimuli/non_foods\non-food_inanimate_short_sleeved_shirt.jpg	1	3	1	non-food_inanimate_short_sleeved_shirt	0	F	3	0	207	0		0	0	137.973444000003	138.073418199958
35670.75	0.0999880000017583	362	hunger	stimuli/non_foods\non-food_animate_ladybug.jpg	1	3	1	non-food_animate_ladybug	0	V	15	0	124	0		0	0	138.12342899997	138.223416999972
35708.25	0.0999884000048041	363	hunger	stimuli/foods\hamburger.jpg	1	3	1	hamburger	1	F	3	0	64	0		0	0	138.273419699981	138.373408099986
35745.75	0.10000489995582	364	hunger	stimuli/foods\avocado.jpg	1	3	1	avocado	1	N	10	0	5	0		0	0	138.423405700014	138.52341059997
35783.25	0.0999845999758691	365	hunger	stimuli/foods\cupcake.jpg	1	3	1	cupcake	1	P	11	0	42	0		0	0	138.573453499994	138.67343809997
35820.75	0.0999619000358507	366	hunger	stimuli/non_foods\non-food_animate_bat.jpg	1	3	1	non-food_animate_bat	0	W	16	0	94	0		0	0	138.723456099979	138.823418000014
35858.25	0.099971599993296	367	hunger	stimuli/non_foods\non-food_inanimate_bamboo.jpg	1	3	1	non-food_inanimate_bamboo	0	V	15	0	159	0		0	0	138.873433200002	138.973404799995
35895.75	0.0999908000230789	368	hunger	stimuli/foods\cucumber.jpg	1	3	1	cucumber	1	C	1	0	41	0		0	0	139.023424999963	139.123415799986
35933.25	0.0999857000424527	369	hunger	stimuli/non_foods\non-food_animate_baby_crawling.jpg	1	3	1	non-food_animate_baby_crawling	0	H	5	0	92	0		0	0	139.173429399962	139.273415100004
35970.75	0.0999772999784909	370	hunger	stimuli/foods\cherry.jpg	1	3	1	cherry	1	J	6	0	23	0		0	0	139.323425200011	139.42340249999
36008.25	0.0999959000037052	371	hunger	stimuli/foods\meatballs.jpg	1	3	1	meatballs	1	X	17	0	81	0		0	0	139.473416599969	139.573412499973
36045.75	0.0999902000185102	372	hunger	stimuli/foods\cooked_prawn.jpg	1	3	1	cooked_prawn	1	T	14	0	36	0		0	0	139.623408599989	139.723398800008
36083.25	0.0999698999803513	373	hunger	stimuli/foods\banana.jpg	1	3	1	banana	1	D	2	0	9	0		0	0	139.773427299981	139.873397199961
36120.75	0.099985699984245	374	hunger	stimuli/foods\toasted_bread_with_tomatoes.jpg	1	3	1	toasted_bread_with_tomatoes	1	K	7	0	275	0		0	0	139.923405300011	140.023390999995
36158.25	0.0999791999929585	375	hunger	stimuli/non_foods\non-food_animate_elephant.jpg	1	3	1	non-food_animate_elephant	0	G	4	0	111	0		0	0	140.073408700002	140.173387899995
36195.75	0.0999814000097103	376	hunger	stimuli/non_foods\non-food_inanimate_skateboard.jpg	1	3	1	non-food_inanimate_skateboard	0	Z	18	0	208	0		0	0	140.223409699975	140.323391099984
36233.25	0.0999781000427902	377	hunger	stimuli/foods\strawberry.jpg	1	3	1	strawberry	1	S	13	0	272	0		0	0	140.37341369997	140.473391800013
36270.75	0.0999657000065781	378	hunger	stimuli/non_foods\non-food_animate_young_boy.jpg	1	3	1	non-food_animate_young_boy	0	M	9	0	156	0		0	0	140.52343229996	140.623397999967
36308.25	0.0999817999545485	379	hunger	stimuli/non_foods\non-food_animate_penguin.jpg	1	3	1	non-food_animate_penguin	0	D	2	0	135	0		0	0	140.673413500015	140.77339529997
36345.75	0.0999894999549724	380	hunger	stimuli/foods\papaya.jpg	1	3	1	papaya	1	H	5	0	235	0		0	0	140.823410100013	140.923399599968
36383.25	0.0999856000416912	381	hunger	stimuli/foods\spinach.jpg	1	3	1	spinach	1	N	10	0	268	0		0	0	140.973409499973	141.073395100015
36420.75	0.100012600014452	382	hunger	stimuli/foods\cannoli.jpg	1	3	1	cannoli	1	G	4	0	17	0		0	0	141.123376899981	141.223389499995
36458.25	0.0999850000371225	383	hunger	stimuli/foods\broccoli.jpg	1	3	1	broccoli	1	L	8	0	13	0		0	0	141.273403699975	141.373388700013
36495.75	0.0999834000249393	384	hunger	stimuli/non_foods\non-food_animate_dolphin.jpg	1	3	1	non-food_animate_dolphin	0	S	13	0	106	0		0	0	141.423402099987	141.523385500011
36533.25	0.0999905000207946	385	hunger	stimuli/non_foods\non-food_inanimate_drum_set.jpg	1	3	1	non-food_inanimate_drum_set	0	L	8	0	179	0		0	0	141.573397199973	141.673387699993
36570.75	0.0999826000188477	386	hunger	stimuli/foods\pear.jpg	1	3	1	pear	1	X	17	0	239	0		0	0	141.723401199968	141.823383799987
36608.25	0.0999878000002354	387	hunger	stimuli/non_foods\non-food_inanimate_towel.jpg	1	3	1	non-food_inanimate_towel	0	G	4	0	221	0		0	0	141.873393599992	141.973381399992
36645.75	0.0999882000032812	388	hunger	stimuli/non_foods\non-food_animate_clown.jpg	1	3	1	non-food_animate_clown	0	B	0	0	102	0		0	0	142.023396799981	142.123384999984
36683.25	0.100000300037209	389	hunger	stimuli/non_foods\non-food_inanimate_bucket.jpg	1	3	1	non-food_inanimate_bucket	0	P	11	0	165	0		0	0	142.173398999963	142.2733993
36720.75	0.0999497000011615	390	hunger	stimuli/foods\artichoke.jpg	1	3	1	artichoke	1	T	14	0	3	0		0	0	142.323424900009	142.42337460001
36758.25	0.0999909000238404	391	hunger	stimuli/foods\omelette.jpg	1	3	1	omelette	1	C	1	0	228	0		0	0	142.473388999992	142.573379900015
36795.75	0.0999845999758691	392	hunger	stimuli/foods\fruit_flan.jpg	1	3	1	fruit_flan	1	V	15	0	53	0		0	0	142.623387900006	142.723372499982
36833.25	0.0999869999941438	393	hunger	stimuli/non_foods\non-food_animate_snail.jpg	1	3	1	non-food_animate_snail	0	C	1	0	149	0		0	0	142.773385800014	142.873372800008
36870.75	0.0999857999850065	394	hunger	stimuli/non_foods\non-food_animate_porcupine.jpg	1	3	1	non-food_animate_porcupine	0	X	17	0	138	0		0	0	142.92338589998	143.023371699965
36908.25	0.099986599991098	395	hunger	stimuli/non_foods\non-food_inanimate_folding_chair.jpg	1	3	1	non-food_inanimate_folding_chair	0	P	11	0	182	0		0	0	143.073384499992	143.173371099983
36945.75	0.100008599983994	396	hunger	stimuli/non_foods\non-food_animate_baby_sitting.jpg	1	3	1	non-food_animate_baby_sitting	0	L	8	0	93	0		0	0	143.22338380001	143.323392399994
36983.25	0.0999763999716379	397	hunger	stimuli/foods\figs.jpg	1	3	1	figs	1	X	17	0	48	0		0	0	143.373388800013	143.473365199985
37020.75	0.0999933999846689	398	hunger	stimuli/non_foods\non-food_animate_rhino.jpg	1	3	1	non-food_animate_rhino	0	W	16	0	141	0		0	0	143.523374399985	143.62336779997
37058.25	0.0999845000333153	399	hunger	stimuli/foods\cinnamon_sroll.jpg	1	3	1	cinnamon_sroll	1	L	8	0	31	0		0	0	143.673377099971	143.773361600004
37095.75	0.0999988000257872	400	hunger	stimuli/non_foods\non-food_animate_slug.jpg	1	3	1	non-food_animate_slug	0	M	9	0	148	0		0	0	143.823373799969	143.923372599995
37133.25	0.0999928000383079	401	hunger	stimuli/foods\rice.jpg	1	3	1	rice	1	V	15	0	257	0		0	0	143.973370999971	144.073363800009
37170.75	0.0999649000004865	402	hunger	stimuli/non_foods\non-food_animate_caterpillar.jpg	1	3	1	non-food_animate_caterpillar	0	X	17	0	99	0		0	0	144.123390499968	144.223355399969
37208.25	0.0999903999618255	403	hunger	stimuli/foods\pumpkin.jpg	1	3	1	pumpkin	1	V	15	0	250	0		0	0	144.273369700008	144.373360099969
37245.75	0.0999859000439756	404	hunger	stimuli/non_foods\non-food_animate_tortoise.jpg	1	3	1	non-food_animate_tortoise	0	S	13	0	153	0		0	0	144.423368999967	144.523354900011
37283.25	0.0999898000154644	405	hunger	stimuli/foods\ginger_root.jpg	1	3	1	ginger_root	1	B	0	0	57	0		0	0	144.573365799966	144.673355599982
37320.75	0.099983699969016	406	hunger	stimuli/non_foods\non-food_inanimate_waterlily.jpg	1	3	1	non-food_inanimate_waterlily	0	C	1	0	226	0		0	0	144.7233672	144.823350899969
37358.25	0.0999837999697775	407	hunger	stimuli/non_foods\non-food_inanimate_canoe.jpg	1	3	1	non-food_inanimate_canoe	0	J	6	0	170	0		0	0	144.873363899998	144.973347699968
37395.75	0.10000570002012	408	hunger	stimuli/foods\egg.jpg	1	3	1	egg	1	N	10	0	45	1	a	0	0	145.023358699982	145.123364400002
37433.25	0.0999700999818742	409	hunger	stimuli/foods\chilli.jpg	1	3	1	chilli	1	B	0	0	25	0		0	0	145.173373400001	145.273343499983
37470.75	0.0999843000317924	410	hunger	stimuli/non_foods\non-food_animate_eagle.jpg	1	3	1	non-food_animate_eagle	0	S	13	0	110	0		0	0	145.323358299967	145.423342599999
37508.25	0.0999845999758691	411	hunger	stimuli/foods\corncob.jpg	1	3	1	corncob	1	B	0	0	37	0		0	0	145.473357299983	145.573341899959
37545.75	0.100018800003454	412	hunger	stimuli/non_foods\non-food_inanimate_gloves.jpg	1	3	1	non-food_inanimate_gloves	0	W	16	0	183	0		0	0	145.623327400011	145.723346200015
37583.25	0.099994299991522	413	hunger	stimuli/non_foods\non-food_inanimate_nettle.jpg	1	3	1	non-food_inanimate_nettle	0	D	2	0	197	0		0	0	145.773375699995	145.873369999987
37620.75	0.0999830000218935	414	hunger	stimuli/foods\garlic.jpg	1	3	1	garlic	1	S	13	0	56	0		0	0	145.923345499963	146.023328499985
37658.25	0.0999832000234164	415	hunger	stimuli/foods\asparagus.jpg	1	3	1	asparagus	1	R	12	0	4	0		0	0	146.073345299985	146.173328500008
37695.75	0.0999830999644473	416	hunger	stimuli/foods\cinnamon.jpg	1	3	1	cinnamon	1	X	17	0	30	0		0	0	146.223343699996	146.32332679996
37733.25	0.099987699999474	417	hunger	stimuli/non_foods\non-food_inanimate_chair.jpg	1	3	1	non-food_inanimate_chair	0	F	3	0	172	0		0	0	146.373338699981	146.473326399981
37770.75	0.0999965000082739	418	hunger	stimuli/foods\lime.jpg	1	3	1	lime	1	X	17	0	76	0		0	0	146.523335199978	146.623331699986
37808.25	0.0999861000454985	419	hunger	stimuli/foods\pineapple.jpg	1	3	1	pineapple	1	P	11	0	243	0		0	0	146.673346099968	146.773332200013
38262.5	0.099950700008776	420	hunger	stimuli/non_foods\non-food_inanimate_fern.jpg	1	4	1	non-food_inanimate_fern	0	B	0	0	180	0		0	0	148.490028499975	148.589979199984
38300	0.0999784000450745	421	hunger	stimuli/foods\lentils.jpg	1	4	1	lentils	1	P	11	0	74	0		0	0	148.639993599965	148.73997200001
38337.5	0.0999822999583557	422	hunger	stimuli/non_foods\non-food_inanimate_speakers.jpg	1	4	1	non-food_inanimate_speakers	0	X	17	0	212	0		0	0	148.789988300006	148.889970599965
38375	0.0999928000383079	423	hunger	stimuli/non_foods\non-food_inanimate_wrench.jpg	1	4	1	non-food_inanimate_wrench	0	G	4	0	227	0		0	0	148.939987699967	149.039980500005
38412.5	0.100006399967242	424	hunger	stimuli/non_foods\non-food_inanimate_stapler.jpg	1	4	1	non-food_inanimate_stapler	0	V	15	0	213	0		0	0	149.089965899999	149.189972299966
38450	0.099985699984245	425	hunger	stimuli/foods\cream_donuts.jpg	1	4	1	cream_donuts	1	D	2	0	39	0		0	0	149.239984899992	149.339970599976
38487.5	0.099983699969016	426	hunger	stimuli/non_foods\non-food_animate_mouse.jpg	1	4	1	non-food_animate_mouse	0	T	14	0	131	0		0	0	149.389976800012	149.489960499981
38525	0.0999925999785773	427	hunger	stimuli/foods\linguine_with_clams.jpg	1	4	1	linguine_with_clams	1	K	7	0	77	0		0	0	149.539989300014	149.639981899993
38562.5	0.0999854999827221	428	hunger	stimuli/non_foods\non-food_animate_ram.jpg	1	4	1	non-food_animate_ram	0	V	15	0	140	0		0	0	149.689970000007	149.789955499989
38600	0.099983100022655	429	hunger	stimuli/non_foods\non-food_animate_ant.jpg	1	4	1	non-food_animate_ant	0	J	6	0	91	0		0	0	149.839969499968	149.939952599991
38637.5	0.0999898000154644	430	hunger	stimuli/non_foods\non-food_animate_kangaroo.jpg	1	4	1	non-food_animate_kangaroo	0	X	17	0	122	0		0	0	149.989968899987	150.089958700002
38675	0.100009599991608	431	hunger	stimuli/foods\cereal.jpg	1	4	1	cereal	1	M	9	0	22	0		0	0	150.139964199974	150.239973799966
38712.5	0.0999562999932095	432	hunger	stimuli/foods\fries.jpg	1	4	1	fries	1	X	17	0	52	0		0	0	150.289998499968	150.389954799961
38750	0.0999732000054792	433	hunger	stimuli/foods\lettuce.jpg	1	4	1	lettuce	1	S	13	0	75	0		0	0	150.439980999974	150.53995419998
38787.5	0.0999829000211321	434	hunger	stimuli/non_foods\non-food_animate_hummingbird.jpg	1	4	1	non-food_animate_hummingbird	0	T	14	0	120	0		0	0	150.58997109998	150.689954000001
38825	0.0999838000279851	435	hunger	stimuli/non_foods\non-food_inanimate_desk.jpg	1	4	1	non-food_inanimate_desk	0	B	0	0	178	0		0	0	150.739965799963	150.839949599991
38862.5	0.0999852999811992	436	hunger	stimuli/foods\taco.jpg	1	4	1	taco	1	D	2	0	274	0		0	0	150.889964599977	150.989949899958
38900	0.0999860999872908	437	hunger	stimuli/foods\fruit_salad.jpg	1	4	1	fruit_salad	1	G	4	0	55	0		0	0	151.039961699978	151.139947799966
38937.5	0.100007000030018	438	hunger	stimuli/non_foods\non-food_animate_cow.jpg	1	4	1	non-food_animate_cow	0	V	15	0	103	0		0	0	151.18995879998	151.28996580001
38975	0.0999829999636859	439	hunger	stimuli/foods\chocolate_chip_cookies.jpg	1	4	1	chocolate_chip_cookies	1	H	5	0	27	0		0	0	151.339973499998	151.439956499962
39012.5	0.0999846999766305	440	hunger	stimuli/non_foods\non-food_inanimate_padlock.jpg	1	4	1	non-food_inanimate_padlock	0	P	11	0	199	0		0	0	151.489954999997	151.589939699974
39050	0.0999881000025198	441	hunger	stimuli/non_foods\non-food_inanimate_nailpolish.jpg	1	4	1	non-food_inanimate_nailpolish	0	L	8	0	195	0		0	0	151.639953900012	151.739942000015
39087.5	0.0999867000500672	442	hunger	stimuli/non_foods\non-food_animate_runner.jpg	1	4	1	non-food_animate_runner	0	Z	18	0	142	0		0	0	151.789951999963	151.889938700013
39125	0.0999533999711275	443	hunger	stimuli/non_foods\non-food_inanimate_highlighter.jpg	1	4	1	non-food_inanimate_highlighter	0	K	7	0	189	0		0	0	151.939984600001	152.039937999973
39162.5	0.0999718999955803	444	hunger	stimuli/non_foods\non-food_animate_bee.jpg	1	4	1	non-food_animate_bee	0	Z	18	0	95	0		0	0	152.089964099985	152.189935999981
39200	0.100004900014028	445	hunger	stimuli/foods\tomato.jpg	1	4	1	tomato	1	F	3	0	276	0		0	0	152.23993109999	152.339936000004
39237.5	0.0999977000174113	446	hunger	stimuli/non_foods\non-food_animate_duck.jpg	1	4	1	non-food_animate_duck	0	N	10	0	109	0		0	0	152.389939499961	152.489937199978
39275	0.10000299999956	447	hunger	stimuli/non_foods\non-food_inanimate_headphones.jpg	1	4	1	non-food_inanimate_headphones	0	M	9	0	188	0		0	0	152.539927900012	152.639930900012
39312.5	0.0999828000203706	448	hunger	stimuli/non_foods\non-food_animate_skunk.jpg	1	4	1	non-food_animate_skunk	0	G	4	0	147	0		0	0	152.689943999983	152.789926800004
39350	0.0999841000302695	449	hunger	stimuli/non_foods\non-food_animate_millipede.jpg	1	4	1	non-food_animate_millipede	0	M	9	0	129	0		0	0	152.839941199985	152.939925300016
39387.5	0.0999895000131801	450	hunger	stimuli/foods\grilled_chicken_breast.jpg	1	4	1	grilled_chicken_breast	1	L	8	0	63	0		0	0	152.989930899988	153.089920400002
39425	0.099972500000149	451	hunger	stimuli/non_foods\non-food_inanimate_pine_cone.jpg	1	4	1	non-food_inanimate_pine_cone	0	M	9	0	200	0		0	0	153.139932899969	153.239905399969
39462.5	0.099989700014703	452	hunger	stimuli/foods\raw_sausage.jpg	1	4	1	raw_sausage	1	P	11	0	254	0		0	0	153.289926400001	153.389916100015
39500	0.0999541999772191	453	hunger	stimuli/non_foods\non-food_inanimate_shell.jpg	1	4	1	non-food_inanimate_shell	0	W	16	0	206	0		0	0	153.4399385	153.539892699977
39537.5	0.100020200014114	454	hunger	stimuli/non_foods\non-food_inanimate_cactus_pot_plant.jpg	1	4	1	non-food_inanimate_cactus_pot_plant	0	B	0	0	169	0		0	0	153.589918199985	153.689938399999
39575	0.0999560999916866	455	hunger	stimuli/non_foods\non-food_inanimate_bicycle.jpg	1	4	1	non-food_inanimate_bicycle	0	C	1	0	161	0		0	0	153.739960699982	153.839916799974
39612.5	0.0999858999857679	456	hunger	stimuli/non_foods\non-food_animate_raccoon.jpg	1	4	1	non-food_animate_raccoon	0	H	5	0	139	0		0	0	153.889929900004	153.98991579999
39650	0.0999864999903366	457	hunger	stimuli/foods\mortadella.jpg	1	4	1	mortadella	1	G	4	0	83	0		0	0	154.039930199971	154.139916699962
39687.5	0.0999850000371225	458	hunger	stimuli/foods\pea_pod.jpg	1	4	1	pea_pod	1	Z	18	0	237	0		0	0	154.189927699976	154.289912700013
39725	0.0999904000200331	459	hunger	stimuli/foods\nectarine.jpg	1	4	1	nectarine	1	L	8	0	87	0		0	0	154.339925599983	154.439916000003
39762.5	0.0999863999895751	460	hunger	stimuli/foods\peas.jpg	1	4	1	peas	1	B	0	0	240	0		0	0	154.489923199988	154.589909599978
39800	0.0999837999697775	461	hunger	stimuli/non_foods\non-food_inanimate_soccer_ball.jpg	1	4	1	non-food_inanimate_soccer_ball	0	H	5	0	210	0		0	0	154.639922800008	154.739906599978
39837.5	0.0999855000409298	462	hunger	stimuli/foods\steak.jpg	1	4	1	steak	1	Z	18	0	270	0		0	0	154.789922999975	154.889908500016
39875	0.0999860999872908	463	hunger	stimuli/non_foods\non-food_animate_seahorse.jpg	1	4	1	non-food_animate_seahorse	0	E	20	1	145	0		0	0	154.939916600008	155.039902699995
39912.5	0.0999910999671556	464	hunger	stimuli/non_foods\non-food_animate_sea_turtle.jpg	1	4	1	non-food_animate_sea_turtle	0	M	9	0	144	0		0	0	155.08991390001	155.189904999977
39950	0.0999880000017583	465	hunger	stimuli/foods\salmon.jpg	1	4	1	salmon	1	V	15	0	264	0		0	0	155.239914899983	155.339902899985
39987.5	0.099991700029932	466	hunger	stimuli/foods\pasta_carbonara.jpg	1	4	1	pasta_carbonara	1	B	0	0	236	0		0	0	155.389910599974	155.489902300003
40025	0.0999413999961689	467	hunger	stimuli/foods\savory_pie.jpg	1	4	1	savory_pie	1	R	12	0	265	0		0	0	155.539958900015	155.639900300012
40062.5	0.0999837000272237	468	hunger	stimuli/non_foods\non-food_inanimate_buds.jpg	1	4	1	non-food_inanimate_buds	0	H	5	0	166	0		0	0	155.689911999973	155.7898957
40100	0.0999849999789149	469	hunger	stimuli/non_foods\non-food_inanimate_tree.jpg	1	4	1	non-food_inanimate_tree	0	W	16	0	223	0		0	0	155.839909799979	155.939894799958
40137.5	0.099985699984245	470	hunger	stimuli/non_foods\non-food_animate_killer_whale.jpg	1	4	1	non-food_animate_killer_whale	0	R	12	0	123	0		0	0	155.989907299983	156.089892999968
40175	0.0999870999949053	471	hunger	stimuli/foods\potato_chips.jpg	1	4	1	potato_chips	1	F	3	0	247	0		0	0	156.139902799972	156.239889899967
40212.5	0.0999832000234164	472	hunger	stimuli/foods\mango.jpg	1	4	1	mango	1	C	1	0	80	0		0	0	156.289907699975	156.389890899998
40250	0.099981100007426	473	hunger	stimuli/non_foods\non-food_animate_llama.jpg	1	4	1	non-food_animate_llama	0	F	3	0	127	0		0	0	156.439905499981	156.539886599989
40287.5	0.0999627999844961	474	hunger	stimuli/non_foods\non-food_inanimate_suitcase.jpg	1	4	1	non-food_inanimate_suitcase	0	G	4	0	215	0		0	0	156.589921700011	156.689884499996
40325	0.0999766999739222	475	hunger	stimuli/non_foods\non-food_animate_squirrel.jpg	1	4	1	non-food_animate_squirrel	0	M	9	0	150	0		0	0	156.739908099989	156.839884799963
40362.5	0.0999846999766305	476	hunger	stimuli/non_foods\non-food_inanimate_construction_helment.jpg	1	4	1	non-food_inanimate_construction_helment	0	S	13	0	175	0		0	0	156.889899000002	156.989883699978
40400	0.0999832999659702	477	hunger	stimuli/non_foods\non-food_animate_parrot.jpg	1	4	1	non-food_animate_parrot	0	F	3	0	133	0		0	0	157.039897600014	157.13988089998
40437.5	0.100011700007599	478	hunger	stimuli/non_foods\non-food_inanimate_rack.jpg	1	4	1	non-food_inanimate_rack	0	V	15	0	202	0		0	0	157.189891099988	157.289902799996
40475	0.0999485999927856	479	hunger	stimuli/foods\hotdog.jpg	1	4	1	hotdog	1	L	8	0	67	0		0	0	157.33993159997	157.439880199963
40512.5	0.0999891999526881	480	hunger	stimuli/non_foods\non-food_inanimate_sun_flower.jpg	1	4	1	non-food_inanimate_sun_flower	0	T	14	0	216	0		0	0	157.489888600016	157.589877799968
40550	0.0999828000203706	481	hunger	stimuli/foods\radish.jpg	1	4	1	radish	1	L	8	0	251	0		0	0	157.639888999984	157.739871800004
40587.5	0.0999859999865294	482	hunger	stimuli/foods\chocolate_pudding.jpg	1	4	1	chocolate_pudding	1	W	16	0	29	0		0	0	157.789886699989	157.889872699976
40625	0.099986599991098	483	hunger	stimuli/non_foods\non-food_inanimate_cupboard.jpg	1	4	1	non-food_inanimate_cupboard	0	J	6	0	177	0		0	0	157.939886000007	158.039872599998
40662.5	0.0999860999872908	484	hunger	stimuli/foods\mandarin.jpg	1	4	1	mandarin	1	B	0	0	79	0		0	0	158.089883600012	158.1898697
40700	0.0999860999872908	485	hunger	stimuli/foods\raisins.jpg	1	4	1	raisins	1	G	4	0	252	0		0	0	158.239880700014	158.339866800001
40737.5	0.0999736999510787	486	hunger	stimuli/non_foods\non-food_inanimate_leaf.jpg	1	4	1	non-food_inanimate_leaf	0	S	13	0	192	0		0	0	158.389892600011	158.489866299962
40775	0.0999883000040427	487	hunger	stimuli/foods\capsicum.jpg	1	4	1	capsicum	1	H	5	0	18	0		0	0	158.539878599986	158.63986689999
40812.5	0.0999875999987125	488	hunger	stimuli/non_foods\non-food_inanimate_protractor.jpg	1	4	1	non-food_inanimate_protractor	0	S	13	0	201	0		0	0	158.689878100005	158.789865700004
40850	0.0999891000101343	489	hunger	stimuli/foods\green_beans.jpg	1	4	1	green_beans	1	M	9	0	61	0		0	0	158.839872499986	158.939861599996
40887.5	0.100030200032052	490	hunger	stimuli/foods\grapefruits.jpg	1	4	1	grapefruits	1	L	8	0	59	0		0	0	158.989876699983	159.089906900015
40925	0.0999818000127561	491	hunger	stimuli/non_foods\non-food_inanimate_table.jpg	1	4	1	non-food_inanimate_table	0	B	0	0	217	0		0	0	159.139874999993	159.239856800006
40962.5	0.0999883000040427	492	hunger	stimuli/foods\rice_cake.jpg	1	4	1	rice_cake	1	N	10	0	258	0		0	0	159.289868499967	159.389856799971
41000	0.0999837000272237	493	hunger	stimuli/foods\lollies.jpg	1	4	1	lollies	1	P	11	0	78	0		0	0	159.439871999959	159.539855699986
41037.5	0.0999855999834836	494	hunger	stimuli/foods\spring_onions.jpg	1	4	1	spring_onions	1	J	6	0	269	0		0	0	159.589867100003	159.689852699987
41075	0.0999869999941438	495	hunger	stimuli/foods\pancakes.jpg	1	4	1	pancakes	1	V	15	0	234	0		0	0	159.739867799974	159.839854799968
41112.5	0.0999868999933824	496	hunger	stimuli/foods\kiwi.jpg	1	4	1	kiwi	1	W	16	0	69	0		0	0	159.889865499979	159.989852399973
41150	0.099957300000824	497	hunger	stimuli/non_foods\non-food_inanimate_hammer.jpg	1	4	1	non-food_inanimate_hammer	0	B	0	0	186	0		0	0	160.039864499995	160.139821799996
41187.5	0.0999714999925345	498	hunger	stimuli/foods\onion.jpg	1	4	1	onion	1	H	5	0	229	0		0	0	160.189875999989	160.289847499982
41225	0.0999617999768816	499	hunger	stimuli/non_foods\non-food_inanimate_nest.jpg	1	4	1	non-food_inanimate_nest	0	R	12	0	196	0		0	0	160.339859800006	160.439821599983
41262.5	0.0999882000032812	500	hunger	stimuli/foods\brie.jpg	1	4	1	brie	1	D	2	0	12	0		0	0	160.489849200007	160.58983740001
41300	0.0999857000424527	501	hunger	stimuli/foods\lemon_meringue_pie.jpg	1	4	1	lemon_meringue_pie	1	W	16	0	73	0		0	0	160.639848599967	160.73983430001
41337.5	0.0999714999925345	502	hunger	stimuli/foods\honey.jpg	1	4	1	honey	1	L	8	0	66	0		0	0	160.789861399971	160.889832899964
41375	0.0999775999807753	503	hunger	stimuli/non_foods\non-food_inanimate_ring.jpg	1	4	1	non-food_inanimate_ring	0	P	11	0	203	0		0	0	160.939856100013	161.039833699993
41412.5	0.0999851999804378	504	hunger	stimuli/foods\baked_cod_with_carrots_and_green_beans.jpg	1	4	1	baked_cod_with_carrots_and_green_beans	1	V	15	0	7	0		0	0	161.08984500001	161.18983019999
41450	0.0999864999903366	505	hunger	stimuli/non_foods\non-food_animate_swan.jpg	1	4	1	non-food_animate_swan	0	D	2	0	152	0		0	0	161.239842200011	161.339828700002
41487.5	0.0999834999674931	506	hunger	stimuli/foods\carrot.jpg	1	4	1	carrot	1	Z	18	0	19	0		0	0	161.389844199992	161.489827699959
41524.75	0.0999998999759555	507	hunger	stimuli/non_foods\non-food_animate_iguana.jpg	1	4	1	non-food_animate_iguana	0	N	10	0	121	0		0	0	161.539827100001	161.639826999977
41562.5	0.0999849999789149	508	hunger	stimuli/non_foods\non-food_animate_monkey.jpg	1	4	1	non-food_animate_monkey	0	G	4	0	130	0		0	0	161.689838699996	161.789823699975
41599.75	0.0999998999759555	509	hunger	stimuli/non_foods\non-food_inanimate_button.jpg	1	4	1	non-food_inanimate_button	0	Z	18	0	168	0		0	0	161.839829300006	161.939829199982
41637.5	0.0999590000137687	510	hunger	stimuli/foods\smoked_ham.jpg	1	4	1	smoked_ham	1	J	6	0	266	0		0	0	161.989866799966	162.08982579998
41675	0.0999883000040427	511	hunger	stimuli/foods\raw_ham.jpg	1	4	1	raw_ham	1	C	1	0	253	0		0	0	162.139837900002	162.239826200006
41712.5	0.099988600006327	512	hunger	stimuli/foods\eggplant.jpg	1	4	1	eggplant	1	Z	18	0	46	0		0	0	162.289837299963	162.389825899969
41750	0.0999883000040427	513	hunger	stimuli/foods\coffee_beans.jpg	1	4	1	coffee_beans	1	S	13	0	34	0		0	0	162.439838599996	162.5398269
41787.5	0.0999621000373736	514	hunger	stimuli/non_foods\non-food_animate_cheetah.jpg	1	4	1	non-food_animate_cheetah	0	B	0	0	100	0		0	0	162.589861799963	162.6898239
41825	0.0999634999898262	515	hunger	stimuli/non_foods\non-food_inanimate_grass.jpg	1	4	1	non-food_inanimate_grass	0	F	3	0	184	0		0	0	162.739854299987	162.839817799977
41862.5	0.0999880000017583	516	hunger	stimuli/non_foods\non-food_inanimate_scissors.jpg	1	4	1	non-food_inanimate_scissors	0	X	17	0	205	0		0	0	162.889830900007	162.989818900009
41900	0.0999887000070885	517	hunger	stimuli/foods\roasted_chicken.jpg	1	4	1	roasted_chicken	1	F	3	0	261	0		0	0	163.039827300003	163.13981600001
41937.5	0.0999835000257008	518	hunger	stimuli/foods\cauliflower.jpg	1	4	1	cauliflower	1	V	15	0	20	0		0	0	163.189826499962	163.289809999987
41975	0.0999862999888137	519	hunger	stimuli/non_foods\non-food_inanimate_bowling_ball.jpg	1	4	1	non-food_inanimate_bowling_ball	0	L	8	0	162	0		0	0	163.339824799972	163.439811099961
42012.5	0.0999829000211321	520	hunger	stimuli/non_foods\non-food_inanimate_clover.jpg	1	4	1	non-food_inanimate_clover	0	W	16	0	174	0		0	0	163.489827999962	163.589810899983
42050	0.099982000014279	521	hunger	stimuli/non_foods\non-food_animate_student_female.jpg	1	4	1	non-food_animate_student_female	0	V	15	0	151	0		0	0	163.639813799993	163.739795800007
42087.5	0.0999341999995522	522	hunger	stimuli/foods\chocolate_bar.jpg	1	4	1	chocolate_bar	1	J	6	0	26	0		0	0	163.789863299986	163.889797499985
42124.75	0.0999878000002354	523	hunger	stimuli/foods\watermelon.jpg	1	4	1	watermelon	1	N	10	0	279	0		0	0	163.939810500015	164.039798300015
42162.25	0.0999855999834836	524	hunger	stimuli/foods\gnocchi.jpg	1	4	1	gnocchi	1	Z	18	0	58	0		0	0	164.089811299986	164.189796899969
42199.75	0.100010499998461	525	hunger	stimuli/foods\frankfurter_and_provolone_salad.jpg	1	4	1	frankfurter_and_provolone_salad	1	M	9	0	49	0		0	0	164.239798199967	164.339808699966
42237.5	0.0999828000203706	526	hunger	stimuli/non_foods\non-food_animate_german_shepherd.jpg	1	4	1	non-food_animate_german_shepherd	0	N	10	0	114	0		0	0	164.389835699985	164.489818500006
42275	0.0999784999876283	527	hunger	stimuli/foods\baked_lamb_with_potatoes.jpg	1	4	1	baked_lamb_with_potatoes	1	W	16	0	8	0		0	0	164.539825299988	164.639803799975
42312.5	0.0999652000027709	528	hunger	stimuli/non_foods\non-food_inanimate_cap.jpg	1	4	1	non-food_inanimate_cap	0	X	17	0	171	0		0	0	164.689832900011	164.789798100013
42350	0.0999866999918595	529	hunger	stimuli/non_foods\non-food_animate_seal.jpg	1	4	1	non-food_animate_seal	0	R	12	0	146	0		0	0	164.839810799982	164.939797499974
42387.5	0.0999845999758691	530	hunger	stimuli/foods\prawn.jpg	1	4	1	prawn	1	M	9	0	249	0		0	0	164.98981140001	165.089795999986
42425	0.0999861999880522	531	hunger	stimuli/foods\apricot.jpg	1	4	1	apricot	1	G	4	0	2	0		0	0	165.139803999977	165.239790199965
42462.5	0.0999881000025198	532	hunger	stimuli/foods\almonds.jpg	1	4	1	almonds	1	M	9	0	0	0		0	0	165.289807099965	165.389795199968
42500	0.0999855999834836	533	hunger	stimuli/foods\brussel_sprouts.jpg	1	4	1	brussel_sprouts	1	X	17	0	15	0		0	0	165.439801700006	165.539787299989
42537.5	0.0999868999933824	534	hunger	stimuli/foods\pomegranate.jpg	1	4	1	pomegranate	1	A	19	1	244	0		0	0	165.589801899972	165.689788799966
42574.75	0.100005500018597	535	hunger	stimuli/non_foods\non-food_animate_Causasian_man.jpg	1	4	1	non-food_animate_Causasian_man	0	M	9	0	89	0		0	0	165.739784899983	165.839790400001
42612.25	0.10001229995396	536	hunger	stimuli/non_foods\non-food_animate_frog.jpg	1	4	1	non-food_animate_frog	0	Z	18	0	113	0		0	0	165.889770500013	165.989782799967
42649.75	0.10000089998357	537	hunger	stimuli/non_foods\non-food_animate_deer.jpg	1	4	1	non-food_animate_deer	0	W	16	0	105	1	a	0.443154800042976	1	166.039794099983	166.139794999966
42687.5	0.0999420000007376	538	hunger	stimuli/foods\risotto_with_zucchini.jpg	1	4	1	risotto_with_zucchini	1	R	12	0	260	0		0	0	166.189837999991	166.289779999992
42724.75	0.0999864000477828	539	hunger	stimuli/non_foods\non-food_animate_cat.jpg	1	4	1	non-food_animate_cat	0	B	0	0	98	0		0	0	166.339792799961	166.439779200009
42762.25	0.0999682000256144	540	hunger	stimuli/non_foods\non-food_inanimate_couch.jpg	1	4	1	non-food_inanimate_couch	0	F	3	0	176	0		0	0	166.489793199988	166.589761400013
42799.75	0.100014899973758	541	hunger	stimuli/non_foods\non-food_inanimate_tulip.jpg	1	4	1	non-food_inanimate_tulip	0	H	5	0	224	0		0	0	166.639760099992	166.739774999965
42837.25	0.0999831999652088	542	hunger	stimuli/non_foods\non-food_animate_yellow_bug.jpg	1	4	1	non-food_animate_yellow_bug	0	M	9	0	155	0		0	0	166.789787899994	166.889771099959
42874.75	0.0999863999895751	543	hunger	stimuli/foods\peach.jpg	1	4	1	peach	1	C	1	0	238	0		0	0	166.939785299997	167.039771699987
42912.25	0.0999892000108957	544	hunger	stimuli/non_foods\non-food_animate_gorilla.jpg	1	4	1	non-food_animate_gorilla	0	N	10	0	116	0		0	0	167.089781799994	167.189771000005
42950	0.0999888000078499	545	hunger	stimuli/foods\red_beans.jpg	1	4	1	red_beans	1	F	3	0	255	0		0	0	167.239782599965	167.339771399973
42987.25	0.0999813000089489	546	hunger	stimuli/foods\cracker.jpg	1	4	1	cracker	1	N	10	0	38	0		0	0	167.389782599988	167.489763899997
43024.75	0.0999898000154644	547	hunger	stimuli/foods\cooked_ham.jpg	1	4	1	cooked_ham	1	F	3	0	35	0		0	0	167.539779599989	167.639769400004
43062.25	0.0999835000257008	548	hunger	stimuli/non_foods\non-food_inanimate_bush.jpg	1	4	1	non-food_inanimate_bush	0	S	13	0	167	0		0	0	167.689780599962	167.789764099987
43099.75	0.100015299976803	549	hunger	stimuli/foods\wafer.jpg	1	4	1	wafer	1	M	9	0	277	0		0	0	167.83977369999	167.939788999967
43137.5	0.099938600033056	550	hunger	stimuli/foods\ice_cream.jpg	1	4	1	ice_cream	1	K	7	0	68	0		0	0	167.989821699972	168.089760300005
43174.75	0.099985699984245	551	hunger	stimuli/non_foods\non-food_inanimate_alarm_clock.jpg	1	4	1	non-food_inanimate_alarm_clock	0	T	14	0	158	0		0	0	168.139773999981	168.239759699965
43212.25	0.099974500015378	552	hunger	stimuli/non_foods\non-food_animate_chicken.jpg	1	4	1	non-food_animate_chicken	0	V	15	0	101	0		0	0	168.289753999969	168.389728499984
43249.75	0.0999843999743462	553	hunger	stimuli/non_foods\non-food_animate_horse.jpg	1	4	1	non-food_animate_horse	0	F	3	0	119	0		0	0	168.439771400008	168.539755799982
43287.25	0.0999861999880522	554	hunger	stimuli/non_foods\non-food_inanimate_hay.jpg	1	4	1	non-food_inanimate_hay	0	J	6	0	187	0		0	0	168.589767700003	168.689753899991
43324.75	0.0999871999956667	555	hunger	stimuli/non_foods\non-food_animate_owl.jpg	1	4	1	non-food_animate_owl	0	T	14	0	132	0		0	0	168.739765700011	168.839752900007
43362.25	0.0999864000477828	556	hunger	stimuli/foods\chocolate_pralines.jpg	1	4	1	chocolate_pralines	1	L	8	0	28	0		0	0	168.889764599968	168.989751000016
43400	0.0999691999750212	557	hunger	stimuli/foods\red_cabbage.jpg	1	4	1	red_cabbage	1	W	16	0	256	0		0	0	169.039782600012	169.139751799987
43437.25	0.0999890000093728	558	hunger	stimuli/non_foods\non-food_animate_woman.jpg	1	4	1	non-food_animate_woman	0	L	8	0	154	0		0	0	169.189759799978	169.289748799987
43474.75	0.0999863999895751	559	hunger	stimuli/non_foods\non-food_animate_pigeon.jpg	1	4	1	non-food_animate_pigeon	0	M	9	0	136	0		0	0	169.339760900009	169.439747299999
43866.5	0.099979099992197	560	hunger	stimuli/foods\rockmelon.jpg	1	5	1	rockmelon	1	N	10	0	262	1	a	0	0	170.906416499987	171.006395599979
43904	0.0999825000180863	561	hunger	stimuli/non_foods\non-food_inanimate_bowling_ball.jpg	1	5	1	non-food_inanimate_bowling_ball	0	V	15	0	162	0		0	0	171.056406499993	171.156389000011
43941.5	0.0999505000072531	562	hunger	stimuli/non_foods\non-food_inanimate_broom.jpg	1	5	1	non-food_inanimate_broom	0	D	2	0	164	0		0	0	171.206430799968	171.306381299975
43979	0.0999814000097103	563	hunger	stimuli/non_foods\non-food_inanimate_tree.jpg	1	5	1	non-food_inanimate_tree	0	R	12	0	223	0		0	0	171.356405799976	171.456387199985
44016.5	0.0999818999553099	564	hunger	stimuli/foods\avocado.jpg	1	5	1	avocado	1	L	8	0	5	0		0	0	171.506407700013	171.606389599969
44054	0.0999744999571703	565	hunger	stimuli/foods\baked_cod_with_carrots_and_green_beans.jpg	1	5	1	baked_cod_with_carrots_and_green_beans	1	N	10	0	7	0		0	0	171.656403000001	171.756377499958
44091.5	0.099986000044737	566	hunger	stimuli/foods\waffle.jpg	1	5	1	waffle	1	J	6	0	278	0		0	0	171.806401999958	171.906388000003
44129	0.0999813000089489	567	hunger	stimuli/non_foods\non-food_animate_grasshopper.jpg	1	5	1	non-food_animate_grasshopper	0	S	13	0	117	0		0	0	171.956400199968	172.056381499977
44166.5	0.0999823999591172	568	hunger	stimuli/foods\kiwi.jpg	1	5	1	kiwi	1	C	1	0	69	0		0	0	172.106395100011	172.20637749997
44204	0.0999792999937199	569	hunger	stimuli/non_foods\non-food_animate_swan.jpg	1	5	1	non-food_animate_swan	0	X	17	0	152	0		0	0	172.256399000005	172.356378299999
44241.5	0.0999917999724858	570	hunger	stimuli/non_foods\non-food_animate_iguana.jpg	1	5	1	non-food_animate_iguana	0	G	4	0	121	0		0	0	172.406387800002	172.506379599974
44279	0.0999753000214696	571	hunger	stimuli/non_foods\non-food_inanimate_horn.jpg	1	5	1	non-food_inanimate_horn	0	M	9	0	190	0		0	0	172.556394399959	172.65636969998
44316.5	0.0999980999622494	572	hunger	stimuli/foods\peas.jpg	1	5	1	peas	1	A	19	1	240	0		0	0	172.70639050001	172.806388599973
44354	0.0999764000298455	573	hunger	stimuli/foods\raw_sausage.jpg	1	5	1	raw_sausage	1	H	5	0	254	0		0	0	172.856412899971	172.956389300001
44391.5	0.0999764000298455	574	hunger	stimuli/non_foods\non-food_inanimate_chair.jpg	1	5	1	non-food_inanimate_chair	0	G	4	0	172	0		0	0	173.00638799998	173.10636440001
44429	0.100009000045247	575	hunger	stimuli/non_foods\non-food_inanimate_soccer_ball.jpg	1	5	1	non-food_inanimate_soccer_ball	0	V	15	0	210	1	a	0.443225700000767	1	173.156367599964	173.256376600009
44466.5	0.100011000002269	576	hunger	stimuli/foods\frankfurter_and_provolone_salad.jpg	1	5	1	frankfurter_and_provolone_salad	1	T	14	0	49	0		0	0	173.306358699978	173.40636969998
44504	0.0999806000036187	577	hunger	stimuli/foods\lasagna.jpg	1	5	1	lasagna	1	C	1	0	71	0		0	0	173.456385099969	173.556365699973
44541.5	0.0999864999903366	578	hunger	stimuli/foods\fruit_flan.jpg	1	5	1	fruit_flan	1	V	15	0	53	0		0	0	173.6063784	173.70636489999
44579	0.0999810000066645	579	hunger	stimuli/non_foods\non-food_animate_runner.jpg	1	5	1	non-food_animate_runner	0	T	14	0	142	0		0	0	173.756381899992	173.856362899998
44616.5	0.0999853999819607	580	hunger	stimuli/foods\lamb_chops.jpg	1	5	1	lamb_chops	1	D	2	0	70	0		0	0	173.906378899992	174.006364299974
44654	0.099977099976968	581	hunger	stimuli/non_foods\non-food_inanimate_nailpolish.jpg	1	5	1	non-food_inanimate_nailpolish	0	W	16	0	195	0		0	0	174.056376599998	174.156353699975
44691.5	0.0999780999845825	582	hunger	stimuli/non_foods\non-food_inanimate_tent.jpg	1	5	1	non-food_inanimate_tent	0	C	1	0	219	0		0	0	174.206375900016	174.306354
44729	0.099988600006327	583	hunger	stimuli/non_foods\non-food_animate_seal.jpg	1	5	1	non-food_animate_seal	0	T	14	0	146	0		0	0	174.356368899986	174.456357499992
44766.5	0.0999980999622494	584	hunger	stimuli/foods\dates.jpg	1	5	1	dates	1	W	16	0	43	0		0	0	174.506360900006	174.606358999969
44804	0.0999310000333935	585	hunger	stimuli/non_foods\non-food_animate_rhino.jpg	1	5	1	non-food_animate_rhino	0	T	14	0	141	0		0	0	174.65641429997	174.756345300004
44841.5	0.0999888000078499	586	hunger	stimuli/non_foods\non-food_inanimate_watering_can.jpg	1	5	1	non-food_inanimate_watering_can	0	S	13	0	225	0		0	0	174.806369600003	174.906358400011
44879	0.0999845999758691	587	hunger	stimuli/foods\honey.jpg	1	5	1	honey	1	H	5	0	66	0		0	0	174.956367200008	175.056351799984
44916.5	0.0999896999564953	588	hunger	stimuli/non_foods\non-food_inanimate_gloves.jpg	1	5	1	non-food_inanimate_gloves	0	L	8	0	183	0		0	0	175.106364000007	175.206353699963
44954	0.0999639999936335	589	hunger	stimuli/non_foods\non-food_animate_student_female.jpg	1	5	1	non-food_animate_student_female	0	C	1	0	151	0		0	0	175.256361500011	175.356325500004
44991.5	0.0999814000097103	590	hunger	stimuli/non_foods\non-food_animate_sea_turtle.jpg	1	5	1	non-food_animate_sea_turtle	0	R	12	0	144	0		0	0	175.406362299982	175.506343699992
45029	0.0999877000576816	591	hunger	stimuli/foods\cherry.jpg	1	5	1	cherry	1	D	2	0	23	0		0	0	175.556356099958	175.656343800016
45066.5	0.0999900000169873	592	hunger	stimuli/non_foods\non-food_inanimate_tulip.jpg	1	5	1	non-food_inanimate_tulip	0	B	0	0	224	0		0	0	175.706332499976	175.806322499993
45104	0.0999837000272237	593	hunger	stimuli/non_foods\non-food_animate_squirrel.jpg	1	5	1	non-food_animate_squirrel	0	R	12	0	150	0		0	0	175.856357699959	175.956341399986
45141.5	0.0999878000002354	594	hunger	stimuli/foods\lime.jpg	1	5	1	lime	1	G	4	0	76	0		0	0	176.006352199998	176.106339999998
45179	0.0999852999811992	595	hunger	stimuli/non_foods\non-food_inanimate_construction_helment.jpg	1	5	1	non-food_inanimate_construction_helment	0	X	17	0	175	0		0	0	176.156354199979	176.25633949996
45216.5	0.0999713999917731	596	hunger	stimuli/foods\lemon_meringue_pie.jpg	1	5	1	lemon_meringue_pie	1	S	13	0	73	0		0	0	176.306350499974	176.406321899965
45254	0.0999375999672338	597	hunger	stimuli/non_foods\non-food_animate_baby_crawling.jpg	1	5	1	non-food_animate_baby_crawling	0	M	9	0	92	0		0	0	176.456396199996	176.556333799963
45291.5	0.0999834999674931	598	hunger	stimuli/foods\mushroom.jpg	1	5	1	mushroom	1	D	2	0	85	0		0	0	176.606349400012	176.706332899979
45329	0.0999843999743462	599	hunger	stimuli/foods\chestnut.jpg	1	5	1	chestnut	1	T	14	0	24	0		0	0	176.756343399989	176.856327799964
45366.5	0.0999841000302695	600	hunger	stimuli/non_foods\non-food_inanimate_suitcase.jpg	1	5	1	non-food_inanimate_suitcase	0	S	13	0	215	0		0	0	176.906345199968	177.006329299998
45404	0.0999853999819607	601	hunger	stimuli/foods\lollies.jpg	1	5	1	lollies	1	T	14	0	78	0		0	0	177.056340300012	177.156325699994
45441.5	0.0999868999933824	602	hunger	stimuli/foods\capsicum.jpg	1	5	1	capsicum	1	P	11	0	18	0		0	0	177.206340999983	177.306327899976
45479	0.0999841999728233	603	hunger	stimuli/foods\risotto_with_peas_and_asparagus_tips.jpg	1	5	1	risotto_with_peas_and_asparagus_tips	1	W	16	0	259	0		0	0	177.356340700004	177.456324899977
45516.5	0.0999701999826357	604	hunger	stimuli/non_foods\non-food_inanimate_leaf.jpg	1	5	1	non-food_inanimate_leaf	0	N	10	0	192	0		0	0	177.506353600009	177.606323799992
45554	0.0999769999762066	605	hunger	stimuli/foods\watermelon.jpg	1	5	1	watermelon	1	D	2	0	279	0		0	0	177.656347699987	177.756324699963
45591.5	0.0999867999926209	606	hunger	stimuli/foods\toasted_bread_with_tomatoes.jpg	1	5	1	toasted_bread_with_tomatoes	1	F	3	0	275	0		0	0	177.806332200009	177.906319000002
45629	0.0999838000279851	607	hunger	stimuli/foods\asparagus.jpg	1	5	1	asparagus	1	T	14	0	4	0		0	0	177.956332799979	178.056316600007
45666.5	0.100036999967415	608	hunger	stimuli/non_foods\non-food_inanimate_nest.jpg	1	5	1	non-food_inanimate_nest	0	K	7	0	196	0		0	0	178.106326000008	178.206362999976
45704	0.0999542999779806	609	hunger	stimuli/foods\gnocchi.jpg	1	5	1	gnocchi	1	N	10	0	58	0		0	0	178.25635370001	178.356307999988
45741.5	0.0999902000185102	610	hunger	stimuli/foods\spaghetti_with_meat_sauce.jpg	1	5	1	spaghetti_with_meat_sauce	1	Z	18	0	267	0		0	0	178.406325899996	178.506316100014
45779	0.0999842000310309	611	hunger	stimuli/foods\red_beans.jpg	1	5	1	red_beans	1	X	17	0	255	0		0	0	178.556328199978	178.656312400009
45816.5	0.0999869999941438	612	hunger	stimuli/non_foods\non-food_inanimate_lighter.jpg	1	5	1	non-food_inanimate_lighter	0	S	13	0	193	0		0	0	178.706320900004	178.806307899999
45854	0.099987699999474	613	hunger	stimuli/non_foods\non-food_inanimate_toilet.jpg	1	5	1	non-food_inanimate_toilet	0	D	2	0	220	0		0	0	178.856321999978	178.956309699977
45891.5	0.0999853999819607	614	hunger	stimuli/non_foods\non-food_animate_peacock.jpg	1	5	1	non-food_animate_peacock	0	J	6	0	134	0		0	0	179.006318999978	179.10630439996
45929	0.0999889000086114	615	hunger	stimuli/foods\pasta_carbonara.jpg	1	5	1	pasta_carbonara	1	T	14	0	236	0		0	0	179.156316899986	179.256305799994
45966.5	0.0999795999960043	616	hunger	stimuli/non_foods\non-food_animate_butterfly.jpg	1	5	1	non-food_animate_butterfly	0	J	6	0	96	0		0	0	179.306322499993	179.406302099989
46004	0.0999861000454985	617	hunger	stimuli/foods\tomato.jpg	1	5	1	tomato	1	P	11	0	276	0		0	0	179.456316199969	179.556302300014
46041.5	0.099984799977392	618	hunger	stimuli/non_foods\non-food_inanimate_canoe.jpg	1	5	1	non-food_inanimate_canoe	0	K	7	0	170	0		0	0	179.606315099983	179.706299899961
46079	0.0999874999979511	619	hunger	stimuli/foods\blackberry.jpg	1	5	1	blackberry	1	C	1	0	11	0		0	0	179.756310099969	179.856297599967
46116.5	0.10000969999237	620	hunger	stimuli/non_foods\non-food_animate_ladybug.jpg	1	5	1	non-food_animate_ladybug	0	P	11	0	124	0		0	0	179.906317199988	180.00632689998
46154	0.0999674999620765	621	hunger	stimuli/non_foods\non-food_inanimate_skirt.jpg	1	5	1	non-food_inanimate_skirt	0	R	12	0	209	0		0	0	180.056324100005	180.156291599968
46191.5	0.0999870999949053	622	hunger	stimuli/foods\pumpkin.jpg	1	5	1	pumpkin	1	K	7	0	250	0		0	0	180.206306000007	180.306293100002
46229	0.0999807000043802	623	hunger	stimuli/foods\garlic.jpg	1	5	1	garlic	1	R	12	0	56	0		0	0	180.356308399991	180.456289099995
46266.5	0.0999839999713004	624	hunger	stimuli/non_foods\non-food_inanimate_bamboo.jpg	1	5	1	non-food_inanimate_bamboo	0	H	5	0	159	0		0	0	180.506298399996	180.606282399967
46304	0.0999766999739222	625	hunger	stimuli/foods\brownie.jpg	1	5	1	brownie	1	G	4	0	14	0		0	0	180.656296900008	180.756273599982
46341.5	0.100005900021642	626	hunger	stimuli/foods\pepperoni_pizza.jpg	1	5	1	pepperoni_pizza	1	R	12	0	241	0		0	0	180.806283099984	180.906289000006
46379	0.0999837000272237	627	hunger	stimuli/foods\green_beans.jpg	1	5	1	green_beans	1	K	7	0	61	0		0	0	180.956302799983	181.05628650001
46416.5	0.0999788999906741	628	hunger	stimuli/foods\grapes.jpg	1	5	1	grapes	1	V	15	0	60	0		0	0	181.106299999985	181.206278899976
46454	0.0999823000165634	629	hunger	stimuli/foods\apricot.jpg	1	5	1	apricot	1	C	1	0	2	0		0	0	181.256289299985	181.356271600001
46491.5	0.0999842999735847	630	hunger	stimuli/foods\oven-roasted_tomatoes.jpg	1	5	1	oven-roasted_tomatoes	1	D	2	0	232	0		0	0	181.406287799997	181.50627209997
46529	0.0999899000162259	631	hunger	stimuli/foods\raw_ham.jpg	1	5	1	raw_ham	1	W	16	0	253	0		0	0	181.556289199973	181.656279099989
46566.5	0.0999516000156291	632	hunger	stimuli/non_foods\non-food_animate_young_girl.jpg	1	5	1	non-food_animate_young_girl	0	T	14	0	157	0		0	0	181.706317599979	181.806269199995
46604	0.0999754999647848	633	hunger	stimuli/non_foods\non-food_inanimate_padlock.jpg	1	5	1	non-food_inanimate_padlock	0	P	11	0	199	0		0	0	181.856302100001	181.956277599966
46641.5	0.0999603999662213	634	hunger	stimuli/non_foods\non-food_animate_dolphin.jpg	1	5	1	non-food_animate_dolphin	0	W	16	0	106	0		0	0	182.006292300008	182.106252699974
46679	0.0999871999956667	635	hunger	stimuli/non_foods\non-food_animate_killer_whale.jpg	1	5	1	non-food_animate_killer_whale	0	V	15	0	123	0		0	0	182.156279899995	182.256267099991
46716.5	0.0999809000059031	636	hunger	stimuli/foods\mortadella.jpg	1	5	1	mortadella	1	S	13	0	83	0		0	0	182.306283199985	182.406264099991
46754	0.0999842999735847	637	hunger	stimuli/non_foods\non-food_inanimate_cactus_pot_plant.jpg	1	5	1	non-food_inanimate_cactus_pot_plant	0	L	8	0	169	0		0	0	182.45627580001	182.556260099984
46791.5	0.0999817000119947	638	hunger	stimuli/foods\risotto_with_zucchini.jpg	1	5	1	risotto_with_zucchini	1	A	19	1	260	0		0	0	182.606276299979	182.706257999991
46829	0.0999814000097103	639	hunger	stimuli/foods\grilled_chicken_breast.jpg	1	5	1	grilled_chicken_breast	1	G	4	0	63	0		0	0	182.75627469999	182.8562561
46866.5	0.0999799999990501	640	hunger	stimuli/foods\fried_calamari.jpg	1	5	1	fried_calamari	1	B	0	0	50	0		0	0	182.906292999978	183.006272999977
46904	0.0999896000139415	641	hunger	stimuli/foods\salmon.jpg	1	5	1	salmon	1	K	7	0	264	1	a	0.54182209999999	1	183.05627229996	183.156261899974
46941.5	0.0999832000234164	642	hunger	stimuli/non_foods\non-food_inanimate_headphones.jpg	1	5	1	non-food_inanimate_headphones	0	D	2	0	188	0		0	0	183.206268899958	183.306252099981
46979	0.0999867999926209	643	hunger	stimuli/non_foods\non-food_inanimate_couch.jpg	1	5	1	non-food_inanimate_couch	0	W	16	0	176	0		0	0	183.356282099965	183.456268899958
47016.5	0.0999859999865294	644	hunger	stimuli/foods\broccoli.jpg	1	5	1	broccoli	1	F	3	0	13	0		0	0	183.506269200006	183.606255199993
47054	0.0999858000432141	645	hunger	stimuli/non_foods\non-food_inanimate_button.jpg	1	5	1	non-food_inanimate_button	0	H	5	0	168	0		0	0	183.65626769996	183.756253500003
47091.5	0.0999819999560714	646	hunger	stimuli/foods\fruit_salad.jpg	1	5	1	fruit_salad	1	L	8	0	55	0		0	0	183.806271000009	183.906252999965
47129	0.100002699997276	647	hunger	stimuli/foods\potatoes.jpg	1	5	1	potatoes	1	B	0	0	248	0		0	0	183.956240199972	184.056242899969
47166.5	0.0999869000515901	648	hunger	stimuli/foods\cauliflower.jpg	1	5	1	cauliflower	1	R	12	0	20	0		0	0	184.106258899963	184.206245800015
47204	0.0999959000037052	649	hunger	stimuli/non_foods\non-food_animate_german_shepherd.jpg	1	5	1	non-food_animate_german_shepherd	0	S	13	0	114	0		0	0	184.256257899979	184.356253799982
