onset	duration	eventnumber	hunger_condition	stimfilename	blockno	trialno	is_faststream	stim	food_idx	letter	letter_idx	istarget	image_number	response	keypressed	rt	correct	time_stimon	time_stimoff
18341.75	0.0999747999885585	0	satiated	stimuli/foods\mussels.jpg	1	1	1	mussels	1	N	10	0	86	0		0	0	84.8962597000063	84.9962344999949
18379.25	0.100039999990258	1	satiated	stimuli/foods\fries.jpg	1	1	1	fries	1	H	5	0	52	0		0	0	85.0462493000086	85.1462892999989
18416.75	0.0999896000139415	2	satiated	stimuli/non_foods\non-food_inanimate_stapler.jpg	1	1	1	non-food_inanimate_stapler	0	S	13	0	213	0		0	0	85.1962438999908	85.2962335000047
18454.25	0.0999837999988813	3	satiated	stimuli/non_foods\non-food_inanimate_wrench.jpg	1	1	1	non-food_inanimate_wrench	0	Z	18	0	227	0		0	0	85.3462466000055	85.4462304000044
18491.75	0.0999872999964282	4	satiated	stimuli/non_foods\non-food_inanimate_toy_airplane.jpg	1	1	1	non-food_inanimate_toy_airplane	0	N	10	0	222	0		0	0	85.4962457999936	85.5962330999901
18529.25	0.0999808000051416	5	satiated	stimuli/foods\grapes.jpg	1	1	1	grapes	1	T	14	0	60	0		0	0	85.6462446000078	85.7462254000129
18566.75	0.0999814000097103	6	satiated	stimuli/foods\brownie.jpg	1	1	1	brownie	1	F	3	0	14	0		0	0	85.7962429999898	85.8962243999995
18604.25	0.10000740000396	7	satiated	stimuli/non_foods\non-food_animate_skunk.jpg	1	1	1	non-food_animate_skunk	0	D	2	0	147	0		0	0	85.9462501000089	86.0462575000129
18641.75	0.0999549000116531	8	satiated	stimuli/foods\pear.jpg	1	1	1	pear	1	F	3	0	239	0		0	0	86.0962683999969	86.1962233000086
18679.25	0.0999851000087801	9	satiated	stimuli/non_foods\non-food_animate_owl.jpg	1	1	1	non-food_animate_owl	0	X	17	0	132	0		0	0	86.2462384999963	86.346223600005
18716.75	0.099985699984245	10	satiated	stimuli/non_foods\non-food_inanimate_speakers.jpg	1	1	1	non-food_inanimate_speakers	0	L	8	0	212	0		0	0	86.3962371000089	86.4962227999931
18754.25	0.0999845000042114	11	satiated	stimuli/non_foods\non-food_animate_squirrel.jpg	1	1	1	non-food_animate_squirrel	0	H	5	0	150	0		0	0	86.5462374000053	86.6462219000096
18791.75	0.0999826999905054	12	satiated	stimuli/non_foods\non-food_inanimate_leaf.jpg	1	1	1	non-food_inanimate_leaf	0	B	0	0	192	0		0	0	86.6962370999972	86.7962197999877
18829.5	0.099697700003162	13	satiated	stimuli/non_foods\non-food_inanimate_socks.jpg	1	1	1	non-food_inanimate_socks	0	P	11	0	211	0		0	0	86.8465148000105	86.9462125000136
18866.75	0.0999807000043802	14	satiated	stimuli/foods\capsicum.jpg	1	1	1	capsicum	1	Z	18	0	18	0		0	0	86.9962345999957	87.0962153
18904.25	0.0999748000176623	15	satiated	stimuli/non_foods\non-food_animate_iguana.jpg	1	1	1	non-food_animate_iguana	0	G	4	0	121	0		0	0	87.1462388999935	87.2462137000111
18941.75	0.0999850999796763	16	satiated	stimuli/non_foods\non-food_animate_sea_turtle.jpg	1	1	1	non-food_animate_sea_turtle	0	P	11	0	144	0		0	0	87.2962304000102	87.3962154999899
18979.25	0.0999990999989677	17	satiated	stimuli/foods\lemon.jpg	1	1	1	lemon	1	Z	18	0	72	0		0	0	87.4462175999943	87.5462166999932
19016.75	0.099997200013604	18	satiated	stimuli/foods\lasagna.jpg	1	1	1	lasagna	1	X	17	0	71	0		0	0	87.5962294999918	87.6962267000054
19054.25	0.0999821000150405	19	satiated	stimuli/foods\green_olives.jpg	1	1	1	green_olives	1	T	14	0	62	0		0	0	87.7462462999974	87.8462284000125
19091.75	0.0999564999947324	20	satiated	stimuli/non_foods\non-food_inanimate_couch.jpg	1	1	1	non-food_inanimate_couch	0	D	2	0	176	0		0	0	87.8962509999983	87.996207499993
19129.25	0.0999863999895751	21	satiated	stimuli/foods\banana.jpg	1	1	1	banana	1	N	10	0	9	0		0	0	88.0462231000129	88.1462095000024
19166.75	0.0999813000089489	22	satiated	stimuli/non_foods\non-food_animate_german_shepherd.jpg	1	1	1	non-food_animate_german_shepherd	0	H	5	0	114	0		0	0	88.1962250999932	88.2962064000021
19204.25	0.0999848999781534	23	satiated	stimuli/non_foods\non-food_inanimate_skateboard.jpg	1	1	1	non-food_inanimate_skateboard	0	T	14	0	208	0		0	0	88.3462204000098	88.4462052999879
19241.75	0.0999878000002354	24	satiated	stimuli/non_foods\non-food_inanimate_clover.jpg	1	1	1	non-food_inanimate_clover	0	N	10	0	174	0		0	0	88.4962183999887	88.596206199989
19279.25	0.0999845000042114	25	satiated	stimuli/non_foods\non-food_inanimate_waterlily.jpg	1	1	1	non-food_inanimate_waterlily	0	V	15	0	226	0		0	0	88.6462201999966	88.7462047000008
19316.75	0.100008100009291	26	satiated	stimuli/non_foods\non-food_inanimate_towel.jpg	1	1	1	non-food_inanimate_towel	0	S	13	0	221	0		0	0	88.7962096999981	88.8962178000074
19354.25	0.0999691000033636	27	satiated	stimuli/foods\cooked_ham.jpg	1	1	1	cooked_ham	1	D	2	0	35	0		0	0	88.9462304000044	89.0461995000078
19391.75	0.0999841000011656	28	satiated	stimuli/non_foods\non-food_inanimate_guitar.jpg	1	1	1	non-food_inanimate_guitar	0	V	15	0	185	0		0	0	89.0962143999932	89.1961984999944
19429.25	0.0999794000235852	29	satiated	stimuli/non_foods\non-food_animate_butterfly.jpg	1	1	1	non-food_animate_butterfly	0	W	16	0	96	1	a	0	0	89.2462184999895	89.3461979000131
19466.75	0.0999965000082739	30	satiated	stimuli/foods\rice_cake.jpg	1	1	1	rice_cake	1	V	15	0	258	0		0	0	89.396216299996	89.4962128000043
19504.25	0.0999438000144437	31	satiated	stimuli/non_foods\non-food_inanimate_tree.jpg	1	1	1	non-food_inanimate_tree	0	S	13	0	223	0		0	0	89.5462239999906	89.6461678000051
19541.75	0.0999625999829732	32	satiated	stimuli/foods\brussel_sprouts.jpg	1	1	1	brussel_sprouts	1	Z	18	0	15	0		0	0	89.6962240000139	89.7961865999969
19579.25	0.0999963999784086	33	satiated	stimuli/foods\fennel.jpg	1	1	1	fennel	1	L	8	0	47	0		0	0	89.8462092000118	89.9462055999902
19616.75	0.09998440000345	34	satiated	stimuli/foods\mango.jpg	1	1	1	mango	1	M	9	0	80	0		0	0	89.9962067999877	90.0961911999912
19654.25	0.0999960000044666	35	satiated	stimuli/foods\raw_ham.jpg	1	1	1	raw_ham	1	T	14	0	253	0		0	0	90.1461947000062	90.2461907000106
19691.75	0.0999841000011656	36	satiated	stimuli/foods\cracker.jpg	1	1	1	cracker	1	G	4	0	38	0		0	0	90.2962021999992	90.3961863000004
19729.25	0.0999885000055656	37	satiated	stimuli/non_foods\non-food_inanimate_sun_flower.jpg	1	1	1	non-food_inanimate_sun_flower	0	Z	18	0	216	0		0	0	90.4461991999997	90.5461877000052
19766.75	0.100003800005652	38	satiated	stimuli/foods\gnocchi.jpg	1	1	1	gnocchi	1	S	13	0	58	0		0	0	90.5962045000051	90.6962083000108
19804.25	0.100012099981541	39	satiated	stimuli/non_foods\non-food_animate_monkey.jpg	1	1	1	non-food_animate_monkey	0	Z	18	0	130	0		0	0	90.7461716000107	90.8461836999923
19841.75	0.0999876000278164	40	satiated	stimuli/non_foods\non-food_animate_seal.jpg	1	1	1	non-food_animate_seal	0	N	10	0	146	0		0	0	90.8961958999862	90.996183500014
19879.25	0.0999804000020958	41	satiated	stimuli/foods\apple.jpg	1	1	1	apple	1	R	12	0	1	0		0	0	91.0461979999964	91.1461783999985
19916.75	0.100007900007768	42	satiated	stimuli/non_foods\non-food_animate_peacock.jpg	1	1	1	non-food_animate_peacock	0	X	17	0	134	0		0	0	91.1961960000044	91.2962039000122
19954.25	0.0999880000017583	43	satiated	stimuli/foods\peach.jpg	1	1	1	peach	1	D	2	0	238	0		0	0	91.3461913999927	91.4461793999944
19991.75	0.0999838999996427	44	satiated	stimuli/non_foods\non-food_inanimate_bucket.jpg	1	1	1	non-food_inanimate_bucket	0	U	23	1	165	0		0	0	91.4961946000112	91.5961785000109
20029.25	0.099985300010303	45	satiated	stimuli/foods\omelette.jpg	1	1	1	omelette	1	W	16	0	228	0		0	0	91.6461940000008	91.7461793000111
20066.75	0.0999934999854304	46	satiated	stimuli/non_foods\non-food_inanimate_cupboard.jpg	1	1	1	non-food_inanimate_cupboard	0	R	12	0	177	0		0	0	91.7961912000028	91.8961846999882
20104.25	0.100011999980779	47	satiated	stimuli/foods\artichoke.jpg	1	1	1	artichoke	1	L	8	0	3	0		0	0	91.9461625000113	92.046174499992
20141.75	0.099996300006751	48	satiated	stimuli/foods\broccoli.jpg	1	1	1	broccoli	1	N	10	0	13	0		0	0	92.0961879999959	92.1961843000026
20179.25	0.0999800999998115	49	satiated	stimuli/non_foods\non-food_animate_student_female.jpg	1	1	1	non-food_animate_student_female	0	F	3	0	151	0		0	0	92.2461871000123	92.3461672000121
20216.75	0.0999620000075083	50	satiated	stimuli/foods\oregano.jpg	1	1	1	oregano	1	W	16	0	231	0		0	0	92.396207599988	92.4961695999955
20254.25	0.0999923000053968	51	satiated	stimuli/non_foods\non-food_inanimate_table.jpg	1	1	1	non-food_inanimate_table	0	D	2	0	217	0		0	0	92.5461757000012	92.6461680000066
20291.75	0.0999891000101343	52	satiated	stimuli/non_foods\non-food_animate_seahorse.jpg	1	1	1	non-food_animate_seahorse	0	B	0	0	145	0		0	0	92.6961792999937	92.7961684000038
20329.25	0.0999746999877971	53	satiated	stimuli/foods\brie.jpg	1	1	1	brie	1	W	16	0	12	1	a	1.44186799999443	1	92.8461848000006	92.9461594999884
20366.75	0.100002899998799	54	satiated	stimuli/foods\bagel.jpg	1	1	1	bagel	1	S	13	0	6	0		0	0	92.9961706000031	93.0961735000019
20404.25	0.0999732000054792	55	satiated	stimuli/non_foods\non-food_inanimate_headphones.jpg	1	1	1	non-food_inanimate_headphones	0	G	4	0	188	0		0	0	93.1461720000079	93.2461452000134
20441.75	0.100003100000322	56	satiated	stimuli/foods\orange.jpg	1	1	1	orange	1	P	11	0	230	0		0	0	93.296156299999	93.3961593999993
20479.25	0.0999796999967657	57	satiated	stimuli/non_foods\non-food_inanimate_nailpolish.jpg	1	1	1	non-food_inanimate_nailpolish	0	F	3	0	195	0		0	0	93.4461793999944	93.5461590999912
20516.75	0.0999848000064958	58	satiated	stimuli/non_foods\non-food_inanimate_button.jpg	1	1	1	non-food_inanimate_button	0	G	4	0	168	0		0	0	93.5961740000057	93.6961588000122
20554.25	0.099978199985344	59	satiated	stimuli/foods\egg.jpg	1	1	1	egg	1	A	19	1	45	0		0	0	93.7461745000037	93.846152699989
20591.75	0.0999820999859367	60	satiated	stimuli/non_foods\non-food_inanimate_cap.jpg	1	1	1	non-food_inanimate_cap	0	T	14	0	171	0		0	0	93.8961652000144	93.9961473000003
20629.25	0.100000700011151	61	satiated	stimuli/foods\pumpkin.jpg	1	1	1	pumpkin	1	K	7	0	250	0		0	0	94.046154599986	94.1461552999972
20666.75	0.0999608999991324	62	satiated	stimuli/foods\almonds.jpg	1	1	1	almonds	1	J	6	0	0	0		0	0	94.1961914999993	94.2961523999984
20704.25	0.0999818000127561	63	satiated	stimuli/foods\garlic.jpg	1	1	1	garlic	1	D	2	0	56	0		0	0	94.346171799989	94.4461536000017
20741.75	0.0999860999872908	64	satiated	stimuli/foods\cannoli.jpg	1	1	1	cannoli	1	C	1	0	17	0		0	0	94.4961642000126	94.5961502999999
20779.25	0.0999813999806065	65	satiated	stimuli/foods\risotto_with_peas_and_asparagus_tips.jpg	1	1	1	risotto_with_peas_and_asparagus_tips	1	H	5	0	259	0		0	0	94.6461684000096	94.7461497999902
20816.75	0.0999937999877147	66	satiated	stimuli/non_foods\non-food_inanimate_tulip.jpg	1	1	1	non-food_inanimate_tulip	0	F	3	0	224	0		0	0	94.7961658000131	94.8961596000008
20854.25	0.0999550999840721	67	satiated	stimuli/foods\rice.jpg	1	1	1	rice	1	T	14	0	257	0		0	0	94.9461890000093	95.0461440999934
20891.75	0.0999867000209633	68	satiated	stimuli/non_foods\non-food_inanimate_suitcase.jpg	1	1	1	non-food_inanimate_suitcase	0	C	1	0	215	0		0	0	95.0961599999864	95.1961467000074
20929.25	0.0999814000097103	69	satiated	stimuli/non_foods\non-food_inanimate_pine_cone.jpg	1	1	1	non-food_inanimate_pine_cone	0	V	15	0	200	0		0	0	95.2461615999928	95.3461430000025
20966.75	0.0999819000135176	70	satiated	stimuli/foods\lemon_meringue_pie.jpg	1	1	1	lemon_meringue_pie	1	M	9	0	73	0		0	0	95.3961621999915	95.496144100005
21004.25	0.0999742999847513	71	satiated	stimuli/non_foods\non-food_animate_gorilla.jpg	1	1	1	non-food_animate_gorilla	0	V	15	0	116	0		0	0	95.5461685000046	95.6461427999893
21041.75	0.0999859999865294	72	satiated	stimuli/non_foods\non-food_inanimate_chandelier.jpg	1	1	1	non-food_inanimate_chandelier	0	P	11	0	173	0		0	0	95.6961544000078	95.7961403999943
21079.25	0.0999809000059031	73	satiated	stimuli/foods\risotto_with_zucchini.jpg	1	1	1	risotto_with_zucchini	1	V	15	0	260	0		0	0	95.8461528999906	95.9461337999965
21116.75	0.0999367999902461	74	satiated	stimuli/non_foods\non-food_animate_kangaroo.jpg	1	1	1	non-food_animate_kangaroo	0	L	8	0	122	0		0	0	95.9961812999973	96.0961180999875
21154.25	0.0999891000101343	75	satiated	stimuli/foods\papaya.jpg	1	1	1	papaya	1	N	10	0	235	0		0	0	96.1461502999882	96.2461393999984
21191.75	0.0999871999956667	76	satiated	stimuli/foods\cooked_prawn.jpg	1	1	1	cooked_prawn	1	P	11	0	36	0		0	0	96.2961502000107	96.3961374000064
21229.25	0.0999834999965969	77	satiated	stimuli/non_foods\non-food_animate_horse.jpg	1	1	1	non-food_animate_horse	0	L	8	0	119	0		0	0	96.4461499000026	96.5461333999992
21266.75	0.0999685999995563	78	satiated	stimuli/foods\lettuce.jpg	1	1	1	lettuce	1	D	2	0	75	0		0	0	96.5961550000065	96.6961236000061
21304.25	0.0999697000079323	79	satiated	stimuli/non_foods\non-food_animate_ladybug.jpg	1	1	1	non-food_animate_ladybug	0	Z	18	0	124	0		0	0	96.7461517000047	96.8461214000126
21341.75	0.0999857999850065	80	satiated	stimuli/foods\pomegranate.jpg	1	1	1	pomegranate	1	M	9	0	244	0		0	0	96.8961375000072	96.9961232999922
21379.25	0.0999952999991365	81	satiated	stimuli/foods\donut.jpg	1	1	1	donut	1	R	12	0	44	0		0	0	97.0461371999991	97.1461324999982
21416.75	0.0999991999997292	82	satiated	stimuli/non_foods\non-food_animate_fox.jpg	1	1	1	non-food_animate_fox	0	B	0	0	112	0		0	0	97.1961283000128	97.2961275000125
21454.25	0.0999837999988813	83	satiated	stimuli/foods\apricot.jpg	1	1	1	apricot	1	S	13	0	2	0		0	0	97.3461411999888	97.4461249999877
21491.75	0.0999917000008281	84	satiated	stimuli/non_foods\non-food_inanimate_nest.jpg	1	1	1	non-food_inanimate_nest	0	T	14	0	196	0		0	0	97.496134999994	97.5961266999948
21529.25	0.0999855000118259	85	satiated	stimuli/foods\oyster.jpg	1	1	1	oyster	1	N	10	0	233	0		0	0	97.6461401999986	97.7461257000105
21566.75	0.099997599987546	86	satiated	stimuli/non_foods\non-food_inanimate_toilet.jpg	1	1	1	non-food_inanimate_toilet	0	W	16	0	220	0		0	0	97.7961388000112	97.8961363999988
21604.25	0.0999912999977823	87	satiated	stimuli/foods\hotdog.jpg	1	1	1	hotdog	1	J	6	0	67	0		0	0	97.9461333999934	98.0461246999912
21641.75	0.0999837999988813	88	satiated	stimuli/non_foods\non-food_animate_tortoise.jpg	1	1	1	non-food_animate_tortoise	0	S	13	0	153	0		0	0	98.0961336999899	98.1961174999888
21679.25	0.0999854999827221	89	satiated	stimuli/non_foods\non-food_animate_killer_whale.jpg	1	1	1	non-food_animate_killer_whale	0	J	6	0	123	0		0	0	98.2461337000132	98.3461191999959
21716.75	0.0999825999897439	90	satiated	stimuli/foods\lamb_chops.jpg	1	1	1	lamb_chops	1	G	4	0	70	0		0	0	98.3961488000059	98.4961313999956
21754.25	0.0999590000137687	91	satiated	stimuli/foods\minestrone_soup.jpg	1	1	1	minestrone_soup	1	Z	18	0	82	0		0	0	98.5461506999854	98.6461096999992
21791.75	0.0999847000057343	92	satiated	stimuli/foods\strawberry.jpg	1	1	1	strawberry	1	S	13	0	272	0		0	0	98.6961309000035	98.7961156000092
21829.25	0.0999788999906741	93	satiated	stimuli/foods\figs.jpg	1	1	1	figs	1	H	5	0	48	0		0	0	98.8461313000007	98.9461101999914
21866.75	0.0999854999827221	94	satiated	stimuli/foods\chocolate_pudding.jpg	1	1	1	chocolate_pudding	1	T	14	0	29	0		0	0	98.9961248000036	99.0961102999863
21904.25	0.0999854999827221	95	satiated	stimuli/non_foods\non-food_inanimate_bamboo.jpg	1	1	1	non-food_inanimate_bamboo	0	J	6	0	159	0		0	0	99.146126800013	99.2461122999957
21941.75	0.0999888000078499	96	satiated	stimuli/foods\cauliflower.jpg	1	1	1	cauliflower	1	Z	18	0	20	0		0	0	99.2961188000045	99.3961076000123
21979.25	0.100004099978833	97	satiated	stimuli/foods\oven-roasted_tomatoes.jpg	1	1	1	oven-roasted_tomatoes	1	S	13	0	232	0		0	0	99.4461239000084	99.5461279999872
22016.75	0.0999699999811128	98	satiated	stimuli/non_foods\non-food_animate_dachshund.jpg	1	1	1	non-food_animate_dachshund	0	L	8	0	104	0		0	0	99.5961364000104	99.6961063999915
22054.25	0.0999757000245154	99	satiated	stimuli/foods\celery.jpg	1	1	1	celery	1	P	11	0	21	0		0	0	99.7461189999885	99.8460947000131
22091.75	0.0999833999958355	100	satiated	stimuli/non_foods\non-food_inanimate_bed.jpg	1	1	1	non-food_inanimate_bed	0	V	15	0	160	0		0	0	99.8961215000018	99.9961048999976
22129.25	0.0999962000059895	101	satiated	stimuli/non_foods\non-food_animate_Causasian_man.jpg	1	1	1	non-food_animate_Causasian_man	0	C	1	0	89	0		0	0	100.046109899995	100.146106100001
22166.75	0.0999566999962553	102	satiated	stimuli/foods\pea_pod.jpg	1	1	1	pea_pod	1	A	19	1	237	0		0	0	100.19614710001	100.296103800007
22204.25	0.0999729999748524	103	satiated	stimuli/non_foods\non-food_inanimate_short_sleeved_shirt.jpg	1	1	1	non-food_inanimate_short_sleeved_shirt	0	V	15	0	207	0		0	0	100.346129000012	100.446101999987
22241.75	0.0999821000150405	104	satiated	stimuli/foods\spring_onions.jpg	1	1	1	spring_onions	1	R	12	0	269	1	a	0.301725299999816	1	100.496115099988	100.596097200003
22279.25	0.0999854999827221	105	satiated	stimuli/non_foods\non-food_inanimate_orchid.jpg	1	1	1	non-food_inanimate_orchid	0	M	9	0	198	0		0	0	100.646114300005	100.746099799988
22316.75	0.0999861999880522	106	satiated	stimuli/foods\nectarine.jpg	1	1	1	nectarine	1	R	12	0	87	0		0	0	100.796110399999	100.896096599987
22354.25	0.0999841000011656	107	satiated	stimuli/non_foods\non-food_animate_runner.jpg	1	1	1	non-food_animate_runner	0	M	9	0	142	0		0	0	100.946110999997	101.046095099999
22391.75	0.0999804999737535	108	satiated	stimuli/non_foods\non-food_inanimate_moss.jpg	1	1	1	non-food_inanimate_moss	0	J	6	0	194	0		0	0	101.096109900012	101.196090399986
22429.25	0.0999934000137728	109	satiated	stimuli/foods\corncob.jpg	1	1	1	corncob	1	N	10	0	37	0		0	0	101.246109	101.346102400013
22466.75	0.0999714000208769	110	satiated	stimuli/non_foods\non-food_animate_lion.jpg	1	1	1	non-food_animate_lion	0	C	1	0	125	0		0	0	101.396115599986	101.496087000007
22504.25	0.0999811999790836	111	satiated	stimuli/non_foods\non-food_inanimate_hammer.jpg	1	1	1	non-food_inanimate_hammer	0	N	10	0	186	0		0	0	101.546104600013	101.646085799992
22541.75	0.0999874999979511	112	satiated	stimuli/non_foods\non-food_inanimate_skirt.jpg	1	1	1	non-food_inanimate_skirt	0	W	16	0	209	0		0	0	101.696102299989	101.796089799987
22579.25	0.100000099977478	113	satiated	stimuli/non_foods\non-food_animate_dolphin.jpg	1	1	1	non-food_animate_dolphin	0	K	7	0	106	0		0	0	101.846102200012	101.946102299989
22616.75	0.0999691000033636	114	satiated	stimuli/foods\steak.jpg	1	1	1	steak	1	W	16	0	270	0		0	0	101.99611040001	102.096079500014
22654.25	0.0999931000114884	115	satiated	stimuli/non_foods\non-food_inanimate_lighter.jpg	1	1	1	non-food_inanimate_lighter	0	S	13	0	193	0		0	0	102.1460907	102.246083800012
22691.75	0.0999818000127561	116	satiated	stimuli/non_foods\non-food_inanimate_teddy_bear.jpg	1	1	1	non-food_inanimate_teddy_bear	0	H	5	0	218	0		0	0	102.29609019999	102.396072000003
22729.25	0.099998499994399	117	satiated	stimuli/non_foods\non-food_animate_llama.jpg	1	1	1	non-food_animate_llama	0	W	16	0	127	0		0	0	102.446095899999	102.546094399993
22766.75	0.0999864999903366	118	satiated	stimuli/non_foods\non-food_inanimate_drum_set.jpg	1	1	1	non-food_inanimate_drum_set	0	H	5	0	179	0		0	0	102.596093900007	102.696080399997
22804.25	0.0999840000004042	119	satiated	stimuli/non_foods\non-food_inanimate_ring.jpg	1	1	1	non-food_inanimate_ring	0	F	3	0	203	0		0	0	102.746094800008	102.846078800008
22841.75	0.0999834999965969	120	satiated	stimuli/foods\potatoes.jpg	1	1	1	potatoes	1	D	2	0	248	0		0	0	102.896094900003	102.9960784
22879.25	0.0999887000070885	121	satiated	stimuli/foods\carrot.jpg	1	1	1	carrot	1	K	7	0	19	0		0	0	103.046087299997	103.146076000005
22916.75	0.0999850000080187	122	satiated	stimuli/foods\fried_zucchini.jpg	1	1	1	fried_zucchini	1	T	14	0	51	0		0	0	103.196088800003	103.296073800011
22954.25	0.0999860999872908	123	satiated	stimuli/non_foods\non-food_animate_young_boy.jpg	1	1	1	non-food_animate_young_boy	0	A	19	1	156	0		0	0	103.346089700004	103.446075799991
22991.75	0.0999833999958355	124	satiated	stimuli/foods\fruit_salad.jpg	1	1	1	fruit_salad	1	N	10	0	55	0		0	0	103.496086900006	103.596070300002
23029.25	0.100023000006331	125	satiated	stimuli/foods\honey.jpg	1	1	1	honey	1	M	9	0	66	0		0	0	103.64608559999	103.746108599997
23066.75	0.0999410000222269	126	satiated	stimuli/non_foods\non-food_animate_woman.jpg	1	1	1	non-food_animate_woman	0	N	10	0	154	1	a	0.455756000010297	1	103.796132399992	103.896073400014
23104.25	0.0999792999937199	127	satiated	stimuli/non_foods\non-food_inanimate_canoe.jpg	1	1	1	non-food_inanimate_canoe	0	K	7	0	170	0		0	0	103.94609350001	104.046072800003
23141.75	0.099982000014279	128	satiated	stimuli/foods\cereal.jpg	1	1	1	cereal	1	C	1	0	22	0		0	0	104.096084399993	104.196066400007
23179.25	0.0999885000055656	129	satiated	stimuli/foods\green_beans.jpg	1	1	1	green_beans	1	Z	18	0	61	0		0	0	104.246077899996	104.346066400001
23216.75	0.099982000014279	130	satiated	stimuli/foods\chocolate_bar.jpg	1	1	1	chocolate_bar	1	P	11	0	26	0		0	0	104.396081199986	104.4960632
23254.25	0.0999850999796763	131	satiated	stimuli/non_foods\non-food_animate_alligator.jpg	1	1	1	non-food_animate_alligator	0	W	16	0	90	0		0	0	104.546077000006	104.646062099986
23291.75	0.0999868999933824	132	satiated	stimuli/foods\hamburger.jpg	1	1	1	hamburger	1	B	0	0	64	0		0	0	104.696075899992	104.796062799986
23329.25	0.0999771999777295	133	satiated	stimuli/foods\baked_cod_with_carrots_and_green_beans.jpg	1	1	1	baked_cod_with_carrots_and_green_beans	1	M	9	0	7	0		0	0	104.846098400012	104.94607559999
23366.75	0.0999842000019271	134	satiated	stimuli/non_foods\non-food_animate_Asian_man.jpg	1	1	1	non-food_animate_Asian_man	0	N	10	0	88	0		0	0	104.996074199997	105.096058399999
23404.25	0.0999869999941438	135	satiated	stimuli/foods\smoked_ham.jpg	1	1	1	smoked_ham	1	Z	18	0	266	0		0	0	105.146072300005	105.2460593
23441.75	0.0999850000080187	136	satiated	stimuli/non_foods\non-food_animate_slug.jpg	1	1	1	non-food_animate_slug	0	M	9	0	148	0		0	0	105.296069100004	105.396054100012
23479.25	0.0999923000053968	137	satiated	stimuli/foods\pepperoni_pizza.jpg	1	1	1	pepperoni_pizza	1	W	16	0	241	0		0	0	105.446072899998	105.546065200004
23516.75	0.0999541999772191	138	satiated	stimuli/foods\radish.jpg	1	1	1	radish	1	R	12	0	251	0		0	0	105.59609810001	105.696052299987
23554.25	0.099985300010303	139	satiated	stimuli/foods\cinnamon.jpg	1	1	1	cinnamon	1	W	16	0	30	0		0	0	105.746066699998	105.846052000008
24591.75	0.099956000020029	140	satiated	stimuli/foods\salami.jpg	1	2	1	salami	1	C	1	0	263	0		0	0	109.89605879999	109.99601480001
24629.25	0.0999829999927897	141	satiated	stimuli/foods\cupcake.jpg	1	2	1	cupcake	1	D	2	0	42	0		0	0	110.046031400008	110.146014400001
24666.75	0.099975799996173	142	satiated	stimuli/foods\pork_and_rice.jpg	1	2	1	pork_and_rice	1	J	6	0	245	0		0	0	110.196037699992	110.296013499988
24704.25	0.0999588999839034	143	satiated	stimuli/non_foods\non-food_inanimate_broom.jpg	1	2	1	non-food_inanimate_broom	0	M	9	0	164	0		0	0	110.346033500013	110.445992399997
24741.75	0.0999920000031125	144	satiated	stimuli/non_foods\non-food_animate_parrot.jpg	1	2	1	non-food_animate_parrot	0	C	1	0	133	0		0	0	110.496029600006	110.596021600009
24779.25	0.100000699982047	145	satiated	stimuli/non_foods\non-food_inanimate_fire_extinguisher.jpg	1	2	1	non-food_inanimate_fire_extinguisher	0	J	6	0	181	0		0	0	110.646034900012	110.746035599994
24816.75	0.0999486999935471	146	satiated	stimuli/non_foods\non-food_inanimate_alarm_clock.jpg	1	2	1	non-food_inanimate_alarm_clock	0	K	7	0	158	0		0	0	110.796056699997	110.896005399991
24854.25	0.0999789999914356	147	satiated	stimuli/foods\grilled_chicken_breast.jpg	1	2	1	grilled_chicken_breast	1	R	12	0	63	0		0	0	110.946021000011	111.046000000002
24891.75	0.0999843000026885	148	satiated	stimuli/non_foods\non-food_inanimate_fern.jpg	1	2	1	non-food_inanimate_fern	0	J	6	0	180	0		0	0	111.096021400008	111.196005700011
24929.25	0.0999762999999803	149	satiated	stimuli/foods\wafer.jpg	1	2	1	wafer	1	S	13	0	277	0		0	0	111.246019999991	111.345996299991
24966.75	0.0999814000097103	150	satiated	stimuli/non_foods\non-food_animate_porcupine.jpg	1	2	1	non-food_animate_porcupine	0	C	1	0	138	0		0	0	111.396013199992	111.495994600002
25004.25	0.0999792999937199	151	satiated	stimuli/non_foods\non-food_inanimate_bush.jpg	1	2	1	non-food_inanimate_bush	0	R	12	0	167	0		0	0	111.546011400002	111.645990699995
25041.75	0.0999905999924522	152	satiated	stimuli/foods\savory_pie.jpg	1	2	1	savory_pie	1	C	1	0	265	0		0	0	111.696008500003	111.795999099995
25079.25	0.0999840000004042	153	satiated	stimuli/foods\ginger_root.jpg	1	2	1	ginger_root	1	X	17	0	57	0		0	0	111.846013400005	111.945997400006
25116.75	0.0999853999819607	154	satiated	stimuli/foods\cinnamon_sroll.jpg	1	2	1	cinnamon_sroll	1	Z	18	0	31	0		0	0	111.996014200005	112.095999599987
25154.25	0.0999850000080187	155	satiated	stimuli/non_foods\non-food_inanimate_nettle.jpg	1	2	1	non-food_inanimate_nettle	0	C	1	0	197	0		0	0	112.146012399986	112.245997399994
25191.75	0.0999931000114884	156	satiated	stimuli/foods\meatballs.jpg	1	2	1	meatballs	1	G	4	0	81	0		0	0	112.296006699995	112.395999800006
25229.25	0.0999926000076812	157	satiated	stimuli/foods\dates.jpg	1	2	1	dates	1	F	3	0	43	0		0	0	112.446018899995	112.546011500002
25266.75	0.099955100013176	158	satiated	stimuli/non_foods\non-food_inanimate_rack.jpg	1	2	1	non-food_inanimate_rack	0	V	15	0	202	0		0	0	112.596030899993	112.695986000006
25304.25	0.0999918999732472	159	satiated	stimuli/non_foods\non-food_animate_deer.jpg	1	2	1	non-food_animate_deer	0	W	16	0	105	0		0	0	112.745992400014	112.845984299987
25341.75	0.0999862999888137	160	satiated	stimuli/foods\prawn.jpg	1	2	1	prawn	1	N	10	0	249	0		0	0	112.895998599997	112.995984899986
25379.25	0.0999822999874596	161	satiated	stimuli/non_foods\non-food_inanimate_padlock.jpg	1	2	1	non-food_inanimate_padlock	0	H	5	0	199	0		0	0	113.045995699998	113.145977999986
25416.75	0.0999856000125874	162	satiated	stimuli/non_foods\non-food_animate_yellow_bug.jpg	1	2	1	non-food_animate_yellow_bug	0	G	4	0	155	0		0	0	113.1960043	113.295989900013
25454.25	0.0999863999895751	163	satiated	stimuli/foods\potato_and_green_bean_salad.jpg	1	2	1	potato_and_green_bean_salad	1	V	15	0	246	0		0	0	113.345997299999	113.445983699989
25491.75	0.10000019997824	164	satiated	stimuli/foods\salmon.jpg	1	2	1	salmon	1	B	0	0	264	0		0	0	113.495999400009	113.595999599987
25529.25	0.0999641999951564	165	satiated	stimuli/non_foods\non-food_animate_pigeon.jpg	1	2	1	non-food_animate_pigeon	0	L	8	0	136	0		0	0	113.646020699991	113.745984899986
25566.75	0.0999916000000667	166	satiated	stimuli/foods\rockmelon.jpg	1	2	1	rockmelon	1	H	5	0	262	0		0	0	113.795988800004	113.895980400004
25604.25	0.0999854000110645	167	satiated	stimuli/foods\fruit_flan.jpg	1	2	1	fruit_flan	1	C	1	0	53	0		0	0	113.945995199989	114.0459806
25641.75	0.0999982999928761	168	satiated	stimuli/non_foods\non-food_animate_cow.jpg	1	2	1	non-food_animate_cow	0	R	12	0	103	0		0	0	114.095987200009	114.195985500002
25679.25	0.0999624000105541	169	satiated	stimuli/non_foods\non-food_inanimate_gloves.jpg	1	2	1	non-food_inanimate_gloves	0	N	10	0	183	0		0	0	114.246013900003	114.345976300014
25716.75	0.0999834999965969	170	satiated	stimuli/non_foods\non-food_animate_clown.jpg	1	2	1	non-food_animate_clown	0	F	3	0	102	0		0	0	114.395994399994	114.495977899991
25754.25	0.0999794999952428	171	satiated	stimuli/foods\fried_calamari.jpg	1	2	1	fried_calamari	1	M	9	0	50	0		0	0	114.545994799992	114.645974299987
25791.75	0.0999834999965969	172	satiated	stimuli/non_foods\non-food_animate_frog.jpg	1	2	1	non-food_animate_frog	0	L	8	0	113	0		0	0	114.695991899993	114.795975399989
25829.25	0.0999836999981198	173	satiated	stimuli/foods\coffee_beans.jpg	1	2	1	coffee_beans	1	K	7	0	34	0		0	0	114.845990600006	114.945974300004
25866.75	0.0999841000011656	174	satiated	stimuli/non_foods\non-food_animate_grasshopper.jpg	1	2	1	non-food_animate_grasshopper	0	J	6	0	117	0		0	0	114.995987300004	115.095971400006
25904.25	0.0999862000171561	175	satiated	stimuli/non_foods\non-food_inanimate_bicycle.jpg	1	2	1	non-food_inanimate_bicycle	0	V	15	0	161	0		0	0	115.145986299991	115.245972500008
25941.75	0.0999846999766305	176	satiated	stimuli/foods\eggplant.jpg	1	2	1	eggplant	1	F	3	0	46	0		0	0	115.295985600009	115.395970299985
25979.25	0.0999816000112332	177	satiated	stimuli/non_foods\non-food_inanimate_cactus_pot_plant.jpg	1	2	1	non-food_inanimate_cactus_pot_plant	0	T	14	0	169	0		0	0	115.445984799997	115.545966400008
26016.75	0.0999812999798451	178	satiated	stimuli/foods\linguine_with_clams.jpg	1	2	1	linguine_with_clams	1	S	13	0	77	0		0	0	115.59598340001	115.695964699989
26054.25	0.0999901999894064	179	satiated	stimuli/non_foods\non-food_animate_mammoth.jpg	1	2	1	non-food_animate_mammoth	0	R	12	0	128	0		0	0	115.745974799996	115.845964999986
26091.75	0.100005499989493	180	satiated	stimuli/non_foods\non-food_animate_elephant.jpg	1	2	1	non-food_animate_elephant	0	H	5	0	111	0		0	0	115.895977800013	115.995983300003
26129.25	0.0999567999970168	181	satiated	stimuli/foods\museli_bars.jpg	1	2	1	museli_bars	1	P	11	0	84	0		0	0	116.045984199998	116.145940999995
26166.75	0.099976900004549	182	satiated	stimuli/non_foods\non-food_inanimate_bowling_ball.jpg	1	2	1	non-food_inanimate_bowling_ball	0	D	2	0	162	0		0	0	116.195977199997	116.295954100002
26204.25	0.0999822000158019	183	satiated	stimuli/non_foods\non-food_animate_lizard.jpg	1	2	1	non-food_animate_lizard	0	Z	18	0	126	0		0	0	116.345977999998	116.445960200013
26241.75	0.0999805000028573	184	satiated	stimuli/non_foods\non-food_inanimate_soccer_ball.jpg	1	2	1	non-food_inanimate_soccer_ball	0	N	10	0	210	0		0	0	116.495976700011	116.595957200014
26279.25	0.0999825999897439	185	satiated	stimuli/non_foods\non-food_inanimate_highlighter.jpg	1	2	1	non-food_inanimate_highlighter	0	V	15	0	189	0		0	0	116.645968199999	116.745950799988
26316.75	0.0999676000210457	186	satiated	stimuli/non_foods\non-food_inanimate_watering_can.jpg	1	2	1	non-food_inanimate_watering_can	0	F	3	0	225	0		0	0	116.795967899991	116.895935500012
26354.25	0.099982399988221	187	satiated	stimuli/non_foods\non-food_inanimate_tent.jpg	1	2	1	non-food_inanimate_tent	0	G	4	0	219	0		0	0	116.94597120001	117.045953599998
26391.75	0.0999754999938887	188	satiated	stimuli/foods\blackberry.jpg	1	2	1	blackberry	1	T	14	0	11	0		0	0	117.095978500001	117.195953999995
26429.25	0.0999859000148717	189	satiated	stimuli/foods\pickles.jpg	1	2	1	pickles	1	G	4	0	242	0		0	0	117.245966399991	117.345952300006
26466.75	0.0999760999984574	190	satiated	stimuli/non_foods\non-food_inanimate_folding_chair.jpg	1	2	1	non-food_inanimate_folding_chair	0	E	20	1	182	0		0	0	117.395964399999	117.495940499997
26504.25	0.100002900027903	191	satiated	stimuli/foods\pasta_carbonara.jpg	1	2	1	pasta_carbonara	1	L	8	0	236	0		0	0	117.545948199986	117.645951100014
26541.75	0.100016100011999	192	satiated	stimuli/foods\beetroots.jpg	1	2	1	beetroots	1	W	16	0	10	0		0	0	117.695953999995	117.795970100007
26579.25	0.0999647999997251	193	satiated	stimuli/non_foods\non-food_animate_duck.jpg	1	2	1	non-food_animate_duck	0	M	9	0	109	1	a	0.455889900011243	1	117.846004699997	117.945969499997
26616.75	0.0999901000177488	194	satiated	stimuli/non_foods\non-food_inanimate_briefcase.jpg	1	2	1	non-food_inanimate_briefcase	0	V	15	0	163	0		0	0	117.995958899992	118.09594900001
26654.25	0.0999838000279851	195	satiated	stimuli/non_foods\non-food_inanimate_rope.jpg	1	2	1	non-food_inanimate_rope	0	G	4	0	204	0		0	0	118.145958899986	118.245942700014
26691.75	0.0999862999888137	196	satiated	stimuli/non_foods\non-food_animate_penguin.jpg	1	2	1	non-food_animate_penguin	0	D	2	0	135	0		0	0	118.295958000002	118.395944299991
26729.25	0.0999874999979511	197	satiated	stimuli/foods\mushroom.jpg	1	2	1	mushroom	1	K	7	0	85	0		0	0	118.445956899988	118.545944399986
26766.75	0.0999854000110645	198	satiated	stimuli/foods\cabbage.jpg	1	2	1	cabbage	1	T	14	0	16	0		0	0	118.595955800003	118.695941200014
26804.25	0.0999863000179175	199	satiated	stimuli/non_foods\non-food_animate_bat.jpg	1	2	1	non-food_animate_bat	0	N	10	0	94	0		0	0	118.745955199993	118.845941500011
26841.75	0.100001899991184	200	satiated	stimuli/non_foods\non-food_inanimate_buds.jpg	1	2	1	non-food_inanimate_buds	0	T	14	0	166	0		0	0	118.895935200009	118.9959371
26879.25	0.099988600006327	201	satiated	stimuli/non_foods\non-food_inanimate_horn.jpg	1	2	1	non-food_inanimate_horn	0	X	17	0	190	0		0	0	119.045948899991	119.145937499998
26916.75	0.0999828999920283	202	satiated	stimuli/foods\raisins.jpg	1	2	1	raisins	1	G	4	0	252	0		0	0	119.195950599998	119.29593349999
26954.25	0.0999850000080187	203	satiated	stimuli/foods\kiwi.jpg	1	2	1	kiwi	1	H	5	0	69	0		0	0	119.345947199996	119.445932200004
26991.75	0.100006099994062	204	satiated	stimuli/non_foods\non-food_animate_camel.jpg	1	2	1	non-food_animate_camel	0	B	0	0	97	0		0	0	119.495952500001	119.595958599995
27029.25	0.0999666999850888	205	satiated	stimuli/non_foods\non-food_animate_ram.jpg	1	2	1	non-food_animate_ram	0	T	14	0	140	0		0	0	119.64596590001	119.745932599995
27066.75	0.0999908999947365	206	satiated	stimuli/foods\cucumber.jpg	1	2	1	cucumber	1	R	12	0	41	0		0	0	119.795941799995	119.89593269999
27104.25	0.0999818999844138	207	satiated	stimuli/foods\chocolate_chip_cookies.jpg	1	2	1	chocolate_chip_cookies	1	X	17	0	27	0		0	0	119.945947700005	120.04592959999
27141.75	0.0999840000004042	208	satiated	stimuli/foods\potato_chips.jpg	1	2	1	potato_chips	1	B	0	0	247	0		0	0	120.095940500003	120.195924500003
27179.25	0.0999871999956667	209	satiated	stimuli/foods\ice_cream.jpg	1	2	1	ice_cream	1	J	6	0	68	0		0	0	120.245940299996	120.345927499991
27216.75	0.0999611000006553	210	satiated	stimuli/foods\lollies.jpg	1	2	1	lollies	1	D	2	0	78	0		0	0	120.395939999988	120.495901099988
27254.25	0.0999784999876283	211	satiated	stimuli/foods\peas.jpg	1	2	1	peas	1	X	17	0	240	0		0	0	120.545938700001	120.645917199989
27291.75	0.0999874999979511	212	satiated	stimuli/foods\avocado.jpg	1	2	1	avocado	1	E	20	1	5	0		0	0	120.695935399999	120.795922899997
27329.25	0.0999723999993876	213	satiated	stimuli/non_foods\non-food_animate_rhino.jpg	1	2	1	non-food_animate_rhino	0	X	17	0	141	0		0	0	120.845935199992	120.945907599991
27366.75	0.0999901999894064	214	satiated	stimuli/non_foods\non-food_inanimate_hay.jpg	1	2	1	non-food_inanimate_hay	0	C	1	0	187	1	a	0.40286100000958	1	120.9959294	121.095919599989
27404.25	0.099979099992197	215	satiated	stimuli/foods\hazelnuts.jpg	1	2	1	hazelnuts	1	D	2	0	65	0		0	0	121.145935800014	121.245914900006
27441.75	0.0999747999885585	216	satiated	stimuli/foods\grapefruits.jpg	1	2	1	grapefruits	1	N	10	0	59	0		0	0	121.295935000002	121.39590979999
27479.25	0.100002099992707	217	satiated	stimuli/non_foods\non-food_inanimate_shell.jpg	1	2	1	non-food_inanimate_shell	0	S	13	0	206	0		0	0	121.445914100012	121.545916200004
27516.75	0.09998440000345	218	satiated	stimuli/non_foods\non-food_animate_ant.jpg	1	2	1	non-food_animate_ant	0	X	17	0	91	0		0	0	121.595933400007	121.695917800011
27554.25	0.0999909000238404	219	satiated	stimuli/non_foods\non-food_animate_polar_bear.jpg	1	2	1	non-food_animate_polar_bear	0	D	2	0	137	0		0	0	121.745904699987	121.84589560001
27591.75	0.0999850000080187	220	satiated	stimuli/non_foods\non-food_animate_cheetah.jpg	1	2	1	non-food_animate_cheetah	0	C	1	0	100	0		0	0	121.895928599988	121.995913599996
27629.25	0.0999779000121634	221	satiated	stimuli/foods\swordfish.jpg	1	2	1	swordfish	1	J	6	0	273	0		0	0	122.045925999992	122.145903900004
27666.75	0.0999863000179175	222	satiated	stimuli/non_foods\non-food_inanimate_scissors.jpg	1	2	1	non-food_inanimate_scissors	0	Z	18	0	205	0		0	0	122.195914899989	122.295901200006
27704.25	0.0999821999866981	223	satiated	stimuli/foods\chocolate_pralines.jpg	1	2	1	chocolate_pralines	1	S	13	0	28	0		0	0	122.345915200014	122.445897400001
27741.75	0.0999878000002354	224	satiated	stimuli/foods\asparagus.jpg	1	2	1	asparagus	1	B	0	0	4	0		0	0	122.495909999998	122.595897799998
27779.25	0.0999922000046354	225	satiated	stimuli/non_foods\non-food_inanimate_jeans.jpg	1	2	1	non-food_inanimate_jeans	0	F	3	0	191	0		0	0	122.645915200002	122.745907400007
27816.75	0.0999745999870356	226	satiated	stimuli/non_foods\non-food_inanimate_chair.jpg	1	2	1	non-food_inanimate_chair	0	V	15	0	172	0		0	0	122.795927700005	122.895902299992
27854.25	0.099988600006327	227	satiated	stimuli/foods\spinach.jpg	1	2	1	spinach	1	H	5	0	268	0		0	0	122.9459202	123.045908800006
27891.75	0.100004100007936	228	satiated	stimuli/foods\croissant.jpg	1	2	1	croissant	1	G	4	0	40	0		0	0	123.095909900003	123.195914000011
27929.25	0.0999608999991324	229	satiated	stimuli/foods\baked_lamb_with_potatoes.jpg	1	2	1	baked_lamb_with_potatoes	1	Z	18	0	8	0		0	0	123.245936399995	123.345897299994
27966.75	0.0999615000037011	230	satiated	stimuli/foods\lentils.jpg	1	2	1	lentils	1	F	3	0	74	0		0	0	123.395914299996	123.495875799999
28004.25	0.100004399981117	231	satiated	stimuli/foods\fruit_pie.jpg	1	2	1	fruit_pie	1	R	12	0	54	0		0	0	123.545886700012	123.645891099994
28041.75	0.0999928000092041	232	satiated	stimuli/foods\raw_sausage.jpg	1	2	1	raw_sausage	1	Z	18	0	254	0		0	0	123.695904299995	123.795897100004
28079.25	0.0999831999943126	233	satiated	stimuli/foods\tomato.jpg	1	2	1	tomato	1	L	8	0	276	0		0	0	123.845911100012	123.945894300006
28116.75	0.0999812000081874	234	satiated	stimuli/non_foods\non-food_animate_snail.jpg	1	2	1	non-food_animate_snail	0	G	4	0	149	0		0	0	123.995909299992	124.095890500001
28154.25	0.099999600002775	235	satiated	stimuli/non_foods\non-food_animate_giraffe.jpg	1	2	1	non-food_animate_giraffe	0	S	13	0	115	0		0	0	124.145908000006	124.245907600009
28191.75	0.0999758999969345	236	satiated	stimuli/foods\clams.jpg	1	2	1	clams	1	H	5	0	32	0		0	0	124.295914399991	124.395890299988
28229.25	0.0999959999753628	237	satiated	stimuli/foods\roasted_chicken.jpg	1	2	1	roasted_chicken	1	J	6	0	261	0		0	0	124.445902500011	124.545898499986
28266.75	0.0999885999772232	238	satiated	stimuli/non_foods\non-food_animate_chicken.jpg	1	2	1	non-food_animate_chicken	0	H	5	0	101	0		0	0	124.595903400012	124.695891999989
28304.25	0.0999879000009969	239	satiated	stimuli/foods\cherry.jpg	1	2	1	cherry	1	L	8	0	23	0		0	0	124.745901899994	124.845889799995
28341.75	0.0999651000020094	240	satiated	stimuli/foods\stew_with_potatoes_and_carrots.jpg	1	2	1	stew_with_potatoes_and_carrots	1	M	9	0	271	0		0	0	124.895919800008	124.99588490001
28379.25	0.0999805000028573	241	satiated	stimuli/foods\toasted_bread_with_tomatoes.jpg	1	2	1	toasted_bread_with_tomatoes	1	V	15	0	275	0		0	0	125.045902699989	125.145883199992
28416.75	0.0999983999936376	242	satiated	stimuli/foods\lime.jpg	1	2	1	lime	1	X	17	0	76	0		0	0	125.19588710001	125.295885500003
28454.25	0.0999825999897439	243	satiated	stimuli/non_foods\non-food_animate_raccoon.jpg	1	2	1	non-food_animate_raccoon	0	D	2	0	139	0		0	0	125.345898900006	125.445881499996
28491.75	0.0999918000015896	244	satiated	stimuli/non_foods\non-food_animate_eagle.jpg	1	2	1	non-food_animate_eagle	0	M	9	0	110	0		0	0	125.495890899998	125.595882699999
28529.25	0.0999804000020958	245	satiated	stimuli/foods\taco.jpg	1	2	1	taco	1	B	0	0	274	0		0	0	125.6458881	125.745868500002
28566.75	0.0999920000031125	246	satiated	stimuli/foods\onion.jpg	1	2	1	onion	1	K	7	0	229	0		0	0	125.795884499996	125.895876499999
28604.25	0.0999857000133488	247	satiated	stimuli/foods\pineapple.jpg	1	2	1	pineapple	1	B	0	0	243	0		0	0	125.945891999989	126.045877700002
28641.75	0.0999855999834836	248	satiated	stimuli/foods\coconut.jpg	1	2	1	coconut	1	S	13	0	33	0		0	0	126.095892000012	126.195877599996
28679.25	0.099979099992197	249	satiated	stimuli/non_foods\non-food_inanimate_construction_helment.jpg	1	2	1	non-food_inanimate_construction_helment	0	K	7	0	175	0		0	0	126.245884300006	126.345863399998
28716.75	0.0999742999847513	250	satiated	stimuli/non_foods\non-food_animate_green_bug.jpg	1	2	1	non-food_animate_green_bug	0	V	15	0	118	0		0	0	126.395877600007	126.495851899992
28754.25	0.0999684999987949	251	satiated	stimuli/non_foods\non-food_inanimate_stoplight.jpg	1	2	1	non-food_inanimate_stoplight	0	L	8	0	214	0		0	0	126.545889100002	126.6458576
28791.75	0.0999536000017542	252	satiated	stimuli/non_foods\non-food_inanimate_protractor.jpg	1	2	1	non-food_inanimate_protractor	0	M	9	0	201	0		0	0	126.695906999987	126.795860599988
28829.25	0.0999846000049729	253	satiated	stimuli/non_foods\non-food_inanimate_grass.jpg	1	2	1	non-food_inanimate_grass	0	L	8	0	184	0		0	0	126.845885599992	126.945870199997
28866.75	0.099983299995074	254	satiated	stimuli/non_foods\non-food_animate_dragonfly.jpg	1	2	1	non-food_animate_dragonfly	0	R	12	0	108	0		0	0	126.995883700001	127.095866999996
28904.25	0.09998440000345	255	satiated	stimuli/foods\mandarin.jpg	1	2	1	mandarin	1	S	13	0	79	0		0	0	127.145879699994	127.245864099998
28941.75	0.09998440000345	256	satiated	stimuli/foods\cream_donuts.jpg	1	2	1	cream_donuts	1	K	7	0	39	0		0	0	127.2958812	127.395865600003
28979.25	0.0999800999998115	257	satiated	stimuli/non_foods\non-food_animate_bee.jpg	1	2	1	non-food_animate_bee	0	V	15	0	95	0		0	0	127.445876699989	127.545856799989
29016.75	0.0999894000124186	258	satiated	stimuli/non_foods\non-food_animate_cat.jpg	1	2	1	non-food_animate_cat	0	B	0	0	98	0		0	0	127.5958751	127.695864500012
29054.25	0.0999830999935511	259	satiated	stimuli/foods\chestnut.jpg	1	2	1	chestnut	1	H	5	0	24	0		0	0	127.745878799993	127.845861899987
29091.75	0.0999874000262935	260	satiated	stimuli/foods\red_cabbage.jpg	1	2	1	red_cabbage	1	N	10	0	256	0		0	0	127.895874799986	127.995862200012
29129.25	0.0999719999963418	261	satiated	stimuli/non_foods\non-food_animate_donkey.jpg	1	2	1	non-food_animate_donkey	0	F	3	0	107	0		0	0	128.045887899993	128.145859899989
29166.75	0.099979099992197	262	satiated	stimuli/foods\spaghetti_with_meat_sauce.jpg	1	2	1	spaghetti_with_meat_sauce	1	C	1	0	267	0		0	0	128.195875500009	128.295854600001
29204.25	0.100016899988987	263	satiated	stimuli/foods\watermelon.jpg	1	2	1	watermelon	1	Z	18	0	279	0		0	0	128.34586880001	128.445885699999
29241.75	0.0999372000223957	264	satiated	stimuli/non_foods\non-food_animate_swan.jpg	1	2	1	non-food_animate_swan	0	W	16	0	152	0		0	0	128.495916099986	128.595853300008
29279.25	0.0999840000004042	265	satiated	stimuli/non_foods\non-food_animate_mouse.jpg	1	2	1	non-food_animate_mouse	0	P	11	0	131	0		0	0	128.645867399988	128.745851399988
29316.75	0.0999840000004042	266	satiated	stimuli/non_foods\non-food_animate_caterpillar.jpg	1	2	1	non-food_animate_caterpillar	0	S	13	0	99	1	a	0	0	128.795867500012	128.895851500012
29354.25	0.0999804000020958	267	satiated	stimuli/foods\red_beans.jpg	1	2	1	red_beans	1	M	9	0	255	0		0	0	128.94586800001	129.045848400012
29391.75	0.0999872999964282	268	satiated	stimuli/non_foods\non-food_animate_sea_lion.jpg	1	2	1	non-food_animate_sea_lion	0	P	11	0	143	0		0	0	129.095863299997	129.195850599994
29429.25	0.0999864999903366	269	satiated	stimuli/non_foods\non-food_animate_millipede.jpg	1	2	1	non-food_animate_millipede	0	W	16	0	129	0		0	0	129.245866100013	129.345852600003
29466.75	0.0999842000019271	270	satiated	stimuli/non_foods\non-food_animate_young_girl.jpg	1	2	1	non-food_animate_young_girl	0	D	2	0	157	0		0	0	129.395862000005	129.495846200007
29504.25	0.0999751999916043	271	satiated	stimuli/foods\chilli.jpg	1	2	1	chilli	1	B	0	0	25	0		0	0	129.545870300004	129.645845499996
29541.75	0.0999830999935511	272	satiated	stimuli/non_foods\non-food_animate_hummingbird.jpg	1	2	1	non-food_animate_hummingbird	0	F	3	0	120	0		0	0	129.695862099994	129.795845199988
29579.25	0.09998440000345	273	satiated	stimuli/non_foods\non-food_inanimate_desk.jpg	1	2	1	non-food_inanimate_desk	0	B	0	0	178	0		0	0	129.845860000001	129.945844400005
29616.75	0.0999794000235852	274	satiated	stimuli/foods\waffle.jpg	1	2	1	waffle	1	M	9	0	278	0		0	0	129.995862599986	130.09584200001
29654.25	0.0999880000017583	275	satiated	stimuli/foods\pancakes.jpg	1	2	1	pancakes	1	P	11	0	234	0		0	0	130.145860599994	130.245848599996
29691.75	0.0999603000236675	276	satiated	stimuli/non_foods\non-food_animate_baby_crawling.jpg	1	2	1	non-food_animate_baby_crawling	0	Z	18	0	92	0		0	0	130.29587609999	130.395836400014
29729.25	0.0999565999954939	277	satiated	stimuli/non_foods\non-food_animate_baby_sitting.jpg	1	2	1	non-food_animate_baby_sitting	0	G	4	0	93	0		0	0	130.445863700006	130.545820300002
29766.75	0.09998440000345	278	satiated	stimuli/foods\mortadella.jpg	1	2	1	mortadella	1	V	15	0	83	0		0	0	130.595852900005	130.695837300009
29804.25	0.0999919999740086	279	satiated	stimuli/foods\frankfurter_and_provolone_salad.jpg	1	2	1	frankfurter_and_provolone_salad	1	D	2	0	49	0		0	0	130.745843100012	130.845835099986
30421	0.0999600000213832	280	satiated	stimuli/non_foods\non-food_inanimate_bowling_ball.jpg	1	3	1	non-food_inanimate_bowling_ball	0	W	16	0	162	0		0	0	133.212522499991	133.312482500012
30458.5	0.0999771000060719	281	satiated	stimuli/non_foods\non-food_animate_Causasian_man.jpg	1	3	1	non-food_animate_Causasian_man	0	F	3	0	89	0		0	0	133.362503699987	133.462480799994
30496	0.0999771000060719	282	satiated	stimuli/foods\potatoes.jpg	1	3	1	potatoes	1	H	5	0	248	0		0	0	133.512493899994	133.612471
30533.5	0.0999830999935511	283	satiated	stimuli/foods\rockmelon.jpg	1	3	1	rockmelon	1	X	17	0	262	0		0	0	133.662492800009	133.762475900003
30571	0.0999854999827221	284	satiated	stimuli/non_foods\non-food_animate_raccoon.jpg	1	3	1	non-food_animate_raccoon	0	J	6	0	139	0		0	0	133.812489300006	133.912474799989
30608.5	0.0999848999781534	285	satiated	stimuli/non_foods\non-food_inanimate_hammer.jpg	1	3	1	non-food_inanimate_hammer	0	W	16	0	186	0		0	0	133.962491000013	134.062475899991
30646	0.100004699983401	286	satiated	stimuli/foods\prawn.jpg	1	3	1	prawn	1	M	9	0	249	0		0	0	134.112488000013	134.212492699997
30683.5	0.0999833000241779	287	satiated	stimuli/foods\grapes.jpg	1	3	1	grapes	1	C	1	0	60	0		0	0	134.26248949999	134.362472800014
30721	0.099983299995074	288	satiated	stimuli/non_foods\non-food_animate_owl.jpg	1	3	1	non-food_animate_owl	0	V	15	0	132	0		0	0	134.412487599999	134.512470899994
30758.5	0.0999825000180863	289	satiated	stimuli/foods\raw_sausage.jpg	1	3	1	raw_sausage	1	Z	18	0	254	0		0	0	134.562484099995	134.662466600013
30796	0.0999730000039563	290	satiated	stimuli/foods\oven-roasted_tomatoes.jpg	1	3	1	oven-roasted_tomatoes	1	F	3	0	232	0		0	0	134.712503399991	134.812476399995
30833.5	0.0999866999918595	291	satiated	stimuli/non_foods\non-food_inanimate_fire_extinguisher.jpg	1	3	1	non-food_inanimate_fire_extinguisher	0	D	2	0	181	0		0	0	134.862478299998	134.96246499999
30871	0.0999858999857679	292	satiated	stimuli/non_foods\non-food_inanimate_sun_flower.jpg	1	3	1	non-food_inanimate_sun_flower	0	B	0	0	216	0		0	0	135.012479800003	135.112465699989
30908.5	0.0999895000131801	293	satiated	stimuli/non_foods\non-food_animate_student_female.jpg	1	3	1	non-food_animate_student_female	0	M	9	0	151	0		0	0	135.162475399993	135.262464900006
30946	0.0999843000026885	294	satiated	stimuli/foods\risotto_with_zucchini.jpg	1	3	1	risotto_with_zucchini	1	X	17	0	260	0		0	0	135.312477900006	135.412462200009
30983.5	0.0999845999758691	295	satiated	stimuli/foods\pork_and_rice.jpg	1	3	1	pork_and_rice	1	F	3	0	245	0		0	0	135.46247910001	135.562463699986
31021	0.0999766000022646	296	satiated	stimuli/non_foods\non-food_animate_deer.jpg	1	3	1	non-food_animate_deer	0	J	6	0	105	0		0	0	135.612471500004	135.712448100006
31058.5	0.0999806000036187	297	satiated	stimuli/foods\pea_pod.jpg	1	3	1	pea_pod	1	W	16	0	237	0		0	0	135.762476300006	135.862456900009
31096	0.0999809000059031	298	satiated	stimuli/non_foods\non-food_animate_bee.jpg	1	3	1	non-food_animate_bee	0	F	3	0	95	0		0	0	135.912475099991	136.012455999997
31133.5	0.0999849999789149	299	satiated	stimuli/non_foods\non-food_inanimate_socks.jpg	1	3	1	non-food_inanimate_socks	0	L	8	0	211	0		0	0	136.062470600009	136.162455599988
31171	0.0999969999829773	300	satiated	stimuli/foods\spaghetti_with_meat_sauce.jpg	1	3	1	spaghetti_with_meat_sauce	1	T	14	0	267	0		0	0	136.212459800008	136.312456799991
31208.5	0.0999765000015032	301	satiated	stimuli/non_foods\non-food_inanimate_bed.jpg	1	3	1	non-food_inanimate_bed	0	X	17	0	160	0		0	0	136.362471	136.462447500002
31246	0.100004300009459	302	satiated	stimuli/non_foods\non-food_inanimate_nettle.jpg	1	3	1	non-food_inanimate_nettle	0	U	23	1	197	0		0	0	136.51246659999	136.6124709
31283.5	0.0999979999905918	303	satiated	stimuli/non_foods\non-food_animate_young_girl.jpg	1	3	1	non-food_animate_young_girl	0	L	8	0	157	0		0	0	136.66245080001	136.7624488
31321	0.0999764000007417	304	satiated	stimuli/foods\rice.jpg	1	3	1	rice	1	T	14	0	257	0		0	0	136.812465499999	136.9124419
31358.5	0.0999965000082739	305	satiated	stimuli/non_foods\non-food_inanimate_tulip.jpg	1	3	1	non-food_inanimate_tulip	0	B	0	0	224	0		0	0	136.962454599998	137.062451100006
31396	0.0999818999844138	306	satiated	stimuli/non_foods\non-food_inanimate_moss.jpg	1	3	1	non-food_inanimate_moss	0	Z	18	0	194	0		0	0	137.112463500001	137.212445399986
31433.5	0.0999854000110645	307	satiated	stimuli/non_foods\non-food_inanimate_headphones.jpg	1	3	1	non-food_inanimate_headphones	0	H	5	0	188	1	a	0.841820000001462	1	137.2624603	137.362445700011
31471	0.099986599991098	308	satiated	stimuli/foods\raisins.jpg	1	3	1	raisins	1	V	15	0	252	0		0	0	137.412462500011	137.512449100002
31508.5	0.0999805000028573	309	satiated	stimuli/foods\risotto_with_peas_and_asparagus_tips.jpg	1	3	1	risotto_with_peas_and_asparagus_tips	1	T	14	0	259	0		0	0	137.562457199994	137.662437699997
31546	0.0999655000050552	310	satiated	stimuli/non_foods\non-food_inanimate_suitcase.jpg	1	3	1	non-food_inanimate_suitcase	0	V	15	0	215	0		0	0	137.712479799986	137.812445299991
31583.5	0.0999952999991365	311	satiated	stimuli/non_foods\non-food_inanimate_lighter.jpg	1	3	1	non-food_inanimate_lighter	0	J	6	0	193	0		0	0	137.862444500002	137.962439800001
31621	0.0999836999981198	312	satiated	stimuli/non_foods\non-food_animate_grasshopper.jpg	1	3	1	non-food_animate_grasshopper	0	N	10	0	117	0		0	0	138.012452900002	138.1124366
31658.5	0.0999865000194404	313	satiated	stimuli/non_foods\non-food_animate_dachshund.jpg	1	3	1	non-food_animate_dachshund	0	B	0	0	104	0		0	0	138.162451599987	138.262438100006
31696	0.100025100022322	314	satiated	stimuli/foods\cracker.jpg	1	3	1	cracker	1	X	17	0	38	0		0	0	138.312452499988	138.41247760001
31733.5	0.099987300025532	315	satiated	stimuli/foods\egg.jpg	1	3	1	egg	1	T	14	0	45	0		0	0	138.462449599989	138.562436900014
31771	0.0999728000024334	316	satiated	stimuli/non_foods\non-food_inanimate_speakers.jpg	1	3	1	non-food_inanimate_speakers	0	C	1	0	212	0		0	0	138.612449000007	138.71242180001
31808.5	0.0999863000179175	317	satiated	stimuli/non_foods\non-food_inanimate_waterlily.jpg	1	3	1	non-food_inanimate_waterlily	0	X	17	0	226	0		0	0	138.76244749999	138.862433800008
31846	0.0999834999965969	318	satiated	stimuli/non_foods\non-food_inanimate_jeans.jpg	1	3	1	non-food_inanimate_jeans	0	T	14	0	191	0		0	0	138.91244819999	139.012431699986
31883.5	0.0999913999985438	319	satiated	stimuli/foods\radish.jpg	1	3	1	radish	1	R	12	0	251	0		0	0	139.062439600006	139.162431000004
31921	0.0999813000089489	320	satiated	stimuli/foods\green_olives.jpg	1	3	1	green_olives	1	F	3	0	62	0		0	0	139.212443500001	139.312424800009
31958.5	0.0999857000133488	321	satiated	stimuli/non_foods\non-food_animate_swan.jpg	1	3	1	non-food_animate_swan	0	G	4	0	152	0		0	0	139.3624442	139.462429900013
31996	0.099965900008101	322	satiated	stimuli/non_foods\non-food_animate_tortoise.jpg	1	3	1	non-food_animate_tortoise	0	J	6	0	153	0		0	0	139.512463799998	139.612429700006
32033.5	0.0999637999921106	323	satiated	stimuli/foods\stew_with_potatoes_and_carrots.jpg	1	3	1	stew_with_potatoes_and_carrots	1	W	16	0	271	0		0	0	139.662441799999	139.762405599991
32071	0.0999885000055656	324	satiated	stimuli/non_foods\non-food_inanimate_briefcase.jpg	1	3	1	non-food_inanimate_briefcase	0	B	0	0	163	0		0	0	139.8124389	139.912427400006
32108.5	0.0999842000019271	325	satiated	stimuli/non_foods\non-food_animate_baby_sitting.jpg	1	3	1	non-food_animate_baby_sitting	0	W	16	0	93	0		0	0	139.962440500007	140.062424700009
32146	0.0999935000145342	326	satiated	stimuli/non_foods\non-food_animate_runner.jpg	1	3	1	non-food_animate_runner	0	N	10	0	142	0		0	0	140.112440299999	140.212433800014
32183.5	0.0999632999883033	327	satiated	stimuli/non_foods\non-food_animate_monkey.jpg	1	3	1	non-food_animate_monkey	0	M	9	0	130	0		0	0	140.262456299999	140.362419599987
32221	0.0999854000110645	328	satiated	stimuli/foods\oyster.jpg	1	3	1	oyster	1	X	17	0	233	0		0	0	140.412433099991	140.512418500002
32258.5	0.0999839999713004	329	satiated	stimuli/foods\lollies.jpg	1	3	1	lollies	1	H	5	0	78	0		0	0	140.562433100014	140.662417099986
32296	0.0999961000052281	330	satiated	stimuli/foods\linguine_with_clams.jpg	1	3	1	linguine_with_clams	1	K	7	0	77	0		0	0	140.712419899995	140.812416000001
32333.5	0.0999781000136863	331	satiated	stimuli/non_foods\non-food_inanimate_couch.jpg	1	3	1	non-food_inanimate_couch	0	D	2	0	176	0		0	0	140.862432599999	140.962410700013
32371	0.0999716999940574	332	satiated	stimuli/non_foods\non-food_inanimate_short_sleeved_shirt.jpg	1	3	1	non-food_inanimate_short_sleeved_shirt	0	V	15	0	207	0		0	0	141.0124182	141.112389899994
32408.5	0.0999849000072572	333	satiated	stimuli/non_foods\non-food_inanimate_cap.jpg	1	3	1	non-food_inanimate_cap	0	J	6	0	171	0		0	0	141.162430700002	141.262415600009
32446	0.0999935000145342	334	satiated	stimuli/non_foods\non-food_animate_pigeon.jpg	1	3	1	non-food_animate_pigeon	0	L	8	0	136	0		0	0	141.312433899991	141.412427400006
32483.5	0.099993000010727	335	satiated	stimuli/non_foods\non-food_inanimate_scissors.jpg	1	3	1	non-food_inanimate_scissors	0	Z	18	0	205	0		0	0	141.462416599999	141.56240960001
32521	0.0999925999785773	336	satiated	stimuli/non_foods\non-food_animate_young_boy.jpg	1	3	1	non-food_animate_young_boy	0	P	11	0	156	0		0	0	141.612418600009	141.712411199987
32558.5	0.0999787999899127	337	satiated	stimuli/foods\pineapple.jpg	1	3	1	pineapple	1	F	3	0	243	0		0	0	141.76242710001	141.862405899999
32596	0.100007999979425	338	satiated	stimuli/foods\spinach.jpg	1	3	1	spinach	1	V	15	0	268	0		0	0	141.912423900008	142.012431899988
32633.5	0.0999720000254456	339	satiated	stimuli/non_foods\non-food_animate_polar_bear.jpg	1	3	1	non-food_animate_polar_bear	0	T	14	0	137	0		0	0	142.062433399988	142.162405400013
32671	0.0999864999903366	340	satiated	stimuli/foods\lemon.jpg	1	3	1	lemon	1	J	6	0	72	0		0	0	142.212416199996	142.312402699987
32708.5	0.0999869999941438	341	satiated	stimuli/non_foods\non-food_inanimate_teddy_bear.jpg	1	3	1	non-food_inanimate_teddy_bear	0	V	15	0	218	0		0	0	142.362416899996	142.46240389999
32746	0.0999818000127561	342	satiated	stimuli/non_foods\non-food_animate_baby_crawling.jpg	1	3	1	non-food_animate_baby_crawling	0	M	9	0	92	0		0	0	142.512416799989	142.612398600002
32783.5	0.0999795999960043	343	satiated	stimuli/foods\mushroom.jpg	1	3	1	mushroom	1	C	1	0	85	0		0	0	142.662414799997	142.762394399993
32821	0.09998440000345	344	satiated	stimuli/non_foods\non-food_inanimate_stapler.jpg	1	3	1	non-food_inanimate_stapler	0	K	7	0	213	0		0	0	142.812415499997	142.9123999
32858.5	0.0999899999878835	345	satiated	stimuli/non_foods\non-food_animate_giraffe.jpg	1	3	1	non-food_animate_giraffe	0	J	6	0	115	0		0	0	142.962409700005	143.062399699993
32896	0.0999868999933824	346	satiated	stimuli/non_foods\non-food_inanimate_chair.jpg	1	3	1	non-food_inanimate_chair	0	X	17	0	172	0		0	0	143.1124098	143.212396699993
32933.5	0.0999780999845825	347	satiated	stimuli/non_foods\non-food_inanimate_skirt.jpg	1	3	1	non-food_inanimate_skirt	0	M	9	0	209	0		0	0	143.262411200005	143.362389299989
32971	0.0999830999935511	348	satiated	stimuli/foods\cereal.jpg	1	3	1	cereal	1	G	4	0	22	0		0	0	143.412411700003	143.512394799996
33008.5	0.0999860999872908	349	satiated	stimuli/foods\eggplant.jpg	1	3	1	eggplant	1	C	1	0	46	0		0	0	143.562408600003	143.66239469999
33046	0.0999957000021823	350	satiated	stimuli/foods\chocolate_pralines.jpg	1	3	1	chocolate_pralines	1	N	10	0	28	0		0	0	143.712420700002	143.812416400004
33083.5	0.0999738999817055	351	satiated	stimuli/foods\gnocchi.jpg	1	3	1	gnocchi	1	M	9	0	58	0		0	0	143.862430400011	143.962404299993
33121	0.0999936999869533	352	satiated	stimuli/foods\rice_cake.jpg	1	3	1	rice_cake	1	H	5	0	258	0		0	0	144.012396800012	144.112390499999
33158.5	0.0999796000251081	353	satiated	stimuli/non_foods\non-food_inanimate_bucket.jpg	1	3	1	non-food_inanimate_bucket	0	T	14	0	165	0		0	0	144.162405899988	144.262385500013
33196	0.0999897999863606	354	satiated	stimuli/foods\hamburger.jpg	1	3	1	hamburger	1	X	17	0	64	0		0	0	144.312398600014	144.4123884
33233.5	0.0999840000004042	355	satiated	stimuli/foods\fries.jpg	1	3	1	fries	1	T	14	0	52	0		0	0	144.462399699987	144.562383699988
33271	0.0999778999830596	356	satiated	stimuli/foods\chilli.jpg	1	3	1	chilli	1	P	11	0	25	0		0	0	144.612396300014	144.712374199997
33308.5	0.100008799985517	357	satiated	stimuli/non_foods\non-food_animate_frog.jpg	1	3	1	non-food_animate_frog	0	G	4	0	113	0		0	0	144.762397000013	144.862405799999
33346	0.0999884000048041	358	satiated	stimuli/foods\baked_lamb_with_potatoes.jpg	1	3	1	baked_lamb_with_potatoes	1	E	20	1	8	0		0	0	144.912395099993	145.012383499998
33383.5	0.0999882000032812	359	satiated	stimuli/foods\oregano.jpg	1	3	1	oregano	1	P	11	0	231	0		0	0	145.062392699998	145.162380900001
33421	0.0999826999905054	360	satiated	stimuli/foods\red_cabbage.jpg	1	3	1	red_cabbage	1	B	0	0	256	0		0	0	145.212393099995	145.312375799986
33458.5	0.0999923000053968	361	satiated	stimuli/foods\omelette.jpg	1	3	1	omelette	1	W	16	0	228	1	a	0.443171999999322	1	145.362391800008	145.462384100014
33496	0.0999833999958355	362	satiated	stimuli/foods\cooked_prawn.jpg	1	3	1	cooked_prawn	1	M	9	0	36	0		0	0	145.512427500013	145.612410900008
33533.5	0.0999722999986261	363	satiated	stimuli/foods\artichoke.jpg	1	3	1	artichoke	1	X	17	0	3	0		0	0	145.662404100003	145.762376400002
33571	0.0999858000141103	364	satiated	stimuli/foods\potato_chips.jpg	1	3	1	potato_chips	1	K	7	0	247	0		0	0	145.812388999999	145.912374800013
33608.5	0.0999889000086114	365	satiated	stimuli/foods\baked_cod_with_carrots_and_green_beans.jpg	1	3	1	baked_cod_with_carrots_and_green_beans	1	N	10	0	7	0		0	0	145.962384599989	146.062373499997
33646	0.100001400016481	366	satiated	stimuli/foods\peas.jpg	1	3	1	peas	1	T	14	0	240	0		0	0	146.112370699993	146.21237210001
33683.5	0.0999851000087801	367	satiated	stimuli/foods\mango.jpg	1	3	1	mango	1	K	7	0	80	0		0	0	146.262384500005	146.362369600014
33721	0.0999863999895751	368	satiated	stimuli/foods\frankfurter_and_provolone_salad.jpg	1	3	1	frankfurter_and_provolone_salad	1	P	11	0	49	0		0	0	146.412381700007	146.512368099997
33758.5	0.100022400001762	369	satiated	stimuli/foods\chocolate_chip_cookies.jpg	1	3	1	chocolate_chip_cookies	1	B	0	0	27	0		0	0	146.5623739	146.662396300002
33796	0.0999786000174936	370	satiated	stimuli/non_foods\non-food_animate_cat.jpg	1	3	1	non-food_animate_cat	0	T	14	0	98	0		0	0	146.712385599996	146.812364200014
33833.5	0.0999881000025198	371	satiated	stimuli/non_foods\non-food_inanimate_gloves.jpg	1	3	1	non-food_inanimate_gloves	0	V	15	0	183	0		0	0	146.862378499995	146.962366599997
33871	0.0999917000008281	372	satiated	stimuli/foods\waffle.jpg	1	3	1	waffle	1	L	8	0	278	0		0	0	147.01237099999	147.112362699991
33908.5	0.0999978000181727	373	satiated	stimuli/foods\strawberry.jpg	1	3	1	strawberry	1	M	9	0	272	0		0	0	147.162379599991	147.262377400009
33946	0.0999759999976959	374	satiated	stimuli/non_foods\non-food_inanimate_soccer_ball.jpg	1	3	1	non-food_inanimate_soccer_ball	0	H	5	0	210	0		0	0	147.31238280001	147.412358800007
33983.5	0.100015000003623	375	satiated	stimuli/foods\lemon_meringue_pie.jpg	1	3	1	lemon_meringue_pie	1	C	1	0	73	0		0	0	147.462367	147.562382000004
34021	0.099972500000149	376	satiated	stimuli/foods\brownie.jpg	1	3	1	brownie	1	F	3	0	14	0		0	0	147.612369200011	147.712341700011
34058.5	0.0999835999973584	377	satiated	stimuli/non_foods\non-food_inanimate_button.jpg	1	3	1	non-food_inanimate_button	0	H	5	0	168	0		0	0	147.7623723	147.862355899997
34096	0.0999773000075947	378	satiated	stimuli/foods\bagel.jpg	1	3	1	bagel	1	G	4	0	6	0		0	0	147.912373200001	148.012350500008
34133.5	0.0999790000205394	379	satiated	stimuli/foods\fennel.jpg	1	3	1	fennel	1	X	17	0	47	0		0	0	148.062368999992	148.162348000013
34171	0.0999961000052281	380	satiated	stimuli/foods\ginger_root.jpg	1	3	1	ginger_root	1	P	11	0	57	0		0	0	148.212356700009	148.312352800014
34208.5	0.0999756999954116	381	satiated	stimuli/non_foods\non-food_animate_ram.jpg	1	3	1	non-food_animate_ram	0	J	6	0	140	0		0	0	148.362368500006	148.462344200001
34246	0.0999752000207081	382	satiated	stimuli/foods\fruit_flan.jpg	1	3	1	fruit_flan	1	Z	18	0	53	0		0	0	148.512382099987	148.612357300008
34283.5	0.100007200002437	383	satiated	stimuli/non_foods\non-food_animate_seahorse.jpg	1	3	1	non-food_animate_seahorse	0	M	9	0	145	0		0	0	148.662344899989	148.762352099991
34321	0.0999887999787461	384	satiated	stimuli/non_foods\non-food_inanimate_pine_cone.jpg	1	3	1	non-food_inanimate_pine_cone	0	P	11	0	200	0		0	0	148.81235990001	148.912348699989
34358.5	0.100021999998717	385	satiated	stimuli/foods\meatballs.jpg	1	3	1	meatballs	1	C	1	0	81	0		0	0	148.962358699995	149.062380699994
34396	0.0999285999860149	386	satiated	stimuli/foods\lamb_chops.jpg	1	3	1	lamb_chops	1	G	4	0	70	0		0	0	149.1124098	149.212338399986
34433.5	0.0999861000163946	387	satiated	stimuli/foods\almonds.jpg	1	3	1	almonds	1	L	8	0	0	0		0	0	149.262358999986	149.362345100002
34471	0.100001700018765	388	satiated	stimuli/foods\green_beans.jpg	1	3	1	green_beans	1	X	17	0	61	0		0	0	149.412344599987	149.512346300005
34508.5	0.0999765000015032	389	satiated	stimuli/foods\pomegranate.jpg	1	3	1	pomegranate	1	C	1	0	244	0		0	0	149.562355100003	149.662331600004
34546	0.0999970999837387	390	satiated	stimuli/foods\asparagus.jpg	1	3	1	asparagus	1	L	8	0	4	0		0	0	149.712345100008	149.812342199992
34583.5	0.0999901999894064	391	satiated	stimuli/non_foods\non-food_animate_clown.jpg	1	3	1	non-food_animate_clown	0	R	12	0	102	0		0	0	149.8623487	149.96233889999
34621	0.0999852000095416	392	satiated	stimuli/non_foods\non-food_animate_porcupine.jpg	1	3	1	non-food_animate_porcupine	0	K	7	0	138	0		0	0	150.012353500002	150.112338700012
34658.5	0.0999684999987949	393	satiated	stimuli/non_foods\non-food_animate_dragonfly.jpg	1	3	1	non-food_animate_dragonfly	0	Z	18	0	108	0		0	0	150.162370000005	150.262338500004
34696	0.0999852000095416	394	satiated	stimuli/foods\pear.jpg	1	3	1	pear	1	J	6	0	239	0		0	0	150.312350299995	150.412335500005
34733.5	0.0999862999888137	395	satiated	stimuli/foods\watermelon.jpg	1	3	1	watermelon	1	H	5	0	279	0		0	0	150.462348200002	150.562334499991
34771	0.0999868000217248	396	satiated	stimuli/non_foods\non-food_inanimate_orchid.jpg	1	3	1	non-food_inanimate_orchid	0	K	7	0	198	0		0	0	150.612347499991	150.712334300013
34808.5	0.0999982999928761	397	satiated	stimuli/non_foods\non-food_animate_Asian_man.jpg	1	3	1	non-food_animate_Asian_man	0	C	1	0	88	0		0	0	150.762346100004	150.862344399997
34846	0.0999577999755275	398	satiated	stimuli/foods\potato_and_green_bean_salad.jpg	1	3	1	potato_and_green_bean_salad	1	H	5	0	246	0		0	0	150.912370900012	151.012328699988
34883.5	0.0999828999920283	399	satiated	stimuli/foods\celery.jpg	1	3	1	celery	1	T	14	0	21	0		0	0	151.062343900005	151.162326799997
34921	0.0999851000087801	400	satiated	stimuli/non_foods\non-food_animate_caterpillar.jpg	1	3	1	non-food_animate_caterpillar	0	G	4	0	99	0		0	0	151.212340700004	151.312325800012
34958.5	0.0999846000049729	401	satiated	stimuli/non_foods\non-food_inanimate_chandelier.jpg	1	3	1	non-food_inanimate_chandelier	0	T	14	0	173	0		0	0	151.362342200009	151.462326800014
34996	0.0999809000059031	402	satiated	stimuli/non_foods\non-food_animate_butterfly.jpg	1	3	1	non-food_animate_butterfly	0	V	15	0	96	0		0	0	151.512344499992	151.612325399998
35033.5	0.0999868999933824	403	satiated	stimuli/foods\lasagna.jpg	1	3	1	lasagna	1	B	0	0	71	0		0	0	151.66234000001	151.762326900003
35071	0.0999857999850065	404	satiated	stimuli/non_foods\non-food_inanimate_highlighter.jpg	1	3	1	non-food_inanimate_highlighter	0	M	9	0	189	0		0	0	151.812340300006	151.912326099991
35108.5	0.099972500000149	405	satiated	stimuli/non_foods\non-food_inanimate_tent.jpg	1	3	1	non-food_inanimate_tent	0	Z	18	0	219	0		0	0	151.962347499997	152.062319999997
35146	0.099988600006327	406	satiated	stimuli/non_foods\non-food_animate_skunk.jpg	1	3	1	non-food_animate_skunk	0	J	6	0	147	0		0	0	152.112336699996	152.212325300003
35183.5	0.099969200004125	407	satiated	stimuli/foods\lentils.jpg	1	3	1	lentils	1	C	1	0	74	0		0	0	152.262340999994	152.362310199998
35221	0.0999961000052281	408	satiated	stimuli/non_foods\non-food_inanimate_rack.jpg	1	3	1	non-food_inanimate_rack	0	S	13	0	202	0		0	0	152.412323700002	152.512319800007
35258.5	0.100001299986616	409	satiated	stimuli/non_foods\non-food_animate_green_bug.jpg	1	3	1	non-food_animate_green_bug	0	W	16	0	118	0		0	0	152.562337400013	152.6623387
35296	0.0999834999965969	410	satiated	stimuli/non_foods\non-food_animate_cheetah.jpg	1	3	1	non-food_animate_cheetah	0	D	2	0	100	0		0	0	152.712332399999	152.812315899995
35333.5	0.0999851000087801	411	satiated	stimuli/non_foods\non-food_animate_gorilla.jpg	1	3	1	non-food_animate_gorilla	0	K	7	0	116	0		0	0	152.8623295	152.962314600009
35371	0.0999863999895751	412	satiated	stimuli/non_foods\non-food_animate_mammoth.jpg	1	3	1	non-food_animate_mammoth	0	J	6	0	128	0		0	0	153.012324300013	153.112310700002
35408.5	0.0999890000093728	413	satiated	stimuli/foods\chocolate_pudding.jpg	1	3	1	chocolate_pudding	1	T	14	0	29	0		0	0	153.162323299999	153.262312300008
35446	0.0999863999895751	414	satiated	stimuli/foods\papaya.jpg	1	3	1	papaya	1	K	7	0	235	0		0	0	153.3123242	153.41231059999
35483.5	0.0999882999749389	415	satiated	stimuli/non_foods\non-food_animate_peacock.jpg	1	3	1	non-food_animate_peacock	0	G	4	0	134	0		0	0	153.462322800013	153.562311099988
35521	0.0999861999880522	416	satiated	stimuli/non_foods\non-food_animate_ladybug.jpg	1	3	1	non-food_animate_ladybug	0	N	10	0	124	0		0	0	153.612319900014	153.712306100002
35558.5	0.0999802000005729	417	satiated	stimuli/non_foods\non-food_inanimate_stoplight.jpg	1	3	1	non-food_inanimate_stoplight	0	S	13	0	214	0		0	0	153.762326199998	153.862306399998
35596	0.0999775000091176	418	satiated	stimuli/foods\fried_calamari.jpg	1	3	1	fried_calamari	1	C	1	0	50	0		0	0	153.912318999995	154.012296500005
35633.5	0.0999882000032812	419	satiated	stimuli/non_foods\non-food_animate_llama.jpg	1	3	1	non-food_animate_llama	0	W	16	0	127	0		0	0	154.062315399991	154.162303599995
36025.25	0.0999767000030261	420	satiated	stimuli/foods\roasted_chicken.jpg	1	4	1	roasted_chicken	1	G	4	0	261	0		0	0	155.628974899999	155.728951600002
36062.75	0.0999804000020958	421	satiated	stimuli/non_foods\non-food_inanimate_hay.jpg	1	4	1	non-food_inanimate_hay	0	M	9	0	187	0		0	0	155.778975699999	155.878956100001
36100.25	0.099975799996173	422	satiated	stimuli/non_foods\non-food_inanimate_alarm_clock.jpg	1	4	1	non-food_inanimate_alarm_clock	0	H	5	0	158	0		0	0	155.928978100012	156.028953900008
36137.75	0.0999813000089489	423	satiated	stimuli/foods\wafer.jpg	1	4	1	wafer	1	F	3	0	277	0		0	0	156.078973600001	156.17895490001
36175.25	0.0999827999912668	424	satiated	stimuli/foods\coffee_beans.jpg	1	4	1	coffee_beans	1	G	4	0	34	0		0	0	156.228967300005	156.328950099996
36212.75	0.0999834999965969	425	satiated	stimuli/non_foods\non-food_inanimate_nailpolish.jpg	1	4	1	non-food_inanimate_nailpolish	0	S	13	0	195	0		0	0	156.378966599994	156.47895009999
36250.25	0.0999856000125874	426	satiated	stimuli/foods\smoked_ham.jpg	1	4	1	smoked_ham	1	Z	18	0	266	0		0	0	156.528964099998	156.628949700011
36287.75	0.0999832000234164	427	satiated	stimuli/foods\spring_onions.jpg	1	4	1	spring_onions	1	L	8	0	269	0		0	0	156.678963599988	156.778946800012
36325.25	0.0999941000191029	428	satiated	stimuli/foods\carrot.jpg	1	4	1	carrot	1	T	14	0	19	0		0	0	156.82895309999	156.928947200009
36362.75	0.100012100010645	429	satiated	stimuli/foods\donut.jpg	1	4	1	donut	1	P	11	0	44	0		0	0	156.978938099986	157.078950199997
36400.25	0.0999771000060719	430	satiated	stimuli/non_foods\non-food_inanimate_leaf.jpg	1	4	1	non-food_inanimate_leaf	0	C	1	0	192	0		0	0	157.128972200007	157.228949300013
36437.75	0.0999872999964282	431	satiated	stimuli/non_foods\non-food_animate_elephant.jpg	1	4	1	non-food_animate_elephant	0	L	8	0	111	0		0	0	157.278948599997	157.378935899993
36475.25	0.0999784999876283	432	satiated	stimuli/non_foods\non-food_animate_duck.jpg	1	4	1	non-food_animate_duck	0	V	15	0	109	0		0	0	157.428957199998	157.528935699986
36512.75	0.0999683999980334	433	satiated	stimuli/non_foods\non-food_animate_sea_turtle.jpg	1	4	1	non-food_animate_sea_turtle	0	X	17	0	144	0		0	0	157.578957099991	157.678925499989
36550.25	0.0999405999900773	434	satiated	stimuli/foods\dates.jpg	1	4	1	dates	1	M	9	0	43	0		0	0	157.728972300014	157.828912900004
36587.75	0.0999820999859367	435	satiated	stimuli/non_foods\non-food_inanimate_folding_chair.jpg	1	4	1	non-food_inanimate_folding_chair	0	X	17	0	182	0		0	0	157.878948500002	157.978930599988
36625.25	0.0999567000253592	436	satiated	stimuli/foods\nectarine.jpg	1	4	1	nectarine	1	F	3	0	87	0		0	0	158.028954799986	158.128911500011
36662.75	0.099982000014279	437	satiated	stimuli/foods\clams.jpg	1	4	1	clams	1	T	14	0	32	0		0	0	158.178952799994	158.278934800008
36700.25	0.0999862999888137	438	satiated	stimuli/non_foods\non-food_inanimate_construction_helment.jpg	1	4	1	non-food_inanimate_construction_helment	0	L	8	0	175	0		0	0	158.328948000009	158.428934299998
36737.75	0.0999893000116572	439	satiated	stimuli/non_foods\non-food_animate_alligator.jpg	1	4	1	non-food_animate_alligator	0	T	14	0	90	0		0	0	158.478943599999	158.578932900011
36775.25	0.0999857999850065	440	satiated	stimuli/non_foods\non-food_inanimate_table.jpg	1	4	1	non-food_inanimate_table	0	S	13	0	217	0		0	0	158.628945700009	158.728931499994
36812.75	0.0999828999920283	441	satiated	stimuli/foods\cauliflower.jpg	1	4	1	cauliflower	1	F	3	0	20	0		0	0	158.77894650001	158.878929400002
36850.25	0.0999851000087801	442	satiated	stimuli/foods\swordfish.jpg	1	4	1	swordfish	1	C	1	0	273	0		0	0	158.928944899992	159.02893
36887.75	0.0999847000057343	443	satiated	stimuli/non_foods\non-food_inanimate_toilet.jpg	1	4	1	non-food_inanimate_toilet	0	D	2	0	220	0		0	0	159.078937899991	159.178922599996
36925.25	0.0999833999958355	444	satiated	stimuli/non_foods\non-food_animate_killer_whale.jpg	1	4	1	non-food_animate_killer_whale	0	W	16	0	123	0		0	0	159.228943499998	159.328926899994
36962.75	0.0999925000069197	445	satiated	stimuli/non_foods\non-food_animate_bat.jpg	1	4	1	non-food_animate_bat	0	D	2	0	94	0		0	0	159.378937200003	159.47892970001
37000.25	0.0999484000203665	446	satiated	stimuli/foods\corncob.jpg	1	4	1	corncob	1	B	0	0	37	0		0	0	159.528959399991	159.628907800012
37037.75	0.100001099985093	447	satiated	stimuli/non_foods\non-food_animate_sea_lion.jpg	1	4	1	non-food_animate_sea_lion	0	H	5	0	143	0		0	0	159.678920200007	159.778921299992
37075.25	0.0999843000026885	448	satiated	stimuli/non_foods\non-food_animate_dolphin.jpg	1	4	1	non-food_animate_dolphin	0	R	12	0	106	0		0	0	159.828935099998	159.928919400001
37112.75	0.0999851000087801	449	satiated	stimuli/foods\museli_bars.jpg	1	4	1	museli_bars	1	J	6	0	84	0		0	0	159.978934399987	160.078919499996
37150.25	0.0999863000179175	450	satiated	stimuli/non_foods\non-food_inanimate_tree.jpg	1	4	1	non-food_inanimate_tree	0	S	13	0	223	0		0	0	160.128931899992	160.22891820001
37187.75	0.0999858000141103	451	satiated	stimuli/non_foods\non-food_animate_chicken.jpg	1	4	1	non-food_animate_chicken	0	C	1	0	101	0		0	0	160.278931899986	160.3789177
37225.25	0.099989700014703	452	satiated	stimuli/foods\orange.jpg	1	4	1	orange	1	T	14	0	230	0		0	0	160.428924999986	160.5289147
37262.75	0.0999875000270549	453	satiated	stimuli/non_foods\non-food_animate_ant.jpg	1	4	1	non-food_animate_ant	0	L	8	0	91	0		0	0	160.578929699986	160.678917200014
37300.25	0.0999779999838211	454	satiated	stimuli/foods\cinnamon.jpg	1	4	1	cinnamon	1	F	3	0	30	0		0	0	160.728937700012	160.828915699996
37337.75	0.0999860999872908	455	satiated	stimuli/non_foods\non-food_inanimate_fern.jpg	1	4	1	non-food_inanimate_fern	0	N	10	0	180	0		0	0	160.878930100007	160.978916199994
37375.25	0.0999866999918595	456	satiated	stimuli/non_foods\non-food_inanimate_padlock.jpg	1	4	1	non-food_inanimate_padlock	0	T	14	0	199	0		0	0	161.028926900006	161.128913599998
37412.75	0.0999887999787461	457	satiated	stimuli/foods\capsicum.jpg	1	4	1	capsicum	1	W	16	0	18	0		0	0	161.178924100008	161.278912899987
37450.25	0.0999841000011656	458	satiated	stimuli/non_foods\non-food_inanimate_broom.jpg	1	4	1	non-food_inanimate_broom	0	L	8	0	164	0		0	0	161.328924700007	161.428908800008
37487.75	0.0999778999830596	459	satiated	stimuli/foods\grilled_chicken_breast.jpg	1	4	1	grilled_chicken_breast	1	H	5	0	63	0		0	0	161.478921300004	161.578899199987
37525.25	0.099977800011402	460	satiated	stimuli/non_foods\non-food_animate_slug.jpg	1	4	1	non-food_animate_slug	0	N	10	0	148	0		0	0	161.628924699995	161.728902500006
37562.75	0.0999838999996427	461	satiated	stimuli/foods\kiwi.jpg	1	4	1	kiwi	1	X	17	0	69	0		0	0	161.778919600009	161.878903500008
37600.25	0.0999798999982886	462	satiated	stimuli/non_foods\non-food_inanimate_shell.jpg	1	4	1	non-food_inanimate_shell	0	V	15	0	206	0		0	0	161.928921899991	162.028901799989
37637.75	0.0999846000049729	463	satiated	stimuli/foods\pumpkin.jpg	1	4	1	pumpkin	1	B	0	0	250	0		0	0	162.078914499987	162.178899099992
37675.25	0.0999800999998115	464	satiated	stimuli/foods\mortadella.jpg	1	4	1	mortadella	1	G	4	0	83	0		0	0	162.228913400002	162.328893500002
37712.75	0.0999753999931272	465	satiated	stimuli/non_foods\non-food_animate_yellow_bug.jpg	1	4	1	non-food_animate_yellow_bug	0	C	1	0	155	0		0	0	162.378906700003	162.478882099997
37750.25	0.0999895000131801	466	satiated	stimuli/non_foods\non-food_animate_iguana.jpg	1	4	1	non-food_animate_iguana	0	X	17	0	121	0		0	0	162.528902299993	162.628891800006
37787.75	0.0999925999785773	467	satiated	stimuli/non_foods\non-food_inanimate_canoe.jpg	1	4	1	non-food_inanimate_canoe	0	H	5	0	170	0		0	0	162.678912500007	162.778905099985
37825.25	0.0999885999772232	468	satiated	stimuli/foods\chestnut.jpg	1	4	1	chestnut	1	X	17	0	24	0		0	0	162.828910000011	162.928898599988
37862.75	0.0999884000048041	469	satiated	stimuli/non_foods\non-food_animate_parrot.jpg	1	4	1	non-food_animate_parrot	0	M	9	0	133	0		0	0	162.978907699988	163.078896099993
37900.25	0.0999676999927033	470	satiated	stimuli/foods\fruit_pie.jpg	1	4	1	fruit_pie	1	W	16	0	54	0		0	0	163.128930100007	163.2288978
37937.75	0.099981100007426	471	satiated	stimuli/non_foods\non-food_inanimate_guitar.jpg	1	4	1	non-food_inanimate_guitar	0	J	6	0	185	0		0	0	163.278909199988	163.378890299995
37975.25	0.0999922000046354	472	satiated	stimuli/foods\pancakes.jpg	1	4	1	pancakes	1	U	23	1	234	0		0	0	163.428898499988	163.528890699992
38012.75	0.0999808999767993	473	satiated	stimuli/foods\red_beans.jpg	1	4	1	red_beans	1	P	11	0	255	0		0	0	163.578906500014	163.67888739999
38050.25	0.0999851999804378	474	satiated	stimuli/foods\hazelnuts.jpg	1	4	1	hazelnuts	1	M	9	0	65	0		0	0	163.728902800009	163.828887999989
38087.75	0.0999866999918595	475	satiated	stimuli/non_foods\non-food_animate_millipede.jpg	1	4	1	non-food_animate_millipede	0	Z	18	0	129	1	a	0.443191400001524	1	163.878901999997	163.978888699989
38125.25	0.0999866000202019	476	satiated	stimuli/non_foods\non-food_inanimate_bicycle.jpg	1	4	1	non-food_inanimate_bicycle	0	P	11	0	161	0		0	0	164.028894699994	164.128881300014
38162.5	0.100010699999984	477	satiated	stimuli/foods\honey.jpg	1	4	1	honey	1	L	8	0	66	0		0	0	164.178875499987	164.278886199987
38200.25	0.0999824000173248	478	satiated	stimuli/non_foods\non-food_animate_lion.jpg	1	4	1	non-food_animate_lion	0	H	5	0	125	0		0	0	164.328902899986	164.428885300003
38237.75	0.099982000014279	479	satiated	stimuli/non_foods\non-food_animate_horse.jpg	1	4	1	non-food_animate_horse	0	N	10	0	119	0		0	0	164.478897499997	164.578879500012
38275.25	0.0999769999762066	480	satiated	stimuli/foods\cream_donuts.jpg	1	4	1	cream_donuts	1	Z	18	0	39	0		0	0	164.628896400012	164.728873399989
38312.75	0.0999636999913491	481	satiated	stimuli/non_foods\non-food_animate_seal.jpg	1	4	1	non-food_animate_seal	0	C	1	0	146	0		0	0	164.778914299997	164.878877999989
38350.25	0.0999846000049729	482	satiated	stimuli/foods\cinnamon_sroll.jpg	1	4	1	cinnamon_sroll	1	K	7	0	31	0		0	0	164.928908700007	165.028893300012
38387.5	0.0999882000032812	483	satiated	stimuli/non_foods\non-food_animate_squirrel.jpg	1	4	1	non-food_animate_squirrel	0	J	6	0	150	0		0	0	165.078887799988	165.178875999991
38425.25	0.0999871999956667	484	satiated	stimuli/foods\pasta_carbonara.jpg	1	4	1	pasta_carbonara	1	D	2	0	236	0		0	0	165.228889099992	165.328876299987
38462.75	0.0999873999971896	485	satiated	stimuli/foods\fried_zucchini.jpg	1	4	1	fried_zucchini	1	G	4	0	51	0		0	0	165.378887700004	165.478875100001
38500.25	0.0999784999876283	486	satiated	stimuli/non_foods\non-food_inanimate_rope.jpg	1	4	1	non-food_inanimate_rope	0	Z	18	0	204	0		0	0	165.528885600012	165.628864099999
38537.5	0.0999859999865294	487	satiated	stimuli/non_foods\non-food_inanimate_protractor.jpg	1	4	1	non-food_inanimate_protractor	0	D	2	0	201	0		0	0	165.6788772	165.778863199987
38575	0.0999797999975272	488	satiated	stimuli/foods\apple.jpg	1	4	1	apple	1	Z	18	0	1	0		0	0	165.828875700012	165.928855500009
38612.5	0.10000669999863	489	satiated	stimuli/non_foods\non-food_animate_cow.jpg	1	4	1	non-food_animate_cow	0	V	15	0	103	0		0	0	165.978856300004	166.078863000002
38650	0.0999764000007417	490	satiated	stimuli/foods\lime.jpg	1	4	1	lime	1	H	5	0	76	0		0	0	166.128875800001	166.228852200002
38687.5	0.100009499990847	491	satiated	stimuli/non_foods\non-food_inanimate_horn.jpg	1	4	1	non-food_inanimate_horn	0	M	9	0	190	0		0	0	166.278861300001	166.378870799992
38725	0.0999908999947365	492	satiated	stimuli/foods\pepperoni_pizza.jpg	1	4	1	pepperoni_pizza	1	F	3	0	241	0		0	0	166.428873099998	166.528863999993
38762.75	0.0999777999822982	493	satiated	stimuli/non_foods\non-food_inanimate_toy_airplane.jpg	1	4	1	non-food_inanimate_toy_airplane	0	H	5	0	222	0		0	0	166.578887200012	166.678864999994
38800.25	0.0999651000020094	494	satiated	stimuli/foods\figs.jpg	1	4	1	figs	1	R	12	0	48	0		0	0	166.728888999991	166.828854099993
38837.5	0.0999823000165634	495	satiated	stimuli/foods\brie.jpg	1	4	1	brie	1	K	7	0	12	0		0	0	166.878867499996	166.978849800013
38875	0.100008200010052	496	satiated	stimuli/foods\cooked_ham.jpg	1	4	1	cooked_ham	1	X	17	0	35	0		0	0	167.028857600002	167.128865800012
38912.5	0.100010800000746	497	satiated	stimuli/foods\grapefruits.jpg	1	4	1	grapefruits	1	R	12	0	59	0		0	0	167.178847800009	167.27885860001
38950.25	0.0999870999949053	498	satiated	stimuli/non_foods\non-food_animate_woman.jpg	1	4	1	non-food_animate_woman	0	D	2	0	154	0		0	0	167.328873799997	167.428860899992
38987.75	0.0999833999958355	499	satiated	stimuli/non_foods\non-food_inanimate_towel.jpg	1	4	1	non-food_inanimate_towel	0	N	10	0	221	0		0	0	167.47887240001	167.578855800006
39025.25	0.0999895999848377	500	satiated	stimuli/foods\minestrone_soup.jpg	1	4	1	minestrone_soup	1	B	0	0	82	0		0	0	167.628868600004	167.728858199989
39062.75	0.0999651000020094	501	satiated	stimuli/foods\blackberry.jpg	1	4	1	blackberry	1	S	13	0	11	0		0	0	167.778889899986	167.878854999988
39100.25	0.0999819999851752	502	satiated	stimuli/foods\avocado.jpg	1	4	1	avocado	1	C	1	0	5	0		0	0	167.928869700001	168.028851699986
39137.75	0.0999804999737535	503	satiated	stimuli/foods\peach.jpg	1	4	1	peach	1	F	3	0	238	0		0	0	168.078868300014	168.178848799987
39175	0.0999872999964282	504	satiated	stimuli/foods\cucumber.jpg	1	4	1	cucumber	1	N	10	0	41	0		0	0	168.228864100005	168.328851400001
39212.75	0.0999705000140239	505	satiated	stimuli/foods\garlic.jpg	1	4	1	garlic	1	S	13	0	56	0		0	0	168.378869999986	168.4788405
39250	0.0999887000070885	506	satiated	stimuli/foods\fruit_salad.jpg	1	4	1	fruit_salad	1	J	6	0	55	0		0	0	168.52885989999	168.628848599998
39287.75	0.0999850000080187	507	satiated	stimuli/non_foods\non-food_animate_penguin.jpg	1	4	1	non-food_animate_penguin	0	M	9	0	135	0		0	0	168.678860099986	168.778845099994
39325.25	0.0999854999827221	508	satiated	stimuli/foods\mussels.jpg	1	4	1	mussels	1	P	11	0	86	0		0	0	168.828860600013	168.928846099996
39362.75	0.0999868000217248	509	satiated	stimuli/foods\hotdog.jpg	1	4	1	hotdog	1	N	10	0	67	0		0	0	168.978858599992	169.078845400014
39400	0.0999621000082698	510	satiated	stimuli/foods\steak.jpg	1	4	1	steak	1	D	2	0	270	0		0	0	169.128855399991	169.228817499999
39437.5	0.0999937999877147	511	satiated	stimuli/foods\savory_pie.jpg	1	4	1	savory_pie	1	S	13	0	265	0		0	0	169.278847500012	169.3788413
39475	0.100003900006413	512	satiated	stimuli/foods\taco.jpg	1	4	1	taco	1	Z	18	0	274	0		0	0	169.428834199993	169.528838099999
39512.75	0.0999843000026885	513	satiated	stimuli/non_foods\non-food_animate_hummingbird.jpg	1	4	1	non-food_animate_hummingbird	0	K	7	0	120	0		0	0	169.578854599997	169.678838899999
39550	0.0999870999949053	514	satiated	stimuli/non_foods\non-food_animate_fox.jpg	1	4	1	non-food_animate_fox	0	H	5	0	112	0		0	0	169.728851799999	169.828838899994
39587.5	0.100004699983401	515	satiated	stimuli/foods\salami.jpg	1	4	1	salami	1	K	7	0	263	0		0	0	169.878845900006	169.97885059999
39625	0.0999723999993876	516	satiated	stimuli/non_foods\non-food_inanimate_clover.jpg	1	4	1	non-food_inanimate_clover	0	R	12	0	174	0		0	0	170.028842	170.128814399999
39662.75	0.0999868999933824	517	satiated	stimuli/foods\raw_ham.jpg	1	4	1	raw_ham	1	Z	18	0	253	0		0	0	170.178849799995	170.278836699988
39700.25	0.0999738999817055	518	satiated	stimuli/non_foods\non-food_inanimate_cactus_pot_plant.jpg	1	4	1	non-food_inanimate_cactus_pot_plant	0	K	7	0	169	0		0	0	170.328848800011	170.428822699992
39737.5	0.0999870999949053	519	satiated	stimuli/non_foods\non-food_inanimate_skateboard.jpg	1	4	1	non-food_inanimate_skateboard	0	W	16	0	208	0		0	0	170.478842000011	170.578829100006
39775	0.0999825999897439	520	satiated	stimuli/foods\cupcake.jpg	1	4	1	cupcake	1	H	5	0	42	0		0	0	170.628846000007	170.728828599997
39812.5	0.0999691000033636	521	satiated	stimuli/foods\onion.jpg	1	4	1	onion	1	V	15	0	229	0		0	0	170.778836499987	170.87880559999
39850.25	0.0999678000225686	522	satiated	stimuli/non_foods\non-food_inanimate_desk.jpg	1	4	1	non-food_inanimate_desk	0	C	1	0	178	0		0	0	170.928852699988	171.028820500011
39887.5	0.099987699999474	523	satiated	stimuli/non_foods\non-food_inanimate_bamboo.jpg	1	4	1	non-food_inanimate_bamboo	0	M	9	0	159	0		0	0	171.078829100006	171.178816800006
39925	0.099986599991098	524	satiated	stimuli/foods\cannoli.jpg	1	4	1	cannoli	1	L	8	0	17	0		0	0	171.22883040001	171.328817000001
39962.5	0.0999789000197779	525	satiated	stimuli/foods\mandarin.jpg	1	4	1	mandarin	1	E	20	1	79	0		0	0	171.378836299991	171.478815200011
40000	0.0999870999949053	526	satiated	stimuli/non_foods\non-food_inanimate_watering_can.jpg	1	4	1	non-food_inanimate_watering_can	0	T	14	0	225	0		0	0	171.528827000002	171.628814099997
40037.5	0.0999825999897439	527	satiated	stimuli/non_foods\non-food_inanimate_buds.jpg	1	4	1	non-food_inanimate_buds	0	D	2	0	166	1	a	0.391826200007927	1	171.678839300002	171.778821899992
40075	0.0999847000057343	528	satiated	stimuli/non_foods\non-food_animate_rhino.jpg	1	4	1	non-food_animate_rhino	0	M	9	0	141	0		0	0	171.828834199987	171.928818899993
40112.75	0.0999654000042938	529	satiated	stimuli/foods\coconut.jpg	1	4	1	coconut	1	H	5	0	33	0		0	0	171.978855299996	172.078820700001
40150	0.0999882000032812	530	satiated	stimuli/non_foods\non-food_animate_snail.jpg	1	4	1	non-food_animate_snail	0	R	12	0	149	0		0	0	172.128828899993	172.228817099996
40187.5	0.0999824999889825	531	satiated	stimuli/foods\croissant.jpg	1	4	1	croissant	1	G	4	0	40	0		0	0	172.278831400006	172.378813899995
40225	0.0999826999905054	532	satiated	stimuli/non_foods\non-food_animate_kangaroo.jpg	1	4	1	non-food_animate_kangaroo	0	M	9	0	122	0		0	0	172.428830799996	172.528813499986
40262.5	0.0999890999810304	533	satiated	stimuli/foods\broccoli.jpg	1	4	1	broccoli	1	K	7	0	13	0		0	0	172.578825700009	172.678814799991
40300	0.0999868999933824	534	satiated	stimuli/non_foods\non-food_animate_eagle.jpg	1	4	1	non-food_animate_eagle	0	C	1	0	110	0		0	0	172.728827000014	172.828813900007
40337.5	0.0999840000004042	535	satiated	stimuli/non_foods\non-food_inanimate_cupboard.jpg	1	4	1	non-food_inanimate_cupboard	0	K	7	0	177	0		0	0	172.878825499996	172.978809499997
40375	0.0999758999969345	536	satiated	stimuli/foods\salmon.jpg	1	4	1	salmon	1	B	0	0	264	0		0	0	173.0288267	173.128802599997
40412.5	0.0999897999863606	537	satiated	stimuli/non_foods\non-food_animate_lizard.jpg	1	4	1	non-food_animate_lizard	0	J	6	0	126	0		0	0	173.178820300003	173.27881009999
40450	0.0999768000037875	538	satiated	stimuli/non_foods\non-food_animate_german_shepherd.jpg	1	4	1	non-food_animate_german_shepherd	0	T	14	0	114	0		0	0	173.328831599996	173.4288084
40487.5	0.100003200001083	539	satiated	stimuli/non_foods\non-food_inanimate_nest.jpg	1	4	1	non-food_inanimate_nest	0	F	3	0	196	0		0	0	173.47879210001	173.578795300011
40525	0.0999910999962594	540	satiated	stimuli/non_foods\non-food_inanimate_bush.jpg	1	4	1	non-food_inanimate_bush	0	V	15	0	167	0		0	0	173.628819500009	173.728810600005
40562.5	0.0999775000091176	541	satiated	stimuli/non_foods\non-food_inanimate_wrench.jpg	1	4	1	non-food_inanimate_wrench	0	J	6	0	227	0		0	0	173.7787962	173.878773700009
40600	0.0999873999971896	542	satiated	stimuli/foods\pickles.jpg	1	4	1	pickles	1	X	17	0	242	0		0	0	173.928814899991	174.028802299988
40637.5	0.0999874999979511	543	satiated	stimuli/foods\cabbage.jpg	1	4	1	cabbage	1	N	10	0	16	0		0	0	174.078816699999	174.178804199997
40675	0.100019000004977	544	satiated	stimuli/foods\cherry.jpg	1	4	1	cherry	1	K	7	0	23	0		0	0	174.228812099987	174.328831099992
40712.5	0.0999855999834836	545	satiated	stimuli/non_foods\non-food_inanimate_grass.jpg	1	4	1	non-food_inanimate_grass	0	C	1	0	184	0		0	0	174.378811300005	174.478796899988
40750.25	0.0999807000043802	546	satiated	stimuli/non_foods\non-food_inanimate_drum_set.jpg	1	4	1	non-food_inanimate_drum_set	0	L	8	0	179	0		0	0	174.528814199992	174.628794899996
40787.5	0.0999884000048041	547	satiated	stimuli/non_foods\non-food_animate_camel.jpg	1	4	1	non-food_animate_camel	0	S	13	0	97	0		0	0	174.678807499993	174.778795899998
40825.25	0.0999723999993876	548	satiated	stimuli/foods\toasted_bread_with_tomatoes.jpg	1	4	1	toasted_bread_with_tomatoes	1	C	1	0	275	0		0	0	174.828822300013	174.928794700012
40862.5	0.0999868999933824	549	satiated	stimuli/foods\banana.jpg	1	4	1	banana	1	B	0	0	9	0		0	0	174.978805099992	175.078791999986
40900	0.0999773000075947	550	satiated	stimuli/non_foods\non-food_animate_mouse.jpg	1	4	1	non-food_animate_mouse	0	C	1	0	131	0		0	0	175.12880559999	175.228782899998
40937.5	0.0999991999997292	551	satiated	stimuli/foods\chocolate_bar.jpg	1	4	1	chocolate_bar	1	D	2	0	26	0		0	0	175.2787924	175.3787916
40975	0.0999742000130937	552	satiated	stimuli/foods\tomato.jpg	1	4	1	tomato	1	G	4	0	276	0		0	0	175.428815599997	175.52878980001
41012.75	0.0999701000109781	553	satiated	stimuli/foods\ice_cream.jpg	1	4	1	ice_cream	1	T	14	0	68	0		0	0	175.578820700001	175.678790800011
41050	0.0999815999821294	554	satiated	stimuli/foods\apricot.jpg	1	4	1	apricot	1	M	9	0	2	0		0	0	175.728799200006	175.828780799988
41087.5	0.0999926000076812	555	satiated	stimuli/foods\lettuce.jpg	1	4	1	lettuce	1	V	15	0	75	0		0	0	175.878786999994	175.978779600002
41125	0.100006000022404	556	satiated	stimuli/non_foods\non-food_animate_donkey.jpg	1	4	1	non-food_animate_donkey	0	D	2	0	107	0		0	0	176.028782899986	176.128788900009
41162.5	0.0999843000026885	557	satiated	stimuli/non_foods\non-food_inanimate_ring.jpg	1	4	1	non-food_inanimate_ring	0	C	1	0	203	0		0	0	176.178798100009	176.278782400012
41200	0.09998440000345	558	satiated	stimuli/foods\brussel_sprouts.jpg	1	4	1	brussel_sprouts	1	V	15	0	15	0		0	0	176.328797099995	176.428781499999
41237.5	0.0999771000060719	559	satiated	stimuli/foods\beetroots.jpg	1	4	1	beetroots	1	B	0	0	10	0		0	0	176.478796599986	176.578773699992
41704.25	0.0999828999920283	560	satiated	stimuli/foods\cauliflower.jpg	1	5	1	cauliflower	1	H	5	0	20	0		0	0	178.345446599997	178.445429499989
41741.75	0.0999852000095416	561	satiated	stimuli/non_foods\non-food_inanimate_guitar.jpg	1	5	1	non-food_inanimate_guitar	0	K	7	0	185	0		0	0	178.495447099995	178.595432300004
41779.25	0.0999814000097103	562	satiated	stimuli/non_foods\non-food_animate_skunk.jpg	1	5	1	non-food_animate_skunk	0	N	10	0	147	0		0	0	178.645447999996	178.745429400005
41816.75	0.0999742000130937	563	satiated	stimuli/foods\spring_onions.jpg	1	5	1	spring_onions	1	W	16	0	269	0		0	0	178.795437199995	178.895411400008
41854.25	0.099981499981368	564	satiated	stimuli/non_foods\non-food_animate_llama.jpg	1	5	1	non-food_animate_llama	0	T	14	0	127	0		0	0	178.945443400007	179.045424899989
41891.75	0.0999834999965969	565	satiated	stimuli/non_foods\non-food_inanimate_toilet.jpg	1	5	1	non-food_inanimate_toilet	0	M	9	0	220	0		0	0	179.095442699996	179.195426199993
41929.25	0.099976900004549	566	satiated	stimuli/foods\tomato.jpg	1	5	1	tomato	1	F	3	0	276	0		0	0	179.245431799995	179.345408699999
41966.75	0.100012200011406	567	satiated	stimuli/non_foods\non-food_animate_bee.jpg	1	5	1	non-food_animate_bee	0	H	5	0	95	0		0	0	179.395442899986	179.495455099997
42004.25	0.0999858999857679	568	satiated	stimuli/non_foods\non-food_animate_tortoise.jpg	1	5	1	non-food_animate_tortoise	0	K	7	0	153	0		0	0	179.545427000005	179.64541289999
42041.75	0.0999854999827221	569	satiated	stimuli/non_foods\non-food_animate_polar_bear.jpg	1	5	1	non-food_animate_polar_bear	0	W	16	0	137	0		0	0	179.695428800012	179.795414299995
42079.25	0.0999677000218071	570	satiated	stimuli/foods\papaya.jpg	1	5	1	papaya	1	L	8	0	235	0		0	0	179.845422999992	179.945390700013
42116.75	0.0999679999949876	571	satiated	stimuli/non_foods\non-food_animate_student_female.jpg	1	5	1	non-food_animate_student_female	0	P	11	0	151	1	a	0	0	179.995442000014	180.095410000009
42154.25	0.100008600013098	572	satiated	stimuli/non_foods\non-food_animate_rhino.jpg	1	5	1	non-food_animate_rhino	0	T	14	0	141	0		0	0	180.145417799999	180.245426400012
42191.75	0.0999819999851752	573	satiated	stimuli/non_foods\non-food_inanimate_suitcase.jpg	1	5	1	non-food_inanimate_suitcase	0	V	15	0	215	0		0	0	180.295424200012	180.395406199998
42229.25	0.0999683999980334	574	satiated	stimuli/foods\brussel_sprouts.jpg	1	5	1	brussel_sprouts	1	C	1	0	15	0		0	0	180.445422599994	180.545390999992
42266.75	0.0999742999847513	575	satiated	stimuli/foods\raw_ham.jpg	1	5	1	raw_ham	1	B	0	0	253	0		0	0	180.595428700006	180.695402999991
42304.25	0.099963700020453	576	satiated	stimuli/non_foods\non-food_animate_woman.jpg	1	5	1	non-food_animate_woman	0	H	5	0	154	0		0	0	180.745420199994	180.845383900014
42341.75	0.099979099992197	577	satiated	stimuli/non_foods\non-food_animate_penguin.jpg	1	5	1	non-food_animate_penguin	0	P	11	0	135	0		0	0	180.89542700001	180.995406100003
42379.25	0.0999916000000667	578	satiated	stimuli/foods\beetroots.jpg	1	5	1	beetroots	1	M	9	0	10	0		0	0	181.045418499998	181.145410099998
42416.75	0.09998440000345	579	satiated	stimuli/foods\garlic.jpg	1	5	1	garlic	1	J	6	0	56	0		0	0	181.195426799997	181.295411200001
42454.25	0.0999813999806065	580	satiated	stimuli/non_foods\non-food_inanimate_rope.jpg	1	5	1	non-food_inanimate_rope	0	V	15	0	204	0		0	0	181.345424900006	181.445406299987
42491.75	0.0999588000122458	581	satiated	stimuli/foods\mango.jpg	1	5	1	mango	1	R	12	0	80	0		0	0	181.495445899985	181.595404699998
42529.25	0.0999961000052281	582	satiated	stimuli/foods\fruit_pie.jpg	1	5	1	fruit_pie	1	L	8	0	54	0		0	0	181.645409999997	181.745406100003
42566.75	0.0999896999855991	583	satiated	stimuli/non_foods\non-food_animate_mouse.jpg	1	5	1	non-food_animate_mouse	0	C	1	0	131	0		0	0	181.795405100012	181.895394799998
42604.25	0.0999907999939751	584	satiated	stimuli/foods\lamb_chops.jpg	1	5	1	lamb_chops	1	J	6	0	70	0		0	0	181.945415299997	182.045406099991
42641.75	0.0999826999905054	585	satiated	stimuli/non_foods\non-food_animate_sea_lion.jpg	1	5	1	non-food_animate_sea_lion	0	X	17	0	143	0		0	0	182.095415799995	182.195398499985
42679.25	0.0999759999976959	586	satiated	stimuli/foods\fried_zucchini.jpg	1	5	1	fried_zucchini	1	H	5	0	51	0		0	0	182.245410300005	182.345386300003
42716.75	0.0999752999923658	587	satiated	stimuli/foods\meatballs.jpg	1	5	1	meatballs	1	W	16	0	81	0		0	0	182.395414500003	182.495389799995
42754.25	0.100001899991184	588	satiated	stimuli/non_foods\non-food_inanimate_couch.jpg	1	5	1	non-food_inanimate_couch	0	V	15	0	176	0		0	0	182.545384199999	182.64538609999
42791.75	0.0999676000210457	589	satiated	stimuli/foods\cereal.jpg	1	5	1	cereal	1	S	13	0	22	0		0	0	182.695413799986	182.795381400007
42829.25	0.100000699982047	590	satiated	stimuli/foods\fruit_flan.jpg	1	5	1	fruit_flan	1	F	3	0	53	0		0	0	182.845386400004	182.945387099986
42866.75	0.09997049998492	591	satiated	stimuli/non_foods\non-food_animate_ladybug.jpg	1	5	1	non-food_animate_ladybug	0	S	13	0	124	0		0	0	182.995399000007	183.095369499992
42904.25	0.0999825999897439	592	satiated	stimuli/non_foods\non-food_animate_seahorse.jpg	1	5	1	non-food_animate_seahorse	0	Z	18	0	145	0		0	0	183.145403700008	183.245386299997
42941.75	0.0999929000099655	593	satiated	stimuli/non_foods\non-food_inanimate_stoplight.jpg	1	5	1	non-food_inanimate_stoplight	0	F	3	0	214	0		0	0	183.295390099986	183.395382999995
42979.25	0.0999738000100479	594	satiated	stimuli/foods\lime.jpg	1	5	1	lime	1	R	12	0	76	0		0	0	183.445403899997	183.545377700008
43016.75	0.0999855999834836	595	satiated	stimuli/foods\bagel.jpg	1	5	1	bagel	1	J	6	0	6	0		0	0	183.595406800014	183.695392399997
43054.25	0.0999849000072572	596	satiated	stimuli/foods\lemon.jpg	1	5	1	lemon	1	Z	18	0	72	0		0	0	183.745403899986	183.845388799993
43091.75	0.0999829000211321	597	satiated	stimuli/foods\strawberry.jpg	1	5	1	strawberry	1	J	6	0	272	0		0	0	183.895405399991	183.995388300013
43129.25	0.0999825999897439	598	satiated	stimuli/foods\minestrone_soup.jpg	1	5	1	minestrone_soup	1	R	12	0	82	0		0	0	184.045404600009	184.145387199998
43166.75	0.0999797999975272	599	satiated	stimuli/non_foods\non-food_inanimate_bicycle.jpg	1	5	1	non-food_inanimate_bicycle	0	N	10	0	161	0		0	0	184.195402699988	184.295382499986
43204.25	0.0999908999947365	600	satiated	stimuli/non_foods\non-food_animate_donkey.jpg	1	5	1	non-food_animate_donkey	0	F	3	0	107	0		0	0	184.345393800002	184.445384699997
43241.75	0.0999590999854263	601	satiated	stimuli/foods\taco.jpg	1	5	1	taco	1	L	8	0	274	0		0	0	184.495410100004	184.595369199989
43279.25	0.100000099977478	602	satiated	stimuli/foods\artichoke.jpg	1	5	1	artichoke	1	V	15	0	3	0		0	0	184.645385400014	184.745385499991
43316.75	0.0999792999937199	603	satiated	stimuli/foods\pork_and_rice.jpg	1	5	1	pork_and_rice	1	P	11	0	245	0		0	0	184.795397600014	184.895376900007
43354.25	0.099982399988221	604	satiated	stimuli/foods\grilled_chicken_breast.jpg	1	5	1	grilled_chicken_breast	1	G	4	0	63	0		0	0	184.945394400012	185.045376800001
43391.75	0.0999833999958355	605	satiated	stimuli/foods\risotto_with_peas_and_asparagus_tips.jpg	1	5	1	risotto_with_peas_and_asparagus_tips	1	W	16	0	259	0		0	0	185.095393600001	185.195376999996
43429.25	0.0999753999931272	606	satiated	stimuli/foods\cream_donuts.jpg	1	5	1	cream_donuts	1	G	4	0	39	0		0	0	185.245397499995	185.345372899988
43466.75	0.0999936000152957	607	satiated	stimuli/non_foods\non-food_inanimate_briefcase.jpg	1	5	1	non-food_inanimate_briefcase	0	D	2	0	163	0		0	0	185.395389999991	185.495383600006
43504.25	0.0999802000005729	608	satiated	stimuli/non_foods\non-food_animate_duck.jpg	1	5	1	non-food_animate_duck	0	W	16	0	109	0		0	0	185.545391199994	185.645371399994
43541.75	0.0999871999956667	609	satiated	stimuli/foods\fried_calamari.jpg	1	5	1	fried_calamari	1	M	9	0	50	0		0	0	185.695384599996	185.795371799992
43579.25	0.0999878999718931	610	satiated	stimuli/foods\cucumber.jpg	1	5	1	cucumber	1	G	4	0	41	0		0	0	185.845372400014	185.945360299986
43616.75	0.100002699997276	611	satiated	stimuli/foods\cracker.jpg	1	5	1	cracker	1	W	16	0	38	0		0	0	185.995363599999	186.095366299996
43654.25	0.0999722999986261	612	satiated	stimuli/foods\corncob.jpg	1	5	1	corncob	1	K	7	0	37	0		0	0	186.145382899995	186.245355199993
43691.75	0.0999738000100479	613	satiated	stimuli/non_foods\non-food_inanimate_socks.jpg	1	5	1	non-food_inanimate_socks	0	P	11	0	211	0		0	0	186.295382599987	186.395356399997
43729.25	0.0999672000179999	614	satiated	stimuli/non_foods\non-food_animate_baby_sitting.jpg	1	5	1	non-food_animate_baby_sitting	0	S	13	0	93	0		0	0	186.445395199989	186.545362400007
43766.75	0.0999842000019271	615	satiated	stimuli/foods\pear.jpg	1	5	1	pear	1	R	12	0	239	1	a	0	0	186.595368300012	186.695352500014
43804.25	0.0999750000191852	616	satiated	stimuli/non_foods\non-food_inanimate_ring.jpg	1	5	1	non-food_inanimate_ring	0	G	4	0	203	0		0	0	186.745377799991	186.84535280001
43841.75	0.0999704000132624	617	satiated	stimuli/non_foods\non-food_animate_snail.jpg	1	5	1	non-food_animate_snail	0	H	5	0	149	0		0	0	186.895363099989	186.995333500003
43879.25	0.0999601999938022	618	satiated	stimuli/non_foods\non-food_inanimate_watering_can.jpg	1	5	1	non-food_inanimate_watering_can	0	U	23	1	225	0		0	0	187.045389600011	187.145349800005
43916.75	0.0999827999912668	619	satiated	stimuli/non_foods\non-food_inanimate_short_sleeved_shirt.jpg	1	5	1	non-food_inanimate_short_sleeved_shirt	0	K	7	0	207	0		0	0	187.195374500006	187.295357299998
43954.25	0.0999747999885585	620	satiated	stimuli/non_foods\non-food_animate_giraffe.jpg	1	5	1	non-food_animate_giraffe	0	S	13	0	115	0		0	0	187.345370499999	187.445345299988
43991.75	0.099965000001248	621	satiated	stimuli/foods\grapes.jpg	1	5	1	grapes	1	H	5	0	60	0		0	0	187.495391000004	187.595356000005
44029.25	0.0999820999859367	622	satiated	stimuli/foods\red_beans.jpg	1	5	1	red_beans	1	C	1	0	255	0		0	0	187.645369800011	187.745351899997
44066.75	0.100000699982047	623	satiated	stimuli/non_foods\non-food_animate_bat.jpg	1	5	1	non-food_animate_bat	0	T	14	0	94	0		0	0	187.795366700011	187.895367399993
44104.25	0.0999840000004042	624	satiated	stimuli/non_foods\non-food_animate_mammoth.jpg	1	5	1	non-food_animate_mammoth	0	B	0	0	128	0		0	0	187.945364199986	188.045348199987
44141.75	0.0999995000020135	625	satiated	stimuli/foods\onion.jpg	1	5	1	onion	1	K	7	0	229	0		0	0	188.095362599997	188.195362099999
44179.25	0.0999694000056479	626	satiated	stimuli/foods\cannoli.jpg	1	5	1	cannoli	1	N	10	0	17	0		0	0	188.245379100001	188.345348500006
44216.75	0.0999643999966793	627	satiated	stimuli/non_foods\non-food_inanimate_hammer.jpg	1	5	1	non-food_inanimate_hammer	0	G	4	0	186	0		0	0	188.395366000012	188.495330400008
44254.25	0.0999896999855991	628	satiated	stimuli/foods\grapefruits.jpg	1	5	1	grapefruits	1	N	10	0	59	0		0	0	188.545350800006	188.645340499992
44291.75	0.0999965999799315	629	satiated	stimuli/foods\stew_with_potatoes_and_carrots.jpg	1	5	1	stew_with_potatoes_and_carrots	1	P	11	0	271	0		0	0	188.695351800008	188.795348399988
44329.25	0.0999647999997251	630	satiated	stimuli/non_foods\non-food_animate_lizard.jpg	1	5	1	non-food_animate_lizard	0	X	17	0	126	0		0	0	188.845380899991	188.945345699991
44366.75	0.0999838999996427	631	satiated	stimuli/non_foods\non-food_inanimate_bucket.jpg	1	5	1	non-food_inanimate_bucket	0	R	12	0	165	0		0	0	188.995360100002	189.095344000001
44404.25	0.0999836999981198	632	satiated	stimuli/foods\apricot.jpg	1	5	1	apricot	1	W	16	0	2	0		0	0	189.145359499991	189.245343199989
44441.75	0.0999875999987125	633	satiated	stimuli/foods\donut.jpg	1	5	1	donut	1	J	6	0	44	0		0	0	189.295354700007	189.395342300006
44479.25	0.0999836999981198	634	satiated	stimuli/foods\rice.jpg	1	5	1	rice	1	N	10	0	257	0		0	0	189.445356799988	189.545340499986
44516.75	0.0999866000202019	635	satiated	stimuli/non_foods\non-food_animate_Causasian_man.jpg	1	5	1	non-food_animate_Causasian_man	0	L	8	0	89	0		0	0	189.595353399985	189.695340000006
44554.25	0.0999821999866981	636	satiated	stimuli/non_foods\non-food_animate_raccoon.jpg	1	5	1	non-food_animate_raccoon	0	R	12	0	139	0		0	0	189.745352600003	189.845334799989
44591.75	0.0999841000011656	637	satiated	stimuli/foods\brie.jpg	1	5	1	brie	1	L	8	0	12	0		0	0	189.895352299995	189.995336399996
44629.25	0.0999957000021823	638	satiated	stimuli/non_foods\non-food_animate_dolphin.jpg	1	5	1	non-food_animate_dolphin	0	T	14	0	106	0		0	0	190.045336599986	190.145332299988
44666.75	0.0999645999982022	639	satiated	stimuli/non_foods\non-food_inanimate_bush.jpg	1	5	1	non-food_inanimate_bush	0	P	11	0	167	0		0	0	190.195358099998	190.295322699996
