onset	duration	eventnumber	hunger_condition	stimfilename	blockno	trialno	is_faststream	stim	food_idx	letter	letter_idx	istarget	image_number	response	keypressed	rt	correct	time_stimon	time_stimoff
9362.5	0.0999561999924481	0	hunger	stimuli/foods\hazelnuts.jpg	1	1	1	hazelnuts	1	S	13	0	65	0		0	0	83.5216426001862	83.6215988001786
9400	0.100037100026384	1	hunger	stimuli/non_foods\non-food_animate_frog.jpg	1	1	1	non-food_animate_frog	0	X	17	0	113	0		0	0	83.6716185000259	83.7716556000523
9437.5	0.0999816001858562	2	hunger	stimuli/foods\wafer.jpg	1	1	1	wafer	1	G	4	0	277	0		0	0	83.8216160000302	83.921597600216
9475	0.0999861999880522	3	hunger	stimuli/foods\risotto_with_peas_and_asparagus_tips.jpg	1	1	1	risotto_with_peas_and_asparagus_tips	1	D	2	0	259	0		0	0	83.971609500004	84.071595699992
9512.5	0.0999852002132684	4	hunger	stimuli/foods\taco.jpg	1	1	1	taco	1	S	13	0	274	0		0	0	84.1216068000067	84.22159200022
9550	0.0999803999438882	5	hunger	stimuli/foods\fried_zucchini.jpg	1	1	1	fried_zucchini	1	Z	18	0	51	0		0	0	84.2716048001312	84.3715852000751
9587.5	0.0999831999652088	6	hunger	stimuli/non_foods\non-food_animate_dolphin.jpg	1	1	1	non-food_animate_dolphin	0	M	9	0	106	0		0	0	84.4215991001111	84.5215823000763
9625	0.0999843999743462	7	hunger	stimuli/non_foods\non-food_animate_mouse.jpg	1	1	1	non-food_animate_mouse	0	W	16	0	131	0		0	0	84.5716008001473	84.6715852001216
9662.5	0.0999807000625879	8	hunger	stimuli/non_foods\non-food_inanimate_teddy_bear.jpg	1	1	1	non-food_inanimate_teddy_bear	0	S	13	0	218	0		0	0	84.72159500001	84.8215757000726
9700	0.0999672000762075	9	hunger	stimuli/foods\chocolate_chip_cookies.jpg	1	1	1	chocolate_chip_cookies	1	D	2	0	27	0		0	0	84.8716023000889	84.9715695001651
9737.5	0.0999804998282343	10	hunger	stimuli/foods\cherry.jpg	1	1	1	cherry	1	C	1	0	23	0		0	0	85.0215995002072	85.1215800000355
9775	0.100010299822316	11	hunger	stimuli/foods\green_beans.jpg	1	1	1	green_beans	1	L	8	0	61	0		0	0	85.1715954001993	85.2716057000216
9812.5	0.0999330000486225	12	hunger	stimuli/non_foods\non-food_animate_skunk.jpg	1	1	1	non-food_animate_skunk	0	N	10	0	147	0		0	0	85.3216490000486	85.4215820000973
9850	0.0997691000811756	13	hunger	stimuli/foods\peach.jpg	1	1	1	peach	1	L	8	0	238	0		0	0	85.4718110000249	85.5715801001061
9887.5	0.0999882000032812	14	hunger	stimuli/foods\onion.jpg	1	1	1	onion	1	F	3	0	229	0		0	0	85.6215898001101	85.7215780001134
9925	0.0999825000762939	15	hunger	stimuli/non_foods\non-food_animate_ant.jpg	1	1	1	non-food_animate_ant	0	Z	18	0	91	0		0	0	85.7715909001417	85.871573400218
9962.5	0.0999660999514163	16	hunger	stimuli/non_foods\non-food_inanimate_towel.jpg	1	1	1	non-food_inanimate_towel	0	K	7	0	221	0		0	0	85.921588400146	86.0215545000974
10000	0.0999740001279861	17	hunger	stimuli/foods\pork_and_rice.jpg	1	1	1	pork_and_rice	1	T	14	0	245	0		0	0	86.0715864000376	86.1715604001656
10037.5	0.0999998999759555	18	hunger	stimuli/non_foods\non-food_animate_polar_bear.jpg	1	1	1	non-food_animate_polar_bear	0	V	15	0	137	0		0	0	86.2215701001696	86.3215700001456
10075	0.0999630000442266	19	hunger	stimuli/non_foods\non-food_animate_green_bug.jpg	1	1	1	non-food_animate_green_bug	0	D	2	0	118	0		0	0	86.3716029000934	86.4715659001376
10112.5	0.0999836998526007	20	hunger	stimuli/non_foods\non-food_animate_pigeon.jpg	1	1	1	non-food_animate_pigeon	0	L	8	0	136	0		0	0	86.521582600195	86.6215663000476
10150	0.0999854998663068	21	hunger	stimuli/non_foods\non-food_animate_bat.jpg	1	1	1	non-food_animate_bat	0	R	12	0	94	0		0	0	86.671578100184	86.7715636000503
10187.5	0.0999821999575943	22	hunger	stimuli/non_foods\non-food_animate_dachshund.jpg	1	1	1	non-food_animate_dachshund	0	M	9	0	104	0		0	0	86.8215800002217	86.9215622001793
10225	0.0999922000337392	23	hunger	stimuli/foods\baked_lamb_with_potatoes.jpg	1	1	1	baked_lamb_with_potatoes	1	P	11	0	8	0		0	0	86.971579000121	87.0715712001547
10262.5	0.0999312000349164	24	hunger	stimuli/non_foods\non-food_animate_cat.jpg	1	1	1	non-food_animate_cat	0	J	6	0	98	0		0	0	87.1215975000523	87.2215287000872
10300	0.0999871999956667	25	hunger	stimuli/foods\spring_onions.jpg	1	1	1	spring_onions	1	C	1	0	269	0		0	0	87.2715702001005	87.3715574000962
10337.5	0.0999743000138551	26	hunger	stimuli/foods\coconut.jpg	1	1	1	coconut	1	J	6	0	33	0		0	0	87.4215797001962	87.52155400021
10375	0.0999706999864429	27	hunger	stimuli/non_foods\non-food_inanimate_broom.jpg	1	1	1	non-food_inanimate_broom	0	S	13	0	164	0		0	0	87.5715672001243	87.6715379001107
10412.5	0.0999845000915229	28	hunger	stimuli/foods\ginger_root.jpg	1	1	1	ginger_root	1	C	1	0	57	0		0	0	87.7215672000311	87.8215517001227
10450	0.0999815999530256	29	hunger	stimuli/non_foods\non-food_inanimate_suitcase.jpg	1	1	1	non-food_inanimate_suitcase	0	P	11	0	215	0		0	0	87.8715651000384	87.9715466999914
10487.5	0.0999712001066655	30	hunger	stimuli/non_foods\non-food_inanimate_briefcase.jpg	1	1	1	non-food_inanimate_briefcase	0	H	5	0	163	0		0	0	88.0215618000366	88.1215330001432
10525	0.0999543000943959	31	hunger	stimuli/non_foods\non-food_inanimate_nest.jpg	1	1	1	non-food_inanimate_nest	0	V	15	0	196	0		0	0	88.1715832999907	88.2715376000851
10562.5	0.0999811999499798	32	hunger	stimuli/foods\chilli.jpg	1	1	1	chilli	1	R	12	0	25	0		0	0	88.3215582000557	88.4215394000057
10600	0.0999896998982877	33	hunger	stimuli/non_foods\non-food_animate_deer.jpg	1	1	1	non-food_animate_deer	0	J	6	0	105	0		0	0	88.4715447002091	88.5715344001073
10637.5	0.0999837000854313	34	hunger	stimuli/non_foods\non-food_inanimate_shell.jpg	1	1	1	non-food_inanimate_shell	0	S	13	0	206	0		0	0	88.6215473001357	88.7215310002211
10675	0.0999724001158029	35	hunger	stimuli/non_foods\non-food_inanimate_horn.jpg	1	1	1	non-food_inanimate_horn	0	R	12	0	190	0		0	0	88.7715614000335	88.8715338001493
10712.5	0.0999676000792533	36	hunger	stimuli/non_foods\non-food_animate_iguana.jpg	1	1	1	non-food_animate_iguana	0	C	1	0	121	0		0	0	88.9215683001094	89.0215359001886
10750	0.0999765999149531	37	hunger	stimuli/foods\clams.jpg	1	1	1	clams	1	K	7	0	32	0		0	0	89.071554900147	89.171531500062
10787.5	0.099989099893719	38	hunger	stimuli/non_foods\non-food_animate_Causasian_man.jpg	1	1	1	non-food_animate_Causasian_man	0	T	14	0	89	0		0	0	89.2215496001299	89.3215387000237
10825	0.0999769000336528	39	hunger	stimuli/non_foods\non-food_inanimate_couch.jpg	1	1	1	non-food_inanimate_couch	0	P	11	0	176	0		0	0	89.3715464000124	89.4715233000461
10862.5	0.0999851999804378	40	hunger	stimuli/foods\brussel_sprouts.jpg	1	1	1	brussel_sprouts	1	I	21	1	15	0		0	0	89.5215381002054	89.6215233001858
10900	0.0999833000823855	41	hunger	stimuli/foods\potato_chips.jpg	1	1	1	potato_chips	1	H	5	0	247	0		0	0	89.6715381999966	89.771521500079
10937.5	0.100000399863347	42	hunger	stimuli/non_foods\non-food_inanimate_stoplight.jpg	1	1	1	non-food_inanimate_stoplight	0	Z	18	0	214	0		0	0	89.8215261001606	89.9215265000239
10975	0.0999907001387328	43	hunger	stimuli/non_foods\non-food_animate_kangaroo.jpg	1	1	1	non-food_animate_kangaroo	0	H	5	0	122	1	a	0.443371000001207	1	89.9715346000157	90.0715253001545
11012.5	0.0999336000531912	44	hunger	stimuli/foods\fruit_salad.jpg	1	1	1	fruit_salad	1	W	16	0	55	0		0	0	90.1215645000339	90.221498100087
11050	0.0999829000793397	45	hunger	stimuli/foods\roasted_chicken.jpg	1	1	1	roasted_chicken	1	J	6	0	261	0		0	0	90.2715297001414	90.3715126002207
11087.5	0.0999811999499798	46	hunger	stimuli/non_foods\non-food_inanimate_hay.jpg	1	1	1	non-food_inanimate_hay	0	S	13	0	187	0		0	0	90.4215312001761	90.5215124001261
11125	0.099998899968341	47	hunger	stimuli/non_foods\non-food_inanimate_cactus_pot_plant.jpg	1	1	1	non-food_inanimate_cactus_pot_plant	0	J	6	0	169	0		0	0	90.5715111000463	90.6715100000147
11162.5	0.0999882998876274	48	hunger	stimuli/non_foods\non-food_animate_seahorse.jpg	1	1	1	non-food_animate_seahorse	0	V	15	0	145	0		0	0	90.7215226001572	90.8215109000448
11200	0.0999990999698639	49	hunger	stimuli/non_foods\non-food_animate_peacock.jpg	1	1	1	non-food_animate_peacock	0	M	9	0	134	0		0	0	90.8715135001112	90.971512600081
11237.5	0.0999845000915229	50	hunger	stimuli/foods\radish.jpg	1	1	1	radish	1	W	16	0	251	0		0	0	91.0215266000014	91.1215111000929
11275	0.0999549999833107	51	hunger	stimuli/non_foods\non-food_inanimate_tree.jpg	1	1	1	non-food_inanimate_tree	0	T	14	0	223	0		0	0	91.1715577000286	91.271512700012
11312.5	0.100004500010982	52	hunger	stimuli/foods\chocolate_pudding.jpg	1	1	1	chocolate_pudding	1	W	16	0	29	0		0	0	91.3215072001331	91.421511700144
11350	0.0999853999819607	53	hunger	stimuli/foods\lemon_meringue_pie.jpg	1	1	1	lemon_meringue_pie	1	H	5	0	73	0		0	0	91.471522100037	91.5715075000189
11387.5	0.0999879001174122	54	hunger	stimuli/non_foods\non-food_animate_slug.jpg	1	1	1	non-food_animate_slug	0	W	16	0	148	0		0	0	91.6215210000519	91.7215089001693
11425	0.0999668999575078	55	hunger	stimuli/non_foods\non-food_inanimate_padlock.jpg	1	1	1	non-food_inanimate_padlock	0	J	6	0	199	0		0	0	91.77152080019	91.8714877001476
11462.5	0.0999604999087751	56	hunger	stimuli/foods\red_beans.jpg	1	1	1	red_beans	1	Z	18	0	255	0		0	0	91.9215195002034	92.0214800001122
11500	0.0999815000686795	57	hunger	stimuli/foods\pasta_carbonara.jpg	1	1	1	pasta_carbonara	1	R	12	0	236	0		0	0	92.0715187001042	92.1715002001729
11537.5	0.100028099957854	58	hunger	stimuli/non_foods\non-food_animate_hummingbird.jpg	1	1	1	non-food_animate_hummingbird	0	T	14	0	120	0		0	0	92.2215125001967	92.3215406001545
11575	0.099982799962163	59	hunger	stimuli/non_foods\non-food_animate_caterpillar.jpg	1	1	1	non-food_animate_caterpillar	0	D	2	0	99	0		0	0	92.3715131001081	92.4714959000703
11612.5	0.0999834001995623	60	hunger	stimuli/foods\hamburger.jpg	1	1	1	hamburger	1	C	1	0	64	0		0	0	92.5215115000028	92.6214949002024
11650	0.0999867999926209	61	hunger	stimuli/foods\museli_bars.jpg	1	1	1	museli_bars	1	M	9	0	84	0		0	0	92.6715083001181	92.7714951001108
11687.5	0.0999825999606401	62	hunger	stimuli/non_foods\non-food_inanimate_grass.jpg	1	1	1	non-food_inanimate_grass	0	R	12	0	184	0		0	0	92.8215107000433	92.9214933000039
11725	0.0999704001005739	63	hunger	stimuli/foods\grapes.jpg	1	1	1	grapes	1	L	8	0	60	0		0	0	92.971518300008	93.0714887001086
11762.5	0.0999878000002354	64	hunger	stimuli/foods\baked_cod_with_carrots_and_green_beans.jpg	1	1	1	baked_cod_with_carrots_and_green_beans	1	B	0	0	7	0		0	0	93.1215023000259	93.2214901000261
11800	0.0999851000960916	65	hunger	stimuli/foods\cooked_ham.jpg	1	1	1	cooked_ham	1	X	17	0	35	0		0	0	93.271503200056	93.3714883001521
11837.5	0.0999908000230789	66	hunger	stimuli/non_foods\non-food_inanimate_skirt.jpg	1	1	1	non-food_inanimate_skirt	0	H	5	0	209	0		0	0	93.4214943000115	93.5214851000346
11875	0.0999746001325548	67	hunger	stimuli/non_foods\non-food_animate_ladybug.jpg	1	1	1	non-food_animate_ladybug	0	M	9	0	124	0		0	0	93.5715089000296	93.6714835001621
11912.5	0.0999797999393195	68	hunger	stimuli/non_foods\non-food_animate_mammoth.jpg	1	1	1	non-food_animate_mammoth	0	X	17	0	128	0		0	0	93.7214945000596	93.821474299999
11950	0.0999950000550598	69	hunger	stimuli/non_foods\non-food_animate_ram.jpg	1	1	1	non-food_animate_ram	0	R	12	0	140	0		0	0	93.8714879001491	93.9714829002041
11987.5	0.0999996000900865	70	hunger	stimuli/foods\spinach.jpg	1	1	1	spinach	1	J	6	0	268	0		0	0	94.0214796999935	94.1214793000836
12025	0.0999856998678297	71	hunger	stimuli/foods\cucumber.jpg	1	1	1	cucumber	1	M	9	0	41	0		0	0	94.1714887002017	94.2714744000696
12062.5	0.0999576000031084	72	hunger	stimuli/non_foods\non-food_inanimate_button.jpg	1	1	1	non-food_inanimate_button	0	F	3	0	168	0		0	0	94.3215195001103	94.4214771001134
12100	0.0999579001218081	73	hunger	stimuli/foods\omelette.jpg	1	1	1	omelette	1	R	12	0	228	0		0	0	94.4714879000094	94.5714458001312
12137.5	0.0999825999606401	74	hunger	stimuli/foods\steak.jpg	1	1	1	steak	1	C	1	0	270	0		0	0	94.6214775000699	94.7214601000305
12175	0.100001899991184	75	hunger	stimuli/non_foods\non-food_inanimate_bed.jpg	1	1	1	non-food_inanimate_bed	0	H	5	0	160	0		0	0	94.7714724000543	94.8714743000455
12212.5	0.0999855999834836	76	hunger	stimuli/non_foods\non-food_inanimate_watering_can.jpg	1	1	1	non-food_inanimate_watering_can	0	R	12	0	225	0		0	0	94.9214826000389	95.0214682000224
12250	0.0999869999941438	77	hunger	stimuli/foods\swordfish.jpg	1	1	1	swordfish	1	G	4	0	273	0		0	0	95.0714808001649	95.171467800159
12287.5	0.0999727000016719	78	hunger	stimuli/non_foods\non-food_inanimate_protractor.jpg	1	1	1	non-food_inanimate_protractor	0	L	8	0	201	0		0	0	95.2214793001767	95.3214520001784
12325	0.0999765999149531	79	hunger	stimuli/non_foods\non-food_inanimate_cupboard.jpg	1	1	1	non-food_inanimate_cupboard	0	F	3	0	177	0		0	0	95.3714845001232	95.4714611000381
12362.5	0.0999785999301821	80	hunger	stimuli/foods\apple.jpg	1	1	1	apple	1	B	0	0	1	0		0	0	95.5214828001335	95.6214614000637
12400	0.0999828998465091	81	hunger	stimuli/foods\eggplant.jpg	1	1	1	eggplant	1	P	11	0	46	0		0	0	95.6714722001925	95.771455100039
12437.5	0.0999892000108957	82	hunger	stimuli/foods\hotdog.jpg	1	1	1	hotdog	1	S	13	0	67	0		0	0	95.821468600072	95.9214578000829
12475	0.0999882998876274	83	hunger	stimuli/foods\savory_pie.jpg	1	1	1	savory_pie	1	V	15	0	265	0		0	0	95.9714703001082	96.0714585999958
12512.5	0.0999590000137687	84	hunger	stimuli/non_foods\non-food_animate_squirrel.jpg	1	1	1	non-food_animate_squirrel	0	D	2	0	150	0		0	0	96.1214685000014	96.2214275000151
12550	0.0999765999149531	85	hunger	stimuli/foods\kiwi.jpg	1	1	1	kiwi	1	S	13	0	69	0		0	0	96.2714584001806	96.3714350000955
12587.5	0.0999892000108957	86	hunger	stimuli/foods\grapefruits.jpg	1	1	1	grapefruits	1	N	10	0	59	0		0	0	96.4214522000402	96.5214414000511
12625	0.0999696999788284	87	hunger	stimuli/foods\blackberry.jpg	1	1	1	blackberry	1	L	8	0	11	0		0	0	96.571469000075	96.6714387000538
12662.5	0.0999574000015855	88	hunger	stimuli/foods\figs.jpg	1	1	1	figs	1	X	17	0	48	0		0	0	96.721464100061	96.8214215000626
12700	0.0999910000246018	89	hunger	stimuli/foods\almonds.jpg	1	1	1	almonds	1	C	1	0	0	0		0	0	96.8714546000119	96.9714456000365
12737.5	0.0999892000108957	90	hunger	stimuli/foods\potato_and_green_bean_salad.jpg	1	1	1	potato_and_green_bean_salad	1	A	19	1	246	0		0	0	97.0214570001699	97.1214462001808
12775	0.0999713998753577	91	hunger	stimuli/foods\stew_with_potatoes_and_carrots.jpg	1	1	1	stew_with_potatoes_and_carrots	1	S	13	0	271	0		0	0	97.1714676001575	97.2714390000328
12812.5	0.0999841999728233	92	hunger	stimuli/non_foods\non-food_inanimate_speakers.jpg	1	1	1	non-food_inanimate_speakers	0	K	7	0	212	1	a	0.391822899924591	1	97.3214542001951	97.421438400168
12850	0.0999819000717252	93	hunger	stimuli/foods\tomato.jpg	1	1	1	tomato	1	W	16	0	276	0		0	0	97.4714568001218	97.5714387001935
12887.5	0.0999702999833971	94	hunger	stimuli/non_foods\non-food_animate_sea_lion.jpg	1	1	1	non-food_animate_sea_lion	0	C	1	0	143	0		0	0	97.6214498002082	97.7214201001916
12925	0.0999856998678297	95	hunger	stimuli/non_foods\non-food_inanimate_rack.jpg	1	1	1	non-food_inanimate_rack	0	K	7	0	202	0		0	0	97.7714415001683	97.8714272000361
12962.5	0.100003100000322	96	hunger	stimuli/foods\banana.jpg	1	1	1	banana	1	G	4	0	9	0		0	0	97.9214231001679	98.0214262001682
13000	0.0999803000595421	97	hunger	stimuli/non_foods\non-food_animate_duck.jpg	1	1	1	non-food_animate_duck	0	X	17	0	109	0		0	0	98.0714376000687	98.1714179001283
13037.5	0.100004800129682	98	hunger	stimuli/foods\ice_cream.jpg	1	1	1	ice_cream	1	G	4	0	68	0		0	0	98.2214275000151	98.3214323001448
13075	0.0999864998739213	99	hunger	stimuli/non_foods\non-food_inanimate_folding_chair.jpg	1	1	1	non-food_inanimate_folding_chair	0	C	1	0	182	0		0	0	98.3714398001321	98.471426300006
13112.5	0.09998709987849	100	hunger	stimuli/non_foods\non-food_animate_elephant.jpg	1	1	1	non-food_animate_elephant	0	K	7	0	111	0		0	0	98.5214397001546	98.6214268000331
13150	0.0999996999744326	101	hunger	stimuli/foods\cannoli.jpg	1	1	1	cannoli	1	N	10	0	17	0		0	0	98.6714147001039	98.7714144000784
13187.5	0.09998600021936	102	hunger	stimuli/non_foods\non-food_inanimate_pine_cone.jpg	1	1	1	non-food_inanimate_pine_cone	0	T	14	0	200	0		0	0	98.8214290000033	98.9214150002226
13225	0.0999719998799264	103	hunger	stimuli/foods\cupcake.jpg	1	1	1	cupcake	1	S	13	0	42	0		0	0	98.9714511001948	99.0714231000748
13262.5	0.0999831999652088	104	hunger	stimuli/foods\pineapple.jpg	1	1	1	pineapple	1	W	16	0	243	0		0	0	99.1214277001563	99.2214109001216
13300	0.0999871001113206	105	hunger	stimuli/non_foods\non-food_inanimate_leaf.jpg	1	1	1	non-food_inanimate_leaf	0	Z	18	0	192	0		0	0	99.2714229000267	99.371410000138
13337.5	0.100000299979001	106	hunger	stimuli/non_foods\non-food_inanimate_skateboard.jpg	1	1	1	non-food_inanimate_skateboard	0	G	4	0	208	0		0	0	99.4214159001131	99.5214162000921
13375	0.0999559999909252	107	hunger	stimuli/foods\fried_calamari.jpg	1	1	1	fried_calamari	1	X	17	0	50	0		0	0	99.5714267001022	99.6713827000931
13412.5	0.0999863999895751	108	hunger	stimuli/foods\gnocchi.jpg	1	1	1	gnocchi	1	Z	18	0	58	0		0	0	99.7214256001171	99.8214120001066
13450	0.0999875001143664	109	hunger	stimuli/non_foods\non-food_animate_horse.jpg	1	1	1	non-food_animate_horse	0	L	8	0	119	0		0	0	99.8714236000087	99.9714111001231
13487.5	0.0999861999880522	110	hunger	stimuli/foods\dates.jpg	1	1	1	dates	1	O	22	1	43	0		0	0	100.021421000129	100.121407200117
13525	0.0999838998541236	111	hunger	stimuli/non_foods\non-food_inanimate_drum_set.jpg	1	1	1	non-food_inanimate_drum_set	0	V	15	0	179	0		0	0	100.171421500156	100.27140540001
13562.5	0.0999834998510778	112	hunger	stimuli/non_foods\non-food_inanimate_tulip.jpg	1	1	1	non-food_inanimate_tulip	0	R	12	0	224	0		0	0	100.321420400171	100.421403900022
13600	0.0999809999484569	113	hunger	stimuli/foods\green_olives.jpg	1	1	1	green_olives	1	G	4	0	62	1	a	0.541827999986708	1	100.471421700204	100.571402700152
13637.5	0.0999620000366122	114	hunger	stimuli/foods\chocolate_pralines.jpg	1	1	1	chocolate_pralines	1	K	7	0	28	0		0	0	100.621419700095	100.721381700132
13675	0.0999682999681681	115	hunger	stimuli/non_foods\non-food_animate_millipede.jpg	1	1	1	non-food_animate_millipede	0	M	9	0	129	0		0	0	100.771429400193	100.871397700161
13712.5	0.0999660999514163	116	hunger	stimuli/non_foods\non-food_inanimate_tent.jpg	1	1	1	non-food_inanimate_tent	0	Z	18	0	219	0		0	0	100.92141290009	101.021379000042
13750	0.0999596999026835	117	hunger	stimuli/non_foods\non-food_inanimate_bush.jpg	1	1	1	non-food_inanimate_bush	0	T	14	0	167	0		0	0	101.071408300195	101.171368000098
13787.5	0.09998600021936	118	hunger	stimuli/foods\salami.jpg	1	1	1	salami	1	R	12	0	263	0		0	0	101.221409599995	101.321395600215
13825	0.0999865001067519	119	hunger	stimuli/foods\pomegranate.jpg	1	1	1	pomegranate	1	G	4	0	244	0		0	0	101.371407500003	101.471394000109
13862.5	0.0999835999682546	120	hunger	stimuli/foods\papaya.jpg	1	1	1	papaya	1	S	13	0	235	0		0	0	101.521404700121	101.621388300089
13900	0.0999836998526007	121	hunger	stimuli/foods\brie.jpg	1	1	1	brie	1	X	17	0	12	0		0	0	101.67140420014	101.771387899993
13937.5	0.0999865001067519	122	hunger	stimuli/foods\capsicum.jpg	1	1	1	capsicum	1	P	11	0	18	0		0	0	101.82140060002	101.921387100127
13975	0.0999835999682546	123	hunger	stimuli/non_foods\non-food_animate_llama.jpg	1	1	1	non-food_animate_llama	0	K	7	0	127	0		0	0	101.971399700036	102.071383300005
14012.5	0.0999875999987125	124	hunger	stimuli/non_foods\non-food_inanimate_chair.jpg	1	1	1	non-food_inanimate_chair	0	F	3	0	172	0		0	0	102.121397700161	102.221385300159
14050	0.0999845000915229	125	hunger	stimuli/foods\artichoke.jpg	1	1	1	artichoke	1	N	10	0	3	0		0	0	102.271396500058	102.37138100015
14087.5	0.0999930000398308	126	hunger	stimuli/foods\beetroots.jpg	1	1	1	beetroots	1	R	12	0	10	0		0	0	102.421393200057	102.521386200096
14125	0.099963900167495	127	hunger	stimuli/foods\mango.jpg	1	1	1	mango	1	P	11	0	80	0		0	0	102.571413900005	102.671377800172
14162.5	0.0999880000017583	128	hunger	stimuli/foods\chocolate_bar.jpg	1	1	1	chocolate_bar	1	J	6	0	26	0		0	0	102.72138930019	102.821377300192
14200	0.0999853000976145	129	hunger	stimuli/foods\lamb_chops.jpg	1	1	1	lamb_chops	1	G	4	0	70	0		0	0	102.871391399996	102.971376700094
14237.5	0.0999691998586059	130	hunger	stimuli/non_foods\non-food_inanimate_buds.jpg	1	1	1	non-food_inanimate_buds	0	C	1	0	166	0		0	0	103.021385900211	103.121355100069
14275	0.100005500018597	131	hunger	stimuli/foods\mushroom.jpg	1	1	1	mushroom	1	B	0	0	85	0		0	0	103.171366000082	103.271371500101
14312.5	0.0999833000823855	132	hunger	stimuli/non_foods\non-food_animate_eagle.jpg	1	1	1	non-food_animate_eagle	0	W	16	0	110	0		0	0	103.32138530002	103.421368600102
14350	0.0999873999971896	133	hunger	stimuli/non_foods\non-food_animate_rhino.jpg	1	1	1	non-food_animate_rhino	0	B	0	0	141	0		0	0	103.471380700124	103.571368100122
14387.5	0.0999561999924481	134	hunger	stimuli/foods\cabbage.jpg	1	1	1	cabbage	1	N	10	0	16	0		0	0	103.621408900013	103.721365100006
14425	0.100005900021642	135	hunger	stimuli/non_foods\non-food_inanimate_fire_extinguisher.jpg	1	1	1	non-food_inanimate_fire_extinguisher	0	D	2	0	181	0		0	0	103.77135130018	103.871357200202
14462.5	0.0999861001037061	136	hunger	stimuli/non_foods\non-food_inanimate_soccer_ball.jpg	1	1	1	non-food_inanimate_soccer_ball	0	K	7	0	210	0		0	0	103.921368800104	104.021354900207
14500	0.0999803000595421	137	hunger	stimuli/foods\lettuce.jpg	1	1	1	lettuce	1	Z	18	0	75	0		0	0	104.071371700149	104.171352000209
14537.5	0.09998430009	138	hunger	stimuli/foods\croissant.jpg	1	1	1	croissant	1	P	11	0	40	0		0	0	104.221364400117	104.321348700207
14575	0.099988600006327	139	hunger	stimuli/foods\brownie.jpg	1	1	1	brownie	1	F	3	0	14	0		0	0	104.371369400062	104.471358000068
15270.75	0.0999942999333143	140	hunger	stimuli/non_foods\non-food_animate_fox.jpg	1	2	1	non-food_animate_fox	0	F	3	0	112	0		0	0	107.154677800136	107.254672100069
15308.25	0.0999733998905867	141	hunger	stimuli/non_foods\non-food_animate_german_shepherd.jpg	1	2	1	non-food_animate_german_shepherd	0	S	13	0	114	0		0	0	107.304675700143	107.404649100034
15345.75	0.0999897001311183	142	hunger	stimuli/foods\avocado.jpg	1	2	1	avocado	1	W	16	0	5	0		0	0	107.454661000054	107.554650700185
15383.25	0.0999930999241769	143	hunger	stimuli/non_foods\non-food_animate_owl.jpg	1	2	1	non-food_animate_owl	0	C	1	0	132	0		0	0	107.604652400129	107.704645500053
15420.75	0.0999831000808626	144	hunger	stimuli/foods\red_cabbage.jpg	1	2	1	red_cabbage	1	W	16	0	256	0		0	0	107.754659200087	107.854642300168
15458.25	0.0999773999210447	145	hunger	stimuli/foods\cereal.jpg	1	2	1	cereal	1	R	12	0	22	0		0	0	107.904655800201	108.004633200122
15495.75	0.100008299807087	146	hunger	stimuli/non_foods\non-food_animate_bee.jpg	1	2	1	non-food_animate_bee	0	N	10	0	95	0		0	0	108.054635800188	108.154644099995
15533.25	0.0999821999575943	147	hunger	stimuli/foods\egg.jpg	1	2	1	egg	1	M	9	0	45	0		0	0	108.20466040005	108.304642600007
15570.75	0.100000299979001	148	hunger	stimuli/non_foods\non-food_animate_chicken.jpg	1	2	1	non-food_animate_chicken	0	W	16	0	101	0		0	0	108.354655700037	108.454656000016
15608.25	0.0999801999423653	149	hunger	stimuli/non_foods\non-food_inanimate_clover.jpg	1	2	1	non-food_inanimate_clover	0	L	8	0	174	0		0	0	108.504659100203	108.604639300145
15645.75	0.099994600052014	150	hunger	stimuli/non_foods\non-food_inanimate_table.jpg	1	2	1	non-food_inanimate_table	0	K	7	0	217	0		0	0	108.654648600146	108.754643200198
15683.25	0.0999839999713004	151	hunger	stimuli/non_foods\non-food_animate_cow.jpg	1	2	1	non-food_animate_cow	0	H	5	0	103	0		0	0	108.804653300205	108.904637300177
15720.75	0.0999880998861045	152	hunger	stimuli/non_foods\non-food_inanimate_bicycle.jpg	1	2	1	non-food_inanimate_bicycle	0	S	13	0	161	0		0	0	108.954647200182	109.054635300068
15758.25	0.0999674000777304	153	hunger	stimuli/non_foods\non-food_animate_swan.jpg	1	2	1	non-food_animate_swan	0	J	6	0	152	0		0	0	109.104666600004	109.204634000082
15795.75	0.0999880000017583	154	hunger	stimuli/foods\frankfurter_and_provolone_salad.jpg	1	2	1	frankfurter_and_provolone_salad	1	W	16	0	49	0		0	0	109.254646799993	109.354634799995
15833.25	0.0999886998906732	155	hunger	stimuli/non_foods\non-food_inanimate_desk.jpg	1	2	1	non-food_inanimate_desk	0	H	5	0	178	0		0	0	109.404645800125	109.504634500016
15870.75	0.100000699982047	156	hunger	stimuli/non_foods\non-food_animate_camel.jpg	1	2	1	non-food_animate_camel	0	R	12	0	97	0		0	0	109.554622200085	109.654622900067
15908.25	0.0999904999043792	157	hunger	stimuli/foods\pepperoni_pizza.jpg	1	2	1	pepperoni_pizza	1	K	7	0	241	0		0	0	109.704633500194	109.804624000099
15945.75	0.0999795000534505	158	hunger	stimuli/non_foods\non-food_animate_dragonfly.jpg	1	2	1	non-food_animate_dragonfly	0	X	17	0	108	0		0	0	109.854634599993	109.954614100046
15983.25	0.100003199884668	159	hunger	stimuli/foods\bagel.jpg	1	2	1	bagel	1	D	2	0	6	0		0	0	110.00462290016	110.104626100045
16020.75	0.099961900152266	160	hunger	stimuli/non_foods\non-food_animate_lizard.jpg	1	2	1	non-food_animate_lizard	0	P	11	0	126	0		0	0	110.154662800021	110.254624700174
16058.25	0.0999912999104708	161	hunger	stimuli/foods\oven-roasted_tomatoes.jpg	1	2	1	oven-roasted_tomatoes	1	T	14	0	232	0		0	0	110.304630200146	110.404621500056
16095.75	0.0999860998708755	162	hunger	stimuli/non_foods\non-food_animate_woman.jpg	1	2	1	non-food_animate_woman	0	G	4	0	154	0		0	0	110.454631900182	110.554618000053
16133.25	0.0999867999926209	163	hunger	stimuli/foods\grilled_chicken_breast.jpg	1	2	1	grilled_chicken_breast	1	W	16	0	63	0		0	0	110.604630100075	110.704616900068
16170.75	0.100042399950325	164	hunger	stimuli/non_foods\non-food_inanimate_sun_flower.jpg	1	2	1	non-food_inanimate_sun_flower	0	L	8	0	216	0		0	0	110.754627800081	110.854670200031
16208.25	0.0999452001415193	165	hunger	stimuli/foods\pickles.jpg	1	2	1	pickles	1	Z	18	0	242	0		0	0	110.90466920007	111.004614400212
16245.75	0.0999888000078499	166	hunger	stimuli/non_foods\non-food_animate_monkey.jpg	1	2	1	non-food_animate_monkey	0	M	9	0	130	0		0	0	111.054626000114	111.154614800122
16283.25	0.0999983998481184	167	hunger	stimuli/foods\meatballs.jpg	1	2	1	meatballs	1	B	0	0	81	0		0	0	111.204612200148	111.304610599997
16320.75	0.0999857999850065	168	hunger	stimuli/foods\rice.jpg	1	2	1	rice	1	S	13	0	257	0		0	0	111.354624300031	111.454610100016
16358.25	0.0999863999895751	169	hunger	stimuli/foods\lollies.jpg	1	2	1	lollies	1	F	3	0	78	0		0	0	111.504614500096	111.604600900086
16395.75	0.0999823999591172	170	hunger	stimuli/foods\toasted_bread_with_tomatoes.jpg	1	2	1	toasted_bread_with_tomatoes	1	R	12	0	275	0		0	0	111.654616000131	111.75459840009
16433.25	0.0999964000657201	171	hunger	stimuli/non_foods\non-food_animate_snail.jpg	1	2	1	non-food_animate_snail	0	D	2	0	149	0		0	0	111.804612000007	111.904608400073
16470.75	0.0999825000762939	172	hunger	stimuli/foods\lasagna.jpg	1	2	1	lasagna	1	S	13	0	71	0		0	0	111.954618700081	112.054601200158
16508.25	0.0999918000306934	173	hunger	stimuli/non_foods\non-food_inanimate_cap.jpg	1	2	1	non-food_inanimate_cap	0	L	8	0	171	0		0	0	112.104603900108	112.204595700139
16545.75	0.0999936999287456	174	hunger	stimuli/non_foods\non-food_animate_student_female.jpg	1	2	1	non-food_animate_student_female	0	C	1	0	151	0		0	0	112.254598100204	112.354591800133
16583.25	0.0999845999758691	175	hunger	stimuli/foods\raisins.jpg	1	2	1	raisins	1	S	13	0	252	0		0	0	112.404603100149	112.504587700125
16620.75	0.0999922999180853	176	hunger	stimuli/non_foods\non-food_animate_young_girl.jpg	1	2	1	non-food_animate_young_girl	0	W	16	0	157	0		0	0	112.554611700121	112.654604000039
16658.25	0.099962400039658	177	hunger	stimuli/non_foods\non-food_inanimate_jeans.jpg	1	2	1	non-food_inanimate_jeans	0	M	9	0	191	0		0	0	112.704634000082	112.804596400121
16695.75	0.100012899842113	178	hunger	stimuli/foods\oyster.jpg	1	2	1	oyster	1	W	16	0	233	0		0	0	112.854578700149	112.954591599992
16733.25	0.0999878000002354	179	hunger	stimuli/non_foods\non-food_animate_penguin.jpg	1	2	1	non-food_animate_penguin	0	N	10	0	135	0		0	0	113.004603100009	113.104590900009
16770.75	0.0999959998298436	180	hunger	stimuli/non_foods\non-food_animate_gorilla.jpg	1	2	1	non-food_animate_gorilla	0	L	8	0	116	0		0	0	113.154591000173	113.254587000003
16808.25	0.0999882998876274	181	hunger	stimuli/foods\oregano.jpg	1	2	1	oregano	1	D	2	0	231	0		0	0	113.304599600146	113.404587900033
16845.75	0.099984799977392	182	hunger	stimuli/foods\garlic.jpg	1	2	1	garlic	1	B	0	0	56	0		0	0	113.454600200057	113.554585000034
16883.25	0.0999828998465091	183	hunger	stimuli/foods\cooked_prawn.jpg	1	2	1	cooked_prawn	1	D	2	0	36	0		0	0	113.60459800018	113.704580900026
16920.75	0.0999680999666452	184	hunger	stimuli/foods\lemon.jpg	1	2	1	lemon	1	R	12	0	72	0		0	0	113.7546128002	113.854580900166
16958.25	0.0999829999636859	185	hunger	stimuli/non_foods\non-food_inanimate_moss.jpg	1	2	1	non-food_inanimate_moss	0	N	10	0	194	0		0	0	113.904594000196	114.00457700016
16995.75	0.0999868998769671	186	hunger	stimuli/non_foods\non-food_inanimate_nettle.jpg	1	2	1	non-food_inanimate_nettle	0	R	12	0	197	0		0	0	114.05459010019	114.154577000067
17033.25	0.0999888000078499	187	hunger	stimuli/non_foods\non-food_animate_parrot.jpg	1	2	1	non-food_animate_parrot	0	M	9	0	133	0		0	0	114.204588900087	114.304577700095
17070.75	0.0999989998526871	188	hunger	stimuli/non_foods\non-food_inanimate_orchid.jpg	1	2	1	non-food_inanimate_orchid	0	L	8	0	198	0		0	0	114.354602800217	114.454601800069
17108.25	0.0999752997886389	189	hunger	stimuli/foods\linguine_with_clams.jpg	1	2	1	linguine_with_clams	1	H	5	0	77	0		0	0	114.504597900202	114.604573199991
17145.75	0.0999721998814493	190	hunger	stimuli/non_foods\non-food_animate_lion.jpg	1	2	1	non-food_animate_lion	0	W	16	0	125	0		0	0	114.654585800134	114.754558000015
17183.25	0.0999878998845816	191	hunger	stimuli/non_foods\non-food_animate_young_boy.jpg	1	2	1	non-food_animate_young_boy	0	R	12	0	156	0		0	0	114.804575200193	114.904563100077
17220.75	0.0999888000078499	192	hunger	stimuli/non_foods\non-food_animate_clown.jpg	1	2	1	non-food_animate_clown	0	N	10	0	102	0		0	0	114.954573700204	115.054562500212
17258.25	0.0999830001965165	193	hunger	stimuli/non_foods\non-food_animate_grasshopper.jpg	1	2	1	non-food_animate_grasshopper	0	R	12	0	117	0		0	0	115.10457700002	115.204560000217
17295.75	0.0999877001158893	194	hunger	stimuli/non_foods\non-food_inanimate_gloves.jpg	1	2	1	non-food_inanimate_gloves	0	B	0	0	183	0		0	0	115.254568600096	115.354556300212
17333.25	0.0999916999135166	195	hunger	stimuli/foods\mandarin.jpg	1	2	1	mandarin	1	K	7	0	79	0		0	0	115.404587600147	115.504579300061
17370.75	0.0999845999758691	196	hunger	stimuli/non_foods\non-food_inanimate_ring.jpg	1	2	1	non-food_inanimate_ring	0	D	2	0	203	0		0	0	115.554571600165	115.654556200141
17408.25	0.0999844998586923	197	hunger	stimuli/foods\apricot.jpg	1	2	1	apricot	1	C	1	0	2	0		0	0	115.70456790016	115.804552400019
17445.75	0.0999826001934707	198	hunger	stimuli/non_foods\non-food_animate_seal.jpg	1	2	1	non-food_animate_seal	0	Z	18	0	146	0		0	0	115.854576000012	115.954558600206
17483.25	0.0999556998722255	199	hunger	stimuli/foods\lime.jpg	1	2	1	lime	1	S	13	0	76	0		0	0	116.004573000129	116.104528700002
17520.75	0.0999775999225676	200	hunger	stimuli/non_foods\non-food_inanimate_headphones.jpg	1	2	1	non-food_inanimate_headphones	0	T	14	0	188	0		0	0	116.154594000196	116.254571600119
17558.25	0.0999851000960916	201	hunger	stimuli/non_foods\non-food_animate_killer_whale.jpg	1	2	1	non-food_animate_killer_whale	0	D	2	0	123	0		0	0	116.304576300085	116.404561400181
17595.75	0.099976799916476	202	hunger	stimuli/foods\salmon.jpg	1	2	1	salmon	1	M	9	0	264	0		0	0	116.454575200099	116.554552000016
17633.25	0.0999863999895751	203	hunger	stimuli/non_foods\non-food_animate_baby_sitting.jpg	1	2	1	non-food_animate_baby_sitting	0	D	2	0	93	0		0	0	116.604565500049	116.704551900038
17670.75	0.0999857999850065	204	hunger	stimuli/non_foods\non-food_animate_baby_crawling.jpg	1	2	1	non-food_animate_baby_crawling	0	V	15	0	92	0		0	0	116.75456170016	116.854547500145
17708.25	0.0999893001280725	205	hunger	stimuli/foods\pumpkin.jpg	1	2	1	pumpkin	1	T	14	0	250	0		0	0	116.904555900022	117.00454520015
17745.75	0.0999541999772191	206	hunger	stimuli/foods\celery.jpg	1	2	1	celery	1	R	12	0	21	0		0	0	117.054562000092	117.154516200069
17783.25	0.0999852002132684	207	hunger	stimuli/foods\watermelon.jpg	1	2	1	watermelon	1	S	13	0	279	0		0	0	117.204547900008	117.304533100221
17820.75	0.100000699982047	208	hunger	stimuli/non_foods\non-food_inanimate_toilet.jpg	1	2	1	non-food_inanimate_toilet	0	C	1	0	220	0		0	0	117.354541400215	117.454542100197
17858.25	0.0999855000991374	209	hunger	stimuli/non_foods\non-food_inanimate_short_sleeved_shirt.jpg	1	2	1	non-food_inanimate_short_sleeved_shirt	0	H	5	0	207	0		0	0	117.504552700091	117.60453820019
17895.75	0.099992899922654	210	hunger	stimuli/foods\rice_cake.jpg	1	2	1	rice_cake	1	X	17	0	258	0		0	0	117.654549100203	117.754542000126
17933.25	0.0999873001128435	211	hunger	stimuli/foods\chestnut.jpg	1	2	1	chestnut	1	L	8	0	24	0		0	0	117.804551400011	117.904538700124
17970.75	0.0999497999437153	212	hunger	stimuli/non_foods\non-food_animate_butterfly.jpg	1	2	1	non-food_animate_butterfly	0	N	10	0	96	0		0	0	117.954580400139	118.054530200083
18008.25	0.0999705998692662	213	hunger	stimuli/non_foods\non-food_inanimate_construction_helment.jpg	1	2	1	non-food_inanimate_construction_helment	0	W	16	0	175	0		0	0	118.104561400134	118.204532000003
18045.75	0.0999816998373717	214	hunger	stimuli/non_foods\non-food_inanimate_chandelier.jpg	1	2	1	non-food_inanimate_chandelier	0	P	11	0	173	0		0	0	118.254547200166	118.354528900003
18083.25	0.0999852998647839	215	hunger	stimuli/foods\prawn.jpg	1	2	1	prawn	1	W	16	0	249	0		0	0	118.404539700132	118.504524999997
18120.75	0.0999849000945687	216	hunger	stimuli/foods\fennel.jpg	1	2	1	fennel	1	B	0	0	47	0		0	0	118.554540300043	118.654525200138
18158.25	0.0999860998708755	217	hunger	stimuli/non_foods\non-food_inanimate_bamboo.jpg	1	2	1	non-food_inanimate_bamboo	0	H	5	0	159	0		0	0	118.704536100151	118.804522200022
18195.75	0.0999952000565827	218	hunger	stimuli/non_foods\non-food_inanimate_fern.jpg	1	2	1	non-food_inanimate_fern	0	K	7	0	180	0		0	0	118.854521000059	118.954516200116
18233.25	0.099954699864611	219	hunger	stimuli/non_foods\non-food_animate_runner.jpg	1	2	1	non-food_animate_runner	0	M	9	0	142	0		0	0	119.004536700202	119.104491400067
18270.75	0.0999841999728233	220	hunger	stimuli/non_foods\non-food_animate_Asian_man.jpg	1	2	1	non-food_animate_Asian_man	0	K	7	0	88	0		0	0	119.154531600187	119.254515800159
18308.25	0.0999584000092	221	hunger	stimuli/foods\lentils.jpg	1	2	1	lentils	1	M	9	0	74	0		0	0	119.304561300203	119.404519700212
18345.75	0.0999572000000626	222	hunger	stimuli/foods\mortadella.jpg	1	2	1	mortadella	1	E	20	1	83	0		0	0	119.454529200215	119.554486400215
18383.25	0.100012500071898	223	hunger	stimuli/non_foods\non-food_animate_cheetah.jpg	1	2	1	non-food_animate_cheetah	0	L	8	0	100	0		0	0	119.604527400108	119.70453990018
18420.75	0.0999372999649495	224	hunger	stimuli/non_foods\non-food_inanimate_hammer.jpg	1	2	1	non-food_inanimate_hammer	0	X	17	0	186	1	a	0.391867999918759	1	119.754572200123	119.854509500088
18458.25	0.0999898998998106	225	hunger	stimuli/non_foods\non-food_animate_giraffe.jpg	1	2	1	non-food_animate_giraffe	0	B	0	0	115	0		0	0	119.904525200138	120.004515100038
18495.75	0.0999922000337392	226	hunger	stimuli/foods\cream_donuts.jpg	1	2	1	cream_donuts	1	Z	18	0	39	0		0	0	120.054522100138	120.154514300171
18533.25	0.0999818998388946	227	hunger	stimuli/foods\pancakes.jpg	1	2	1	pancakes	1	R	12	0	234	0		0	0	120.204523000168	120.304504900007
18570.75	0.0999859999865294	228	hunger	stimuli/foods\cracker.jpg	1	2	1	cracker	1	B	0	0	38	0		0	0	120.354518000036	120.454504000023
18608.25	0.0999855999834836	229	hunger	stimuli/non_foods\non-food_inanimate_highlighter.jpg	1	2	1	non-food_inanimate_highlighter	0	L	8	0	189	0		0	0	120.504517700057	120.604503300041
18645.75	0.0999809000641108	230	hunger	stimuli/foods\pear.jpg	1	2	1	pear	1	Z	18	0	239	0		0	0	120.654517800082	120.754498700146
18683.25	0.10000089998357	231	hunger	stimuli/foods\honey.jpg	1	2	1	honey	1	V	15	0	66	0		0	0	120.804514000192	120.904514900176
18720.75	0.0999865001067519	232	hunger	stimuli/non_foods\non-food_inanimate_toy_airplane.jpg	1	2	1	non-food_inanimate_toy_airplane	0	Z	18	0	222	0		0	0	120.954514000099	121.054500500206
18758.25	0.0999843999743462	233	hunger	stimuli/foods\potatoes.jpg	1	2	1	potatoes	1	D	2	0	248	0		0	0	121.104511400219	121.204495800193
18795.75	0.0999647001735866	234	hunger	stimuli/non_foods\non-food_inanimate_socks.jpg	1	2	1	non-food_inanimate_socks	0	Z	18	0	211	0		0	0	121.254509299994	121.354474000167
18833.25	0.0999994000885636	235	hunger	stimuli/foods\fruit_pie.jpg	1	2	1	fruit_pie	1	N	10	0	54	0		0	0	121.404487800086	121.504487200174
18870.75	0.0999362000729889	236	hunger	stimuli/non_foods\non-food_inanimate_guitar.jpg	1	2	1	non-food_inanimate_guitar	0	L	8	0	185	0		0	0	121.554553100141	121.654489300214
18908.25	0.099976500030607	237	hunger	stimuli/non_foods\non-food_animate_sea_turtle.jpg	1	2	1	non-food_animate_sea_turtle	0	R	12	0	144	0		0	0	121.704512400087	121.804488900118
18945.75	0.0999861001037061	238	hunger	stimuli/non_foods\non-food_inanimate_rope.jpg	1	2	1	non-food_inanimate_rope	0	F	3	0	204	0		0	0	121.85450190003	121.954488000134
18983.25	0.0999908000230789	239	hunger	stimuli/non_foods\non-food_animate_donkey.jpg	1	2	1	non-food_animate_donkey	0	B	0	0	107	0		0	0	122.004495900124	122.104486700147
19020.75	0.0999848998617381	240	hunger	stimuli/non_foods\non-food_inanimate_alarm_clock.jpg	1	2	1	non-food_inanimate_alarm_clock	0	P	11	0	158	0		0	0	122.154499200173	122.254484100034
19058.25	0.0999808998312801	241	hunger	stimuli/non_foods\non-food_animate_yellow_bug.jpg	1	2	1	non-food_animate_yellow_bug	0	J	6	0	155	0		0	0	122.304498700192	122.404479600023
19095.75	0.099989099893719	242	hunger	stimuli/foods\raw_sausage.jpg	1	2	1	raw_sausage	1	S	13	0	254	0		0	0	122.454489800148	122.554478900041
19133.25	0.0999721998814493	243	hunger	stimuli/foods\cinnamon.jpg	1	2	1	cinnamon	1	H	5	0	30	0		0	0	122.604504000163	122.704476200044
19170.75	0.0999984999652952	244	hunger	stimuli/non_foods\non-food_animate_tortoise.jpg	1	2	1	non-food_animate_tortoise	0	K	7	0	153	0		0	0	122.754492600216	122.854491100181
19208.25	0.0999871001113206	245	hunger	stimuli/non_foods\non-food_inanimate_stapler.jpg	1	2	1	non-food_inanimate_stapler	0	H	5	0	213	0		0	0	122.904490400106	123.004477500217
19245.75	0.0999859001021832	246	hunger	stimuli/non_foods\non-food_inanimate_canoe.jpg	1	2	1	non-food_inanimate_canoe	0	J	6	0	170	0		0	0	123.054489100119	123.154475000221
19283.25	0.100010199937969	247	hunger	stimuli/non_foods\non-food_inanimate_bowling_ball.jpg	1	2	1	non-food_inanimate_bowling_ball	0	P	11	0	162	0		0	0	123.204484200105	123.304494400043
19320.75	0.0999413998797536	248	hunger	stimuli/foods\coffee_beans.jpg	1	2	1	coffee_beans	1	W	16	0	34	0		0	0	123.354528600117	123.454469999997
19358.25	0.0999859001021832	249	hunger	stimuli/non_foods\non-food_animate_porcupine.jpg	1	2	1	non-food_animate_porcupine	0	M	9	0	138	0		0	0	123.50448000012	123.604465900222
19395.75	0.0999839000869542	250	hunger	stimuli/foods\smoked_ham.jpg	1	2	1	smoked_ham	1	R	12	0	266	0		0	0	123.654480200028	123.754464100115
19433.25	0.10000710003078	251	hunger	stimuli/foods\nectarine.jpg	1	2	1	nectarine	1	T	14	0	87	0		0	0	123.804459300125	123.904466400156
19470.75	0.0999632999300957	252	hunger	stimuli/foods\mussels.jpg	1	2	1	mussels	1	M	9	0	86	0		0	0	123.954480000073	124.054443300003
19508.25	0.0999882000032812	253	hunger	stimuli/foods\fruit_flan.jpg	1	2	1	fruit_flan	1	R	12	0	53	0		0	0	124.104475300061	124.204463500064
19545.75	0.0999827000778168	254	hunger	stimuli/foods\orange.jpg	1	2	1	orange	1	Z	18	0	230	0		0	0	124.254474200075	124.354456900153
19583.25	0.0999714999925345	255	hunger	stimuli/non_foods\non-food_inanimate_lighter.jpg	1	2	1	non-food_inanimate_lighter	0	V	15	0	193	0		0	0	124.404487100197	124.50445860019
19620.75	0.0999848002102226	256	hunger	stimuli/non_foods\non-food_inanimate_nailpolish.jpg	1	2	1	non-food_inanimate_nailpolish	0	K	7	0	195	0		0	0	124.554472899996	124.654457700206
19658.25	0.0999857999850065	257	hunger	stimuli/non_foods\non-food_animate_raccoon.jpg	1	2	1	non-food_animate_raccoon	0	U	23	1	139	0		0	0	124.704469300108	124.804455100093
19695.75	0.0999847000930458	258	hunger	stimuli/foods\risotto_with_zucchini.jpg	1	2	1	risotto_with_zucchini	1	R	12	0	260	0		0	0	124.854468200123	124.954452900216
19733.25	0.100024699931964	259	hunger	stimuli/foods\minestrone_soup.jpg	1	2	1	minestrone_soup	1	N	10	0	82	0		0	0	125.004469500156	125.104494200088
19770.75	0.0999692999757826	260	hunger	stimuli/foods\donut.jpg	1	2	1	donut	1	H	5	0	44	0		0	0	125.154480000027	125.254449300002
19808.25	0.0999845999758691	261	hunger	stimuli/foods\corncob.jpg	1	2	1	corncob	1	X	17	0	37	0		0	0	125.304464400047	125.404449000023
19845.75	0.0999875999987125	262	hunger	stimuli/non_foods\non-food_inanimate_waterlily.jpg	1	2	1	non-food_inanimate_waterlily	0	G	4	0	226	0		0	0	125.454457900021	125.55444550002
19883.25	0.0999851000960916	263	hunger	stimuli/foods\raw_ham.jpg	1	2	1	raw_ham	1	D	2	0	253	0		0	0	125.60446000006	125.704445100157
19920.75	0.0999863999895751	264	hunger	stimuli/foods\fries.jpg	1	2	1	fries	1	F	3	0	52	0		0	0	125.754456300056	125.854442700045
19958.25	0.0999862998723984	265	hunger	stimuli/foods\carrot.jpg	1	2	1	carrot	1	G	4	0	19	0		0	0	125.904455100186	126.004441400059
19995.75	0.0999753999058157	266	hunger	stimuli/foods\broccoli.jpg	1	2	1	broccoli	1	N	10	0	13	0		0	0	126.054439100204	126.15441450011
20033.25	0.0999963998328894	267	hunger	stimuli/non_foods\non-food_inanimate_bucket.jpg	1	2	1	non-food_inanimate_bucket	0	F	3	0	165	0		0	0	126.204451100202	126.304447500035
20070.75	0.0999643998220563	268	hunger	stimuli/foods\strawberry.jpg	1	2	1	strawberry	1	V	15	0	272	0		0	0	126.35445040022	126.454414800042
20108.25	0.0999837999697775	269	hunger	stimuli/foods\waffle.jpg	1	2	1	waffle	1	X	17	0	278	0		0	0	126.504440200049	126.604424000019
20145.75	0.099986599991098	270	hunger	stimuli/foods\asparagus.jpg	1	2	1	asparagus	1	V	15	0	4	0		0	0	126.654438900063	126.754425500054
20183.25	0.0999822998419404	271	hunger	stimuli/foods\cinnamon_sroll.jpg	1	2	1	cinnamon_sroll	1	C	1	0	31	0		0	0	126.804517000215	126.904499300057
20220.75	0.0999614000320435	272	hunger	stimuli/foods\cauliflower.jpg	1	2	1	cauliflower	1	J	6	0	20	0		0	0	126.954454699997	127.054416100029
20258.25	0.0999714999925345	273	hunger	stimuli/foods\peas.jpg	1	2	1	peas	1	T	14	0	240	0		0	0	127.104455200024	127.204426700016
20295.75	0.09998430009	274	hunger	stimuli/non_foods\non-food_inanimate_scissors.jpg	1	2	1	non-food_inanimate_scissors	0	W	16	0	205	0		0	0	127.254438600037	127.354422900127
20333.25	0.0999837999697775	275	hunger	stimuli/foods\spaghetti_with_meat_sauce.jpg	1	2	1	spaghetti_with_meat_sauce	1	C	1	0	267	0		0	0	127.404440400191	127.50442420016
20370.75	0.0999594000168145	276	hunger	stimuli/non_foods\non-food_inanimate_wrench.jpg	1	2	1	non-food_inanimate_wrench	0	R	12	0	227	0		0	0	127.554438200081	127.654397600098
20408.25	0.0999864998739213	277	hunger	stimuli/foods\rockmelon.jpg	1	2	1	rockmelon	1	L	8	0	262	0		0	0	127.70442760014	127.804414100014
20445.75	0.0999992000870407	278	hunger	stimuli/non_foods\non-food_animate_alligator.jpg	1	2	1	non-food_animate_alligator	0	S	13	0	90	0		0	0	127.854415300069	127.954414500156
20483.25	0.0999817999545485	279	hunger	stimuli/foods\pea_pod.jpg	1	2	1	pea_pod	1	X	17	0	237	0		0	0	128.004427300068	128.104409100022
21091.5	0.0999829999636859	280	hunger	stimuli/non_foods\non-food_animate_woman.jpg	1	3	1	non-food_animate_woman	0	S	13	0	154	0		0	0	130.437741200207	130.53772420017
21129	0.0999406999908388	281	hunger	stimuli/non_foods\non-food_inanimate_fire_extinguisher.jpg	1	3	1	non-food_inanimate_fire_extinguisher	0	G	4	0	181	0		0	0	130.587777600158	130.687718300149
21166.5	0.0999833000823855	282	hunger	stimuli/non_foods\non-food_animate_horse.jpg	1	3	1	non-food_animate_horse	0	M	9	0	119	0		0	0	130.737735300092	130.837718600174
21204	0.0999636000487953	283	hunger	stimuli/foods\fruit_salad.jpg	1	3	1	fruit_salad	1	H	5	0	55	0		0	0	130.887740500038	130.987704100087
21241.5	0.0999821000732481	284	hunger	stimuli/non_foods\non-food_animate_young_girl.jpg	1	3	1	non-food_animate_young_girl	0	G	4	0	157	0		0	0	131.037724300055	131.137706400128
21279	0.0999547000974417	285	hunger	stimuli/non_foods\non-food_inanimate_jeans.jpg	1	3	1	non-food_inanimate_jeans	0	K	7	0	191	0		0	0	131.187731700018	131.287686400115
21316.5	0.0999795999377966	286	hunger	stimuli/non_foods\non-food_animate_bat.jpg	1	3	1	non-food_animate_bat	0	S	13	0	94	0		0	0	131.337729300139	131.437708900077
21354	0.0999846998602152	287	hunger	stimuli/non_foods\non-food_inanimate_toy_airplane.jpg	1	3	1	non-food_inanimate_toy_airplane	0	M	9	0	222	0		0	0	131.487725400133	131.587710099993
21391.5	0.0999845000915229	288	hunger	stimuli/foods\brownie.jpg	1	3	1	brownie	1	K	7	0	14	0		0	0	131.637722400017	131.737706900109
21429	0.0999852998647839	289	hunger	stimuli/foods\donut.jpg	1	3	1	donut	1	H	5	0	44	0		0	0	131.787721200148	131.887706500012
21466.5	0.0999835000839084	290	hunger	stimuli/foods\pumpkin.jpg	1	3	1	pumpkin	1	B	0	0	250	0		0	0	131.937720800051	132.037704300135
21504	0.0999835999682546	291	hunger	stimuli/non_foods\non-food_animate_seahorse.jpg	1	3	1	non-food_animate_seahorse	0	W	16	0	145	0		0	0	132.087716700044	132.187700300012
21541.5	0.100012599956244	292	hunger	stimuli/non_foods\non-food_inanimate_nest.jpg	1	3	1	non-food_inanimate_nest	0	G	4	0	196	0		0	0	132.237714700168	132.337727300124
21579	0.0999378999695182	293	hunger	stimuli/foods\potato_chips.jpg	1	3	1	potato_chips	1	M	9	0	247	0		0	0	132.387760400074	132.487698300043
21616.5	0.0999887001235038	294	hunger	stimuli/foods\bagel.jpg	1	3	1	bagel	1	L	8	0	6	0		0	0	132.537711200071	132.637699900195
21654	0.099983099848032	295	hunger	stimuli/non_foods\non-food_animate_lizard.jpg	1	3	1	non-food_animate_lizard	0	T	14	0	126	0		0	0	132.687712000217	132.787695100065
21691.5	0.0999875999987125	296	hunger	stimuli/foods\kiwi.jpg	1	3	1	kiwi	1	L	8	0	69	0		0	0	132.837706600083	132.937694200082
21729	0.0999755000229925	297	hunger	stimuli/non_foods\non-food_animate_cow.jpg	1	3	1	non-food_animate_cow	0	S	13	0	103	0		0	0	132.987708000001	133.087683500024
21766.5	0.099983099848032	298	hunger	stimuli/foods\rockmelon.jpg	1	3	1	rockmelon	1	R	12	0	262	0		0	0	133.137699500192	133.23768260004
21804	0.0999867999926209	299	hunger	stimuli/non_foods\non-food_inanimate_couch.jpg	1	3	1	non-food_inanimate_couch	0	G	4	0	176	0		0	0	133.287691300036	133.387678100029
21841.5	0.0999836002010852	300	hunger	stimuli/foods\spinach.jpg	1	3	1	spinach	1	C	1	0	268	0		0	0	133.437699900009	133.53768350021
21879	0.0999976000748575	301	hunger	stimuli/foods\cucumber.jpg	1	3	1	cucumber	1	J	6	0	41	0		0	0	133.587689500069	133.687687100144
21916.5	0.099983099848032	302	hunger	stimuli/foods\fennel.jpg	1	3	1	fennel	1	F	3	0	47	0		0	0	133.737701600185	133.837684700033
21954	0.099986599991098	303	hunger	stimuli/non_foods\non-food_animate_ant.jpg	1	3	1	non-food_animate_ant	0	C	1	0	91	0		0	0	133.887696300168	133.987682900159
21991.5	0.100015199976042	304	hunger	stimuli/foods\pear.jpg	1	3	1	pear	1	K	7	0	239	0		0	0	134.037710800068	134.137726000044
22029	0.0999574998859316	305	hunger	stimuli/foods\avocado.jpg	1	3	1	avocado	1	N	10	0	5	0		0	0	134.187723500188	134.287681000074
22066.5	0.0999841999728233	306	hunger	stimuli/non_foods\non-food_inanimate_broom.jpg	1	3	1	non-food_inanimate_broom	0	R	12	0	164	0		0	0	134.337690800196	134.437675000168
22104	0.0999674000777304	307	hunger	stimuli/non_foods\non-food_animate_butterfly.jpg	1	3	1	non-food_animate_butterfly	0	Z	18	0	96	0		0	0	134.487694600131	134.587662000209
22141.5	0.0999889001250267	308	hunger	stimuli/non_foods\non-food_animate_Causasian_man.jpg	1	3	1	non-food_animate_Causasian_man	0	F	3	0	89	0		0	0	134.637688999996	134.737677900121
22179	0.0999582000076771	309	hunger	stimuli/foods\fruit_pie.jpg	1	3	1	fruit_pie	1	S	13	0	54	0		0	0	134.787688100012	134.88764630002
22216.5	0.0999857999850065	310	hunger	stimuli/foods\cabbage.jpg	1	3	1	cabbage	1	N	10	0	16	0		0	0	134.937686200021	135.037672000006
22254	0.0999849999789149	311	hunger	stimuli/non_foods\non-food_animate_chicken.jpg	1	3	1	non-food_animate_chicken	0	B	0	0	101	0		0	0	135.087682400132	135.187667400111
22291.5	0.0999920999165624	312	hunger	stimuli/non_foods\non-food_animate_student_female.jpg	1	3	1	non-food_animate_student_female	0	Z	18	0	151	0		0	0	135.237674900098	135.337667000014
22329	0.0999661001842469	313	hunger	stimuli/non_foods\non-food_animate_penguin.jpg	1	3	1	non-food_animate_penguin	0	V	15	0	135	0		0	0	135.387679300038	135.487645400222
22366.5	0.0999854998663068	314	hunger	stimuli/foods\red_cabbage.jpg	1	3	1	red_cabbage	1	H	5	0	256	0		0	0	135.537679500179	135.637665000046
22404	0.0999881001189351	315	hunger	stimuli/foods\brie.jpg	1	3	1	brie	1	R	12	0	12	0		0	0	135.687678500079	135.787666600198
22441.5	0.0999716001097113	316	hunger	stimuli/non_foods\non-food_inanimate_bowling_ball.jpg	1	3	1	non-food_inanimate_bowling_ball	0	D	2	0	162	0		0	0	135.837682100013	135.937653700123
22479	0.0999861999880522	317	hunger	stimuli/foods\apple.jpg	1	3	1	apple	1	N	10	0	1	0		0	0	135.987673500087	136.087659700075
22516.5	0.0999815000686795	318	hunger	stimuli/non_foods\non-food_inanimate_grass.jpg	1	3	1	non-food_inanimate_grass	0	V	15	0	184	0		0	0	136.137667800067	136.237649300136
22554	0.0999813000671566	319	hunger	stimuli/foods\salmon.jpg	1	3	1	salmon	1	M	9	0	264	0		0	0	136.28765990003	136.387641200097
22591.5	0.099980799946934	320	hunger	stimuli/non_foods\non-food_inanimate_waterlily.jpg	1	3	1	non-food_inanimate_waterlily	0	K	7	0	226	0		0	0	136.43765990017	136.537640700117
22629	0.0999953998252749	321	hunger	stimuli/non_foods\non-food_inanimate_teddy_bear.jpg	1	3	1	non-food_inanimate_teddy_bear	0	S	13	0	218	0		0	0	136.587644100189	136.687639500014
22666.5	0.0999858998693526	322	hunger	stimuli/non_foods\non-food_animate_grasshopper.jpg	1	3	1	non-food_animate_grasshopper	0	T	14	0	117	0		0	0	136.737656300189	136.837642200058
22704	0.099982799962163	323	hunger	stimuli/foods\fried_calamari.jpg	1	3	1	fried_calamari	1	G	4	0	50	0		0	0	136.887653800193	136.987636600155
22741.5	0.0999851000960916	324	hunger	stimuli/foods\mushroom.jpg	1	3	1	mushroom	1	S	13	0	85	0		0	0	137.037656600121	137.137641700218
22779	0.099992899922654	325	hunger	stimuli/non_foods\non-food_animate_ram.jpg	1	3	1	non-food_animate_ram	0	J	6	0	140	0		0	0	137.187646700069	137.287639599992
22816.5	0.0999829000793397	326	hunger	stimuli/foods\pepperoni_pizza.jpg	1	3	1	pepperoni_pizza	1	Z	18	0	241	0		0	0	137.337653300026	137.437636200106
22854	0.0999835999682546	327	hunger	stimuli/foods\spaghetti_with_meat_sauce.jpg	1	3	1	spaghetti_with_meat_sauce	1	M	9	0	267	0		0	0	137.487643700093	137.587627300061
22891.5	0.0999827000778168	328	hunger	stimuli/non_foods\non-food_animate_yellow_bug.jpg	1	3	1	non-food_animate_yellow_bug	0	G	4	0	155	0		0	0	137.637661800021	137.737644500099
22929	0.0999769999179989	329	hunger	stimuli/non_foods\non-food_inanimate_chair.jpg	1	3	1	non-food_inanimate_chair	0	V	15	0	172	0		0	0	137.787661400158	137.887638400076
22966.5	0.0999882000032812	330	hunger	stimuli/non_foods\non-food_animate_sea_turtle.jpg	1	3	1	non-food_animate_sea_turtle	0	H	5	0	144	0		0	0	137.93765210011	138.037640300114
23004	0.0999848002102226	331	hunger	stimuli/non_foods\non-food_animate_seal.jpg	1	3	1	non-food_animate_seal	0	F	3	0	146	0		0	0	138.087650300004	138.187635100214
23041.5	0.0999892998952419	332	hunger	stimuli/non_foods\non-food_animate_gorilla.jpg	1	3	1	non-food_animate_gorilla	0	Z	18	0	116	0		0	0	138.23764380021	138.337633100105
23079	0.0999628999270499	333	hunger	stimuli/non_foods\non-food_animate_duck.jpg	1	3	1	non-food_animate_duck	0	L	8	0	109	0		0	0	138.387643400114	138.487606300041
23116.5	0.0999936000443995	334	hunger	stimuli/non_foods\non-food_animate_rhino.jpg	1	3	1	non-food_animate_rhino	0	W	16	0	141	0		0	0	138.537629000144	138.637622600188
23154	0.100034900009632	335	hunger	stimuli/non_foods\non-food_animate_cheetah.jpg	1	3	1	non-food_animate_cheetah	0	S	13	0	100	0		0	0	138.687634100206	138.787669000216
23191.5	0.0999804998282343	336	hunger	stimuli/non_foods\non-food_inanimate_padlock.jpg	1	3	1	non-food_inanimate_padlock	0	F	3	0	199	0		0	0	138.837646100204	138.937626600033
23229	0.0999844998586923	337	hunger	stimuli/non_foods\non-food_inanimate_drum_set.jpg	1	3	1	non-food_inanimate_drum_set	0	I	21	1	179	0		0	0	138.987639000174	139.087623500032
23266.5	0.0999950000550598	338	hunger	stimuli/foods\grilled_chicken_breast.jpg	1	3	1	grilled_chicken_breast	1	P	11	0	63	0		0	0	139.137617800152	139.237612800207
23304	0.0999837999697775	339	hunger	stimuli/non_foods\non-food_inanimate_sun_flower.jpg	1	3	1	non-food_inanimate_sun_flower	0	B	0	0	216	0		0	0	139.287631000159	139.387614800129
23341.5	0.0999644999392331	340	hunger	stimuli/foods\wafer.jpg	1	3	1	wafer	1	M	9	0	277	1	a	0.443202099995688	1	139.437647800194	139.537612300133
23379	0.0999837000854313	341	hunger	stimuli/foods\omelette.jpg	1	3	1	omelette	1	G	4	0	228	0		0	0	139.587634800002	139.687618500087
23416.5	0.100001599872485	342	hunger	stimuli/foods\baked_cod_with_carrots_and_green_beans.jpg	1	3	1	baked_cod_with_carrots_and_green_beans	1	M	9	0	7	0		0	0	139.737605000148	139.83760660002
23454	0.0999809000641108	343	hunger	stimuli/non_foods\non-food_inanimate_headphones.jpg	1	3	1	non-food_inanimate_headphones	0	S	13	0	188	0		0	0	139.887616900029	139.987597800093
23491.5	0.0999863999895751	344	hunger	stimuli/non_foods\non-food_inanimate_buds.jpg	1	3	1	non-food_inanimate_buds	0	L	8	0	166	0		0	0	140.037619000068	140.137605400058
23529	0.0999882000032812	345	hunger	stimuli/non_foods\non-food_inanimate_rack.jpg	1	3	1	non-food_inanimate_rack	0	P	11	0	202	0		0	0	140.18761140015	140.287599600153
23566.5	0.0999962999485433	346	hunger	stimuli/non_foods\non-food_inanimate_desk.jpg	1	3	1	non-food_inanimate_desk	0	K	7	0	178	0		0	0	140.337614400079	140.437610700028
23604	0.0999887001235038	347	hunger	stimuli/non_foods\non-food_animate_bee.jpg	1	3	1	non-food_animate_bee	0	D	2	0	95	0		0	0	140.487606900046	140.587595600169
23641.5	0.0999824001919478	348	hunger	stimuli/foods\cinnamon.jpg	1	3	1	cinnamon	1	W	16	0	30	0		0	0	140.637612899998	140.73759530019
23679	0.0999809000641108	349	hunger	stimuli/foods\minestrone_soup.jpg	1	3	1	minestrone_soup	1	J	6	0	82	0		0	0	140.787610300118	140.887591200182
23716.5	0.0999859999865294	350	hunger	stimuli/foods\ginger_root.jpg	1	3	1	ginger_root	1	R	12	0	57	0		0	0	140.93760830001	141.037594299996
23754	0.100002200109884	351	hunger	stimuli/foods\brussel_sprouts.jpg	1	3	1	brussel_sprouts	1	Z	18	0	15	0		0	0	141.087601300096	141.187603500206
23791.5	0.0999674999620765	352	hunger	stimuli/foods\grapefruits.jpg	1	3	1	grapefruits	1	L	8	0	59	0		0	0	141.237635300029	141.337602799991
23829	0.0999735000077635	353	hunger	stimuli/foods\coffee_beans.jpg	1	3	1	coffee_beans	1	Z	18	0	34	0		0	0	141.387611200102	141.487584700109
23866.5	0.0999732001218945	354	hunger	stimuli/non_foods\non-food_animate_dachshund.jpg	1	3	1	non-food_animate_dachshund	0	I	21	1	104	0		0	0	141.537602900062	141.637576100184
23904	0.100007499800995	355	hunger	stimuli/foods\blackberry.jpg	1	3	1	blackberry	1	H	5	0	11	0		0	0	141.6875874002	141.787594900001
23941.5	0.0999827000778168	356	hunger	stimuli/non_foods\non-food_inanimate_nailpolish.jpg	1	3	1	non-food_inanimate_nailpolish	0	D	2	0	195	0		0	0	141.837606200017	141.937588900095
23979	0.0999856998678297	357	hunger	stimuli/non_foods\non-food_animate_frog.jpg	1	3	1	non-food_animate_frog	0	B	0	0	113	1	a	0.459856000030413	1	141.987604200142	142.087589900009
24016.5	0.0999821999575943	358	hunger	stimuli/non_foods\non-food_inanimate_gloves.jpg	1	3	1	non-food_inanimate_gloves	0	N	10	0	183	0		0	0	142.137604000047	142.237586200004
24054	0.100002899998799	359	hunger	stimuli/foods\papaya.jpg	1	3	1	papaya	1	D	2	0	235	0		0	0	142.287601100048	142.387604000047
24091.5	0.099981099832803	360	hunger	stimuli/foods\green_beans.jpg	1	3	1	green_beans	1	B	0	0	61	0		0	0	142.437603300205	142.537584400037
24129	0.0999882998876274	361	hunger	stimuli/non_foods\non-food_animate_baby_sitting.jpg	1	3	1	non-food_animate_baby_sitting	0	J	6	0	93	0		0	0	142.587595800171	142.687584100058
24166.5	0.0999876998830587	362	hunger	stimuli/non_foods\non-food_inanimate_bucket.jpg	1	3	1	non-food_inanimate_bucket	0	P	11	0	165	0		0	0	142.737594900187	142.83758260007
24204	0.0999771000351757	363	hunger	stimuli/foods\beetroots.jpg	1	3	1	beetroots	1	W	16	0	10	0		0	0	142.887590000173	142.987567100208
24241.5	0.10004650009796	364	hunger	stimuli/foods\onion.jpg	1	3	1	onion	1	G	4	0	229	0		0	0	143.037552000023	143.137598500121
24279	0.0999978999607265	365	hunger	stimuli/foods\swordfish.jpg	1	3	1	swordfish	1	K	7	0	273	0		0	0	143.18757160008	143.28756950004
24316.5	0.0999600000213832	366	hunger	stimuli/non_foods\non-food_inanimate_clover.jpg	1	3	1	non-food_inanimate_clover	0	T	14	0	174	0		0	0	143.33758780011	143.437547800131
24354	0.0999998000916094	367	hunger	stimuli/foods\stew_with_potatoes_and_carrots.jpg	1	3	1	stew_with_potatoes_and_carrots	1	W	16	0	271	0		0	0	143.487575500039	143.587575300131
24391.5	0.0999838998541236	368	hunger	stimuli/foods\lemon.jpg	1	3	1	lemon	1	C	1	0	72	0		0	0	143.637578900205	143.737562800059
24429	0.0999846998602152	369	hunger	stimuli/foods\oyster.jpg	1	3	1	oyster	1	T	14	0	233	0		0	0	143.787571600173	143.887556300033
24466.5	0.09998709987849	370	hunger	stimuli/foods\orange.jpg	1	3	1	orange	1	P	11	0	230	0		0	0	143.93757470022	144.037561800098
24504	0.0999823999591172	371	hunger	stimuli/foods\pancakes.jpg	1	3	1	pancakes	1	Z	18	0	234	0		0	0	144.087568600196	144.187551000156
24541.5	0.0999885001219809	372	hunger	stimuli/foods\honey.jpg	1	3	1	honey	1	R	12	0	66	0		0	0	144.237567200093	144.337555700215
24579	0.0999593001324683	373	hunger	stimuli/non_foods\non-food_animate_camel.jpg	1	3	1	non-food_animate_camel	0	Z	18	0	97	0		0	0	144.38757780008	144.487537100213
24616.5	0.0999849999789149	374	hunger	stimuli/foods\potatoes.jpg	1	3	1	potatoes	1	C	1	0	248	0		0	0	144.537576100091	144.637561100069
24654	0.0999877001158893	375	hunger	stimuli/foods\lemon_meringue_pie.jpg	1	3	1	lemon_meringue_pie	1	K	7	0	73	0		0	0	144.68757300009	144.787560700206
24691.5	0.0999456997960806	376	hunger	stimuli/non_foods\non-food_inanimate_short_sleeved_shirt.jpg	1	3	1	non-food_inanimate_short_sleeved_shirt	0	Z	18	0	207	0		0	0	144.837600800209	144.937546500005
24729	0.0999924999196082	377	hunger	stimuli/foods\red_beans.jpg	1	3	1	red_beans	1	L	8	0	255	0		0	0	144.987554300111	145.08754680003
24766.5	0.0999859001021832	378	hunger	stimuli/foods\hamburger.jpg	1	3	1	hamburger	1	M	9	0	64	0		0	0	145.137564100092	145.237550000194
24804	0.0999833999667317	379	hunger	stimuli/non_foods\non-food_animate_Asian_man.jpg	1	3	1	non-food_animate_Asian_man	0	J	6	0	88	0		0	0	145.287557000061	145.387540400028
24841.5	0.099976799916476	380	hunger	stimuli/non_foods\non-food_animate_polar_bear.jpg	1	3	1	non-food_animate_polar_bear	0	N	10	0	137	0		0	0	145.437556900084	145.5375337
24879	0.10000850004144	381	hunger	stimuli/non_foods\non-food_animate_runner.jpg	1	3	1	non-food_animate_runner	0	K	7	0	142	0		0	0	145.587539500091	145.687548000133
24916.5	0.0999576000031084	382	hunger	stimuli/non_foods\non-food_animate_llama.jpg	1	3	1	non-food_animate_llama	0	O	22	1	127	0		0	0	145.737561900169	145.837519500172
24954	0.0999672000762075	383	hunger	stimuli/non_foods\non-food_animate_pigeon.jpg	1	3	1	non-food_animate_pigeon	0	C	1	0	136	0		0	0	145.887576200068	145.987543400144
24991.5	0.0999864998739213	384	hunger	stimuli/foods\ice_cream.jpg	1	3	1	ice_cream	1	J	6	0	68	1	a	0.391822299920022	1	146.037557700183	146.137544200057
25029	0.0999866998754442	385	hunger	stimuli/foods\toasted_bread_with_tomatoes.jpg	1	3	1	toasted_bread_with_tomatoes	1	B	0	0	275	0		0	0	146.187554400181	146.287541100057
25066.5	0.0999863999895751	386	hunger	stimuli/foods\clams.jpg	1	3	1	clams	1	J	6	0	32	0		0	0	146.33755720011	146.437543600099
25104	0.100026699947193	387	hunger	stimuli/foods\cauliflower.jpg	1	3	1	cauliflower	1	Z	18	0	20	0		0	0	146.487555100117	146.587581800064
25141.5	0.0999537000898272	388	hunger	stimuli/non_foods\non-food_inanimate_stapler.jpg	1	3	1	non-food_inanimate_stapler	0	F	3	0	213	0		0	0	146.63756910013	146.73752280022
25179	0.100004600128159	389	hunger	stimuli/non_foods\non-food_inanimate_cactus_pot_plant.jpg	1	3	1	non-food_inanimate_cactus_pot_plant	0	D	2	0	169	0		0	0	146.787530800095	146.887535400223
25216.5	0.0999847000930458	390	hunger	stimuli/non_foods\non-food_inanimate_button.jpg	1	3	1	non-food_inanimate_button	0	M	9	0	168	0		0	0	146.937547400128	147.037532100221
25254	0.0999757000245154	391	hunger	stimuli/non_foods\non-food_inanimate_toilet.jpg	1	3	1	non-food_inanimate_toilet	0	R	12	0	220	0		0	0	147.08754800004	147.187523700064
25291.5	0.0999880998861045	392	hunger	stimuli/non_foods\non-food_inanimate_table.jpg	1	3	1	non-food_inanimate_table	0	B	0	0	217	0		0	0	147.237536500208	147.337524600094
25329	0.099990600021556	393	hunger	stimuli/non_foods\non-food_animate_skunk.jpg	1	3	1	non-food_animate_skunk	0	Z	18	0	147	0		0	0	147.387531500077	147.487522100098
25366.5	0.0999965998344123	394	hunger	stimuli/foods\savory_pie.jpg	1	3	1	savory_pie	1	M	9	0	265	0		0	0	147.5375293002	147.637525900034
25404	0.0999828998465091	395	hunger	stimuli/non_foods\non-food_animate_lion.jpg	1	3	1	non-food_animate_lion	0	D	2	0	125	0		0	0	147.687540500192	147.787523400038
25441.5	0.0999890000093728	396	hunger	stimuli/non_foods\non-food_animate_eagle.jpg	1	3	1	non-food_animate_eagle	0	X	17	0	110	0		0	0	147.837535900064	147.937524900073
25479	0.0999863999895751	397	hunger	stimuli/non_foods\non-food_animate_ladybug.jpg	1	3	1	non-food_animate_ladybug	0	T	14	0	124	0		0	0	147.987536300207	148.087522700196
25516.5	0.0999878000002354	398	hunger	stimuli/foods\lasagna.jpg	1	3	1	lasagna	1	B	0	0	71	0		0	0	148.137532100081	148.237519900082
25554	0.100018600001931	399	hunger	stimuli/foods\broccoli.jpg	1	3	1	broccoli	1	K	7	0	13	0		0	0	148.287542300066	148.387560900068
25591.5	0.0999686000868678	400	hunger	stimuli/foods\garlic.jpg	1	3	1	garlic	1	D	2	0	56	0		0	0	148.437545099994	148.537513700081
25629	0.0999884000048041	401	hunger	stimuli/foods\mortadella.jpg	1	3	1	mortadella	1	R	12	0	83	0		0	0	148.587528100004	148.687516500009
25666.5	0.0999840998556465	402	hunger	stimuli/foods\cream_donuts.jpg	1	3	1	cream_donuts	1	B	0	0	39	0		0	0	148.737526900135	148.837510999991
25704	0.099984799977392	403	hunger	stimuli/foods\dates.jpg	1	3	1	dates	1	X	17	0	43	0		0	0	148.887525600148	148.987510400126
25741.5	0.0999838998541236	404	hunger	stimuli/non_foods\non-food_animate_peacock.jpg	1	3	1	non-food_animate_peacock	0	L	8	0	134	0		0	0	149.037526300177	149.137510200031
25779	0.0999841000884771	405	hunger	stimuli/non_foods\non-food_inanimate_skateboard.jpg	1	3	1	non-food_inanimate_skateboard	0	K	7	0	208	0		0	0	149.187522900058	149.287507000146
25816.5	0.0999837999697775	406	hunger	stimuli/non_foods\non-food_animate_dolphin.jpg	1	3	1	non-food_animate_dolphin	0	W	16	0	106	0		0	0	149.337520300178	149.437504100148
25854	0.0999857001006603	407	hunger	stimuli/non_foods\non-food_inanimate_moss.jpg	1	3	1	non-food_inanimate_moss	0	R	12	0	194	0		0	0	149.487517500063	149.587503200164
25891.5	0.0999848998617381	408	hunger	stimuli/foods\green_olives.jpg	1	3	1	green_olives	1	M	9	0	62	0		0	0	149.637516100192	149.737501000054
25929	0.0999835000839084	409	hunger	stimuli/foods\meatballs.jpg	1	3	1	meatballs	1	Z	18	0	81	0		0	0	149.787517100107	149.887500600191
25966.5	0.0999793999362737	410	hunger	stimuli/non_foods\non-food_animate_clown.jpg	1	3	1	non-food_animate_clown	0	F	3	0	102	0		0	0	149.937512200093	150.037491600029
26004	0.100030600093305	411	hunger	stimuli/non_foods\non-food_inanimate_rope.jpg	1	3	1	non-food_inanimate_rope	0	W	16	0	204	0		0	0	150.08751880005	150.187549400143
26041.5	0.0999831000808626	412	hunger	stimuli/non_foods\non-food_inanimate_fern.jpg	1	3	1	non-food_inanimate_fern	0	R	12	0	180	0		0	0	150.237512900028	150.337496000109
26079	0.099982799962163	413	hunger	stimuli/non_foods\non-food_animate_german_shepherd.jpg	1	3	1	non-food_animate_german_shepherd	0	T	14	0	114	0		0	0	150.387510200031	150.487492999993
26116.5	0.0999873999971896	414	hunger	stimuli/foods\salami.jpg	1	3	1	salami	1	L	8	0	263	0		0	0	150.53750620014	150.637493600138
26154	0.0999841999728233	415	hunger	stimuli/foods\peach.jpg	1	3	1	peach	1	B	0	0	238	0		0	0	150.687504800037	150.787489000009
26191.5	0.0999869999941438	416	hunger	stimuli/foods\corncob.jpg	1	3	1	corncob	1	C	1	0	37	0		0	0	150.83750090003	150.937487900024
26229	0.0999894998967648	417	hunger	stimuli/non_foods\non-food_animate_porcupine.jpg	1	3	1	non-food_animate_porcupine	0	H	5	0	138	0		0	0	150.987500100164	151.087489600061
26266.5	0.100001699989662	418	hunger	stimuli/non_foods\non-food_inanimate_bicycle.jpg	1	3	1	non-food_inanimate_bicycle	0	L	8	0	161	0		0	0	151.137500000186	151.237501700176
26304	0.0999851000960916	419	hunger	stimuli/foods\steak.jpg	1	3	1	steak	1	P	11	0	270	0		0	0	151.287498200079	151.387483300176
26816.5	0.0999766001477838	420	hunger	stimuli/foods\prawn.jpg	1	4	1	prawn	1	P	11	0	249	0		0	0	153.337487400044	153.437464000192
26854	0.100010099820793	421	hunger	stimuli/foods\nectarine.jpg	1	4	1	nectarine	1	M	9	0	87	0		0	0	153.487471300177	153.587481399998
26891.5	0.099964699940756	422	hunger	stimuli/foods\capsicum.jpg	1	4	1	capsicum	1	L	8	0	18	0		0	0	153.637491400121	153.737456100062
26929	0.0999845000915229	423	hunger	stimuli/non_foods\non-food_inanimate_socks.jpg	1	4	1	non-food_inanimate_socks	0	D	2	0	211	0		0	0	153.787469400093	153.887453900184
26966.5	0.099986599991098	424	hunger	stimuli/foods\radish.jpg	1	4	1	radish	1	P	11	0	251	0		0	0	153.937468300108	154.037454900099
27004	0.0999819000717252	425	hunger	stimuli/non_foods\non-food_animate_tortoise.jpg	1	4	1	non-food_animate_tortoise	0	F	3	0	153	0		0	0	154.08746770001	154.187449600082
27041.5	0.099982300074771	426	hunger	stimuli/non_foods\non-food_inanimate_cupboard.jpg	1	4	1	non-food_inanimate_cupboard	0	M	9	0	177	0		0	0	154.237463199999	154.337445500074
27079	0.0999886998906732	427	hunger	stimuli/foods\baked_lamb_with_potatoes.jpg	1	4	1	baked_lamb_with_potatoes	1	P	11	0	8	0		0	0	154.387462200131	154.487450900022
27116.5	0.0999976999592036	428	hunger	stimuli/foods\gnocchi.jpg	1	4	1	gnocchi	1	J	6	0	58	0		0	0	154.53746240004	154.637460099999
27154	0.0999812001828104	429	hunger	stimuli/foods\chilli.jpg	1	4	1	chilli	1	H	5	0	25	0		0	0	154.687468799995	154.787450000178
27191.5	0.0999855000991374	430	hunger	stimuli/non_foods\non-food_animate_swan.jpg	1	4	1	non-food_animate_swan	0	K	7	0	152	0		0	0	154.837461400079	154.937446900178
27229	0.100014599971473	431	hunger	stimuli/non_foods\non-food_animate_caterpillar.jpg	1	4	1	non-food_animate_caterpillar	0	C	1	0	99	0		0	0	154.987424300052	155.087438900024
27266.5	0.0999980999622494	432	hunger	stimuli/non_foods\non-food_animate_young_boy.jpg	1	4	1	non-food_animate_young_boy	0	H	5	0	156	0		0	0	155.137455200078	155.23745330004
27304	0.0999628000427037	433	hunger	stimuli/non_foods\non-food_inanimate_highlighter.jpg	1	4	1	non-food_inanimate_highlighter	0	Z	18	0	189	0		0	0	155.287472299999	155.387435100041
27341.5	0.099994899937883	434	hunger	stimuli/foods\pickles.jpg	1	4	1	pickles	1	M	9	0	242	0		0	0	155.437432000181	155.537426900119
27379	0.0999808001797646	435	hunger	stimuli/non_foods\non-food_inanimate_horn.jpg	1	4	1	non-food_inanimate_horn	0	J	6	0	190	0		0	0	155.58744110004	155.68742190022
27416.5	0.0999855999834836	436	hunger	stimuli/foods\eggplant.jpg	1	4	1	eggplant	1	H	5	0	46	0		0	0	155.737439400051	155.837425000034
27454	0.0999779000412673	437	hunger	stimuli/foods\egg.jpg	1	4	1	egg	1	R	12	0	45	0		0	0	155.887438100064	155.987416000105
27491.5	0.100001299986616	438	hunger	stimuli/foods\coconut.jpg	1	4	1	coconut	1	F	3	0	33	0		0	0	156.037428700132	156.137430000119
27529	0.0999825999606401	439	hunger	stimuli/foods\chestnut.jpg	1	4	1	chestnut	1	H	5	0	24	0		0	0	156.18744190014	156.2874245001
27566.5	0.0999910999089479	440	hunger	stimuli/non_foods\non-food_animate_donkey.jpg	1	4	1	non-food_animate_donkey	0	G	4	0	107	0		0	0	156.337436000118	156.437427100027
27604	0.0999853999819607	441	hunger	stimuli/foods\cooked_prawn.jpg	1	4	1	cooked_prawn	1	R	12	0	36	0		0	0	156.487438300159	156.587423700141
27641.5	0.0999880000017583	442	hunger	stimuli/foods\chocolate_bar.jpg	1	4	1	chocolate_bar	1	P	11	0	26	0		0	0	156.637438200181	156.737426200183
27679	0.0999916999135166	443	hunger	stimuli/non_foods\non-food_inanimate_ring.jpg	1	4	1	non-food_inanimate_ring	0	H	5	0	203	0		0	0	156.787437200081	156.887428899994
27716.5	0.0999957998283207	444	hunger	stimuli/foods\pea_pod.jpg	1	4	1	pea_pod	1	T	14	0	237	0		0	0	156.937434200197	157.037430000026
27754	0.0999437000136822	445	hunger	stimuli/foods\raw_sausage.jpg	1	4	1	raw_sausage	1	B	0	0	254	0		0	0	157.087474000175	157.187417700188
27791.5	0.09998430009	446	hunger	stimuli/non_foods\non-food_animate_hummingbird.jpg	1	4	1	non-food_animate_hummingbird	0	C	1	0	120	0		0	0	157.237431300106	157.337415600196
27829	0.0999815999530256	447	hunger	stimuli/non_foods\non-food_animate_elephant.jpg	1	4	1	non-food_animate_elephant	0	S	13	0	111	0		0	0	157.387430000119	157.487411600072
27866.5	0.0999829000793397	448	hunger	stimuli/foods\risotto_with_zucchini.jpg	1	4	1	risotto_with_zucchini	1	X	17	0	260	0		0	0	157.53742920002	157.637412100099
27904	0.0999855999834836	449	hunger	stimuli/non_foods\non-food_animate_sea_lion.jpg	1	4	1	non-food_animate_sea_lion	0	C	1	0	143	0		0	0	157.687426100019	157.787411700003
27941.5	0.0999859001021832	450	hunger	stimuli/foods\lamb_chops.jpg	1	4	1	lamb_chops	1	S	13	0	70	0		0	0	157.83742440003	157.937410300132
27979	0.0999839999713004	451	hunger	stimuli/non_foods\non-food_inanimate_chandelier.jpg	1	4	1	non-food_inanimate_chandelier	0	F	3	0	173	0		0	0	157.98742180015	158.087405800121
28016.5	0.0999791000504047	452	hunger	stimuli/foods\museli_bars.jpg	1	4	1	museli_bars	1	P	11	0	84	0		0	0	158.137419300154	158.237398400204
28054	0.0999912000261247	453	hunger	stimuli/foods\chocolate_pralines.jpg	1	4	1	chocolate_pralines	1	Z	18	0	28	0		0	0	158.287407000083	158.38739820011
28091.5	0.0999847000930458	454	hunger	stimuli/non_foods\non-food_animate_parrot.jpg	1	4	1	non-food_animate_parrot	0	J	6	0	133	0		0	0	158.437410600018	158.537395300111
28129	0.0999866998754442	455	hunger	stimuli/foods\fried_zucchini.jpg	1	4	1	fried_zucchini	1	B	0	0	51	0		0	0	158.587405400118	158.687392099993
28166.5	0.100012199953198	456	hunger	stimuli/non_foods\non-food_inanimate_protractor.jpg	1	4	1	non-food_inanimate_protractor	0	J	6	0	201	0		0	0	158.737400900107	158.83741310006
28204	0.099978500045836	457	hunger	stimuli/non_foods\non-food_inanimate_skirt.jpg	1	4	1	non-food_inanimate_skirt	0	P	11	0	209	0		0	0	158.887405600166	158.987384100212
28241.5	0.0999740001279861	458	hunger	stimuli/foods\cereal.jpg	1	4	1	cereal	1	D	2	0	22	0		0	0	159.037403000053	159.137377000181
28279	0.0999842998571694	459	hunger	stimuli/non_foods\non-food_inanimate_guitar.jpg	1	4	1	non-food_inanimate_guitar	0	G	4	0	185	0		0	0	159.187399400165	159.287383700022
28316.5	0.0999880000017583	460	hunger	stimuli/non_foods\non-food_inanimate_canoe.jpg	1	4	1	non-food_inanimate_canoe	0	P	11	0	170	0		0	0	159.337398400065	159.437386400066
28354	0.0999915001448244	461	hunger	stimuli/non_foods\non-food_inanimate_alarm_clock.jpg	1	4	1	non-food_inanimate_alarm_clock	0	T	14	0	158	0		0	0	159.487391900038	159.587383400183
28391.5	0.099984799977392	462	hunger	stimuli/foods\mussels.jpg	1	4	1	mussels	1	W	16	0	86	0		0	0	159.637396000093	159.73738080007
28429	0.0999825999606401	463	hunger	stimuli/non_foods\non-food_inanimate_soccer_ball.jpg	1	4	1	non-food_inanimate_soccer_ball	0	K	7	0	210	0		0	0	159.787392500089	159.88737510005
28466.5	0.0999855000991374	464	hunger	stimuli/non_foods\non-food_inanimate_shell.jpg	1	4	1	non-food_inanimate_shell	0	W	16	0	206	0		0	0	159.937394100009	160.037379600108
28504	0.09998430009	465	hunger	stimuli/non_foods\non-food_animate_snail.jpg	1	4	1	non-food_animate_snail	0	S	13	0	149	0		0	0	160.087390100118	160.187374400208
28541.5	0.099996600067243	466	hunger	stimuli/non_foods\non-food_animate_dragonfly.jpg	1	4	1	non-food_animate_dragonfly	0	A	19	1	108	0		0	0	160.23738950002	160.337386100087
28579	0.0999797000549734	467	hunger	stimuli/non_foods\non-food_inanimate_towel.jpg	1	4	1	non-food_inanimate_towel	0	M	9	0	221	0		0	0	160.387398299994	160.487378000049
28616.5	0.100009199930355	468	hunger	stimuli/foods\cracker.jpg	1	4	1	cracker	1	D	2	0	38	0		0	0	160.537391500082	160.637400700012
28654	0.0999503000639379	469	hunger	stimuli/non_foods\non-food_animate_deer.jpg	1	4	1	non-food_animate_deer	0	S	13	0	105	1	a	0.451058099977672	1	160.687428800156	160.78737910022
28691.5	0.0999879997689277	470	hunger	stimuli/foods\fries.jpg	1	4	1	fries	1	N	10	0	52	0		0	0	160.837388600223	160.937376599992
28729	0.0999846002086997	471	hunger	stimuli/non_foods\non-food_animate_owl.jpg	1	4	1	non-food_animate_owl	0	H	5	0	132	0		0	0	160.987388700014	161.087373300223
28766.5	0.0999845999758691	472	hunger	stimuli/foods\apricot.jpg	1	4	1	apricot	1	R	12	0	2	0		0	0	161.137389700161	161.237374300137
28804	0.0999836998526007	473	hunger	stimuli/foods\rice.jpg	1	4	1	rice	1	X	17	0	257	0		0	0	161.287386000156	161.387369700009
28841.5	0.0999859999865294	474	hunger	stimuli/foods\chocolate_pudding.jpg	1	4	1	chocolate_pudding	1	B	0	0	29	0		0	0	161.437381700147	161.537367700133
28879	0.0999866998754442	475	hunger	stimuli/non_foods\non-food_animate_baby_crawling.jpg	1	4	1	non-food_animate_baby_crawling	0	H	5	0	92	0		0	0	161.587382000173	161.687368700048
28916.5	0.0999859001021832	476	hunger	stimuli/foods\lettuce.jpg	1	4	1	lettuce	1	S	13	0	75	0		0	0	161.737378600053	161.837364500156
28954	0.099982300074771	477	hunger	stimuli/foods\grapes.jpg	1	4	1	grapes	1	C	1	0	60	0		0	0	161.887380700093	161.987363000168
28991.5	0.0999710999894887	478	hunger	stimuli/foods\roasted_chicken.jpg	1	4	1	roasted_chicken	1	K	7	0	261	0		0	0	162.037375800079	162.137346900068
29029	0.0999781999271363	479	hunger	stimuli/non_foods\non-food_animate_millipede.jpg	1	4	1	non-food_animate_millipede	0	R	12	0	129	0		0	0	162.187370600179	162.287348800106
29066.5	0.0999744001310319	480	hunger	stimuli/non_foods\non-food_animate_monkey.jpg	1	4	1	non-food_animate_monkey	0	V	15	0	130	0		0	0	162.337379300036	162.437353700167
29104	0.0999700999818742	481	hunger	stimuli/foods\pasta_carbonara.jpg	1	4	1	pasta_carbonara	1	S	13	0	236	0		0	0	162.487373200012	162.587343299994
29141.5	0.100020899903029	482	hunger	stimuli/foods\artichoke.jpg	1	4	1	artichoke	1	X	17	0	3	0		0	0	162.637347400188	162.737368300091
29179	0.0999728001188487	483	hunger	stimuli/foods\raw_ham.jpg	1	4	1	raw_ham	1	F	3	0	253	0		0	0	162.787370000035	162.887342800153
29216.5	0.099984799977392	484	hunger	stimuli/non_foods\non-food_animate_giraffe.jpg	1	4	1	non-food_animate_giraffe	0	G	4	0	115	0		0	0	162.93736070022	163.037345500197
29254	0.0999809999484569	485	hunger	stimuli/foods\cinnamon_sroll.jpg	1	4	1	cinnamon_sroll	1	V	15	0	31	0		0	0	163.087357200217	163.187338200165
29291.5	0.0999866998754442	486	hunger	stimuli/non_foods\non-food_inanimate_hammer.jpg	1	4	1	non-food_inanimate_hammer	0	S	13	0	186	0		0	0	163.237354500219	163.337341200095
29329	0.0999705998692662	487	hunger	stimuli/non_foods\non-food_inanimate_pine_cone.jpg	1	4	1	non-food_inanimate_pine_cone	0	V	15	0	200	0		0	0	163.387365700211	163.487336300081
29366.5	0.0999815999530256	488	hunger	stimuli/foods\rice_cake.jpg	1	4	1	rice_cake	1	S	13	0	258	0		0	0	163.53737250017	163.637354100123
29404	0.0999898000154644	489	hunger	stimuli/non_foods\non-food_animate_iguana.jpg	1	4	1	non-food_animate_iguana	0	R	12	0	121	0		0	0	163.687349000014	163.78733880003
29441.5	0.0999875999987125	490	hunger	stimuli/foods\peas.jpg	1	4	1	peas	1	X	17	0	240	0		0	0	163.837349100038	163.937336700037
29479	0.0999822001904249	491	hunger	stimuli/non_foods\non-food_inanimate_nettle.jpg	1	4	1	non-food_inanimate_nettle	0	K	7	0	197	0		0	0	163.987344600027	164.087326800218
29516.5	0.0999494001735002	492	hunger	stimuli/non_foods\non-food_inanimate_suitcase.jpg	1	4	1	non-food_inanimate_suitcase	0	S	13	0	215	0		0	0	164.137385400012	164.237334800186
29554	0.0999720999971032	493	hunger	stimuli/foods\cooked_ham.jpg	1	4	1	cooked_ham	1	Z	18	0	35	0		0	0	164.287351100007	164.387323200004
29591.5	0.100007599918172	494	hunger	stimuli/non_foods\non-food_animate_killer_whale.jpg	1	4	1	non-food_animate_killer_whale	0	C	1	0	123	0		0	0	164.437342000194	164.537349600112
29629	0.0999745998997241	495	hunger	stimuli/non_foods\non-food_inanimate_cap.jpg	1	4	1	non-food_inanimate_cap	0	X	17	0	171	0		0	0	164.587341200095	164.687315799994
29666.5	0.100010599941015	496	hunger	stimuli/foods\oven-roasted_tomatoes.jpg	1	4	1	oven-roasted_tomatoes	1	C	1	0	232	0		0	0	164.737320200074	164.837330800015
29704	0.0999872998800129	497	hunger	stimuli/foods\cannoli.jpg	1	4	1	cannoli	1	X	17	0	17	0		0	0	164.887344800169	164.987332100049
29741.5	0.0999866998754442	498	hunger	stimuli/non_foods\non-food_animate_mouse.jpg	1	4	1	non-food_animate_mouse	0	T	14	0	131	0		0	0	165.03734190017	165.137328600045
29779	0.100009100046009	499	hunger	stimuli/non_foods\non-food_animate_green_bug.jpg	1	4	1	non-food_animate_green_bug	0	V	15	0	118	0		0	0	165.187337900046	165.287347000092
29816.5	0.0999675001949072	500	hunger	stimuli/foods\risotto_with_peas_and_asparagus_tips.jpg	1	4	1	risotto_with_peas_and_asparagus_tips	1	M	9	0	259	0		0	0	165.337360200007	165.437327700201
29854	0.0999855999834836	501	hunger	stimuli/foods\lollies.jpg	1	4	1	lollies	1	C	1	0	78	0		0	0	165.487336100079	165.587321700063
29891.5	0.0999859999865294	502	hunger	stimuli/non_foods\non-food_animate_alligator.jpg	1	4	1	non-food_animate_alligator	0	D	2	0	90	0		0	0	165.637336100219	165.737322100205
29929	0.0999916000291705	503	hunger	stimuli/foods\carrot.jpg	1	4	1	carrot	1	P	11	0	19	0		0	0	165.78733530012	165.887326900149
29966.5	0.0999440001323819	504	hunger	stimuli/foods\pineapple.jpg	1	4	1	pineapple	1	G	4	0	243	0		0	0	165.937373700086	166.037317700218
30004	0.0999706999864429	505	hunger	stimuli/non_foods\non-food_inanimate_construction_helment.jpg	1	4	1	non-food_inanimate_construction_helment	0	Z	18	0	175	0		0	0	166.08734720014	166.187317900127
30041.5	0.0999821999575943	506	hunger	stimuli/non_foods\non-food_inanimate_tree.jpg	1	4	1	non-food_inanimate_tree	0	T	14	0	223	0		0	0	166.237331600161	166.337313800119
30079	0.0999644000548869	507	hunger	stimuli/foods\mandarin.jpg	1	4	1	mandarin	1	N	10	0	79	0		0	0	166.387329100166	166.48729350022
30116.5	0.0999778001569211	508	hunger	stimuli/non_foods\non-food_inanimate_tulip.jpg	1	4	1	non-food_inanimate_tulip	0	L	8	0	224	0		0	0	166.537310600048	166.637288400205
30154	0.0999831000808626	509	hunger	stimuli/foods\croissant.jpg	1	4	1	croissant	1	P	11	0	40	0		0	0	166.687314100098	166.787297200179
30191.5	0.0999962000641972	510	hunger	stimuli/non_foods\non-food_inanimate_wrench.jpg	1	4	1	non-food_inanimate_wrench	0	J	6	0	227	0		0	0	166.837315400131	166.937311600195
30229	0.0999710999894887	511	hunger	stimuli/foods\taco.jpg	1	4	1	taco	1	W	16	0	274	0		0	0	166.987321900204	167.087293000193
30266.5	0.0999907001387328	512	hunger	stimuli/foods\pork_and_rice.jpg	1	4	1	pork_and_rice	1	Z	18	0	245	0		0	0	167.137316900073	167.237307600211
30304	0.0999715998768806	513	hunger	stimuli/non_foods\non-food_inanimate_orchid.jpg	1	4	1	non-food_inanimate_orchid	0	R	12	0	198	0		0	0	167.287312300177	167.387283900054
30341.5	0.10000710003078	514	hunger	stimuli/foods\banana.jpg	1	4	1	banana	1	C	1	0	9	0		0	0	167.437292400049	167.53729950008
30379	0.0999979001935571	515	hunger	stimuli/foods\fruit_flan.jpg	1	4	1	fruit_flan	1	H	5	0	53	0		0	0	167.587314300006	167.6873122002
30416.5	0.0999346999451518	516	hunger	stimuli/foods\raisins.jpg	1	4	1	raisins	1	W	16	0	252	0		0	0	167.737362600164	167.83729730011
30454	0.0999898000154644	517	hunger	stimuli/non_foods\non-food_inanimate_bamboo.jpg	1	4	1	non-food_inanimate_bamboo	0	F	3	0	159	0		0	0	167.887311200146	167.987301000161
30491.5	0.0999896998982877	518	hunger	stimuli/non_foods\non-food_animate_slug.jpg	1	4	1	non-food_animate_slug	0	L	8	0	148	0		0	0	168.037307100138	168.137296800036
30529	0.0999877001158893	519	hunger	stimuli/foods\cherry.jpg	1	4	1	cherry	1	H	5	0	23	0		0	0	168.187304100022	168.287291800138
30566.5	0.0999849000945687	520	hunger	stimuli/non_foods\non-food_animate_kangaroo.jpg	1	4	1	non-food_animate_kangaroo	0	G	4	0	122	0		0	0	168.337306000059	168.437290900154
30604	0.0999839999713004	521	hunger	stimuli/non_foods\non-food_inanimate_folding_chair.jpg	1	4	1	non-food_inanimate_folding_chair	0	F	3	0	182	0		0	0	168.487304600189	168.58728860016
30641.5	0.0999803999438882	522	hunger	stimuli/non_foods\non-food_inanimate_scissors.jpg	1	4	1	non-food_inanimate_scissors	0	G	4	0	205	0		0	0	168.63730430021	168.737284700153
30679	0.100000000093132	523	hunger	stimuli/foods\potato_and_green_bean_salad.jpg	1	4	1	potato_and_green_bean_salad	1	X	17	0	246	0		0	0	168.787303100107	168.8873031002
30716.5	0.0999847000930458	524	hunger	stimuli/foods\figs.jpg	1	4	1	figs	1	L	8	0	48	0		0	0	168.937300299993	169.037285000086
30754	0.0999859999865294	525	hunger	stimuli/non_foods\non-food_animate_squirrel.jpg	1	4	1	non-food_animate_squirrel	0	M	9	0	150	0		0	0	169.087299000006	169.187284999993
30791.5	0.099985099863261	526	hunger	stimuli/foods\asparagus.jpg	1	4	1	asparagus	1	D	2	0	4	0		0	0	169.237297000131	169.337282099994
30829	0.0999818001873791	527	hunger	stimuli/non_foods\non-food_inanimate_stoplight.jpg	1	4	1	non-food_inanimate_stoplight	0	J	6	0	214	0		0	0	169.387293000007	169.487274800194
30866.5	0.0999418999999762	528	hunger	stimuli/foods\spring_onions.jpg	1	4	1	spring_onions	1	C	1	0	269	0		0	0	169.537337700138	169.637279600138
30904	0.0999861999880522	529	hunger	stimuli/non_foods\non-food_inanimate_bush.jpg	1	4	1	non-food_inanimate_bush	0	P	11	0	167	0		0	0	169.687291600043	169.787277800031
30941.5	0.0999846998602152	530	hunger	stimuli/foods\watermelon.jpg	1	4	1	watermelon	1	L	8	0	279	0		0	0	169.83729000017	169.937274700031
30979	0.0999853000976145	531	hunger	stimuli/non_foods\non-food_animate_cat.jpg	1	4	1	non-food_animate_cat	0	X	17	0	98	0		0	0	169.987288400065	170.087273700163
31016.5	0.0999835000839084	532	hunger	stimuli/non_foods\non-food_animate_raccoon.jpg	1	4	1	non-food_animate_raccoon	0	P	11	0	139	0		0	0	170.137285100063	170.237268600147
31054	0.0999879001174122	533	hunger	stimuli/non_foods\non-food_inanimate_leaf.jpg	1	4	1	non-food_inanimate_leaf	0	V	15	0	192	0		0	0	170.287283800077	170.387271700194
31091.5	0.0999859999865294	534	hunger	stimuli/foods\celery.jpg	1	4	1	celery	1	J	6	0	21	0		0	0	170.437284100102	170.537270100089
31129	0.0999900999013335	535	hunger	stimuli/non_foods\non-food_inanimate_hay.jpg	1	4	1	non-food_inanimate_hay	0	Z	18	0	187	0		0	0	170.587281500222	170.687271600123
31166.5	0.099964200053364	536	hunger	stimuli/non_foods\non-food_inanimate_lighter.jpg	1	4	1	non-food_inanimate_lighter	0	O	22	1	193	0		0	0	170.737294400111	170.837258600164
31204	0.0999839999713004	537	hunger	stimuli/foods\frankfurter_and_provolone_salad.jpg	1	4	1	frankfurter_and_provolone_salad	1	T	14	0	49	1	a	0.143180500017479	1	170.887267300161	170.987251300132
31241.5	0.0999873999971896	538	hunger	stimuli/foods\waffle.jpg	1	4	1	waffle	1	J	6	0	278	0		0	0	171.037269300083	171.13725670008
31279	0.10002540005371	539	hunger	stimuli/non_foods\non-food_animate_mammoth.jpg	1	4	1	non-food_animate_mammoth	0	W	16	0	128	0		0	0	171.187255800003	171.287281200057
31316.5	0.0999626000411808	540	hunger	stimuli/foods\cupcake.jpg	1	4	1	cupcake	1	L	8	0	42	0		0	0	171.337287800154	171.437250400195
31354	0.0999984999652952	541	hunger	stimuli/foods\hazelnuts.jpg	1	4	1	hazelnuts	1	K	7	0	65	0		0	0	171.487258700188	171.587257200154
31391.5	0.0999855000991374	542	hunger	stimuli/foods\lime.jpg	1	4	1	lime	1	D	2	0	76	1	a	0.991801999974996	1	171.637270000065	171.737255500164
31429	0.100014200201258	543	hunger	stimuli/foods\pomegranate.jpg	1	4	1	pomegranate	1	G	4	0	244	0		0	0	171.787242199993	171.887256400194
31466.5	0.0999879001174122	544	hunger	stimuli/foods\almonds.jpg	1	4	1	almonds	1	Z	18	0	0	0		0	0	171.937265600078	172.037253500195
31504	0.0999845999758691	545	hunger	stimuli/foods\oregano.jpg	1	4	1	oregano	1	T	14	0	231	0		0	0	172.08726410009	172.187248700066
31541.5	0.100003800122067	546	hunger	stimuli/foods\linguine_with_clams.jpg	1	4	1	linguine_with_clams	1	W	16	0	77	0		0	0	172.237244300079	172.337248100201
31579	0.0999726001173258	547	hunger	stimuli/foods\chocolate_chip_cookies.jpg	1	4	1	chocolate_chip_cookies	1	K	7	0	27	0		0	0	172.387272600085	172.487245200202
31616.5	0.0999837999697775	548	hunger	stimuli/non_foods\non-food_inanimate_tent.jpg	1	4	1	non-food_inanimate_tent	0	D	2	0	219	0		0	0	172.537261300022	172.637245099992
31654	0.099986300105229	549	hunger	stimuli/foods\tomato.jpg	1	4	1	tomato	1	W	16	0	276	0		0	0	172.687258600025	172.78724490013
31691.5	0.099980799946934	550	hunger	stimuli/foods\hotdog.jpg	1	4	1	hotdog	1	C	1	0	67	0		0	0	172.837256000144	172.937236800091
31729	0.100015399977565	551	hunger	stimuli/non_foods\non-food_inanimate_speakers.jpg	1	4	1	non-food_inanimate_speakers	0	Z	18	0	212	0		0	0	172.987255700165	173.087271100143
31766.5	0.0999793000519276	552	hunger	stimuli/foods\strawberry.jpg	1	4	1	strawberry	1	D	2	0	272	0		0	0	173.137248200132	173.237227500184
31804	0.0999830001965165	553	hunger	stimuli/foods\lentils.jpg	1	4	1	lentils	1	H	5	0	74	0		0	0	173.287242799997	173.387225800194
31841.5	0.0999688000883907	554	hunger	stimuli/non_foods\non-food_animate_fox.jpg	1	4	1	non-food_animate_fox	0	R	12	0	112	0		0	0	173.437250900082	173.537219700171
31879	0.0999854998663068	555	hunger	stimuli/non_foods\non-food_inanimate_watering_can.jpg	1	4	1	non-food_inanimate_watering_can	0	H	5	0	225	0		0	0	173.587246100185	173.687231600052
31916.5	0.0999871001113206	556	hunger	stimuli/non_foods\non-food_inanimate_bed.jpg	1	4	1	non-food_inanimate_bed	0	F	3	0	160	0		0	0	173.737244900083	173.837232000194
31954	0.099980500061065	557	hunger	stimuli/foods\mango.jpg	1	4	1	mango	1	P	11	0	80	0		0	0	173.887247400125	173.987227900187
31991.5	0.0999864002224058	558	hunger	stimuli/non_foods\non-food_inanimate_briefcase.jpg	1	4	1	non-food_inanimate_briefcase	0	C	1	0	163	0		0	0	174.0372432	174.137229600223
32029	0.0999484998174012	559	hunger	stimuli/foods\smoked_ham.jpg	1	4	1	smoked_ham	1	R	12	0	266	0		0	0	174.187278400175	174.287226899993
32499.75	0.0999929001554847	560	hunger	stimuli/foods\hazelnuts.jpg	1	5	1	hazelnuts	1	H	5	0	65	0		0	0	176.070545400027	176.170538300183
32537.25	0.100006000138819	561	hunger	stimuli/foods\mussels.jpg	1	5	1	mussels	1	S	13	0	86	0		0	0	176.220534200082	176.32054020022
32574.75	0.0999887001235038	562	hunger	stimuli/foods\pomegranate.jpg	1	5	1	pomegranate	1	B	0	0	244	0		0	0	176.370552700013	176.470541400136
32612.25	0.100000600097701	563	hunger	stimuli/non_foods\non-food_inanimate_highlighter.jpg	1	5	1	non-food_inanimate_highlighter	0	V	15	0	189	0		0	0	176.520535900025	176.620536500122
32649.75	0.0999687998555601	564	hunger	stimuli/non_foods\non-food_animate_kangaroo.jpg	1	5	1	non-food_animate_kangaroo	0	W	16	0	122	0		0	0	176.670552800177	176.770521600032
32687.25	0.0999819000717252	565	hunger	stimuli/non_foods\non-food_inanimate_grass.jpg	1	5	1	non-food_inanimate_grass	0	D	2	0	184	0		0	0	176.820550600067	176.920532500139
32724.75	0.0999852998647839	566	hunger	stimuli/foods\stew_with_potatoes_and_carrots.jpg	1	5	1	stew_with_potatoes_and_carrots	1	F	3	0	271	0		0	0	176.970540400129	177.070525699994
32762.25	0.100001600105315	567	hunger	stimuli/foods\egg.jpg	1	5	1	egg	1	K	7	0	45	0		0	0	177.120526300045	177.22052790015
32799.75	0.0999846998602152	568	hunger	stimuli/foods\risotto_with_peas_and_asparagus_tips.jpg	1	5	1	risotto_with_peas_and_asparagus_tips	1	Z	18	0	259	0		0	0	177.270539400168	177.370524100028
32837.25	0.0999878000002354	569	hunger	stimuli/non_foods\non-food_inanimate_bamboo.jpg	1	5	1	non-food_inanimate_bamboo	0	N	10	0	159	0		0	0	177.420536000049	177.520523800049
32874.75	0.100014999974519	570	hunger	stimuli/foods\pineapple.jpg	1	5	1	pineapple	1	J	6	0	243	0		0	0	177.570509900106	177.670524900081
32912.25	0.100006000138819	571	hunger	stimuli/foods\fruit_flan.jpg	1	5	1	fruit_flan	1	Z	18	0	53	0		0	0	177.72051870008	177.820524700219
32949.75	0.0999878000002354	572	hunger	stimuli/non_foods\non-food_inanimate_horn.jpg	1	5	1	non-food_inanimate_horn	0	I	21	1	190	0		0	0	177.87052220013	177.97051000013
32987.25	0.0999740001279861	573	hunger	stimuli/foods\fennel.jpg	1	5	1	fennel	1	R	12	0	47	0		0	0	178.020524400054	178.120498400182
33024.75	0.100006400141865	574	hunger	stimuli/foods\peach.jpg	1	5	1	peach	1	B	0	0	238	0		0	0	178.170506200055	178.270512600197
33062.25	0.0999934999272227	575	hunger	stimuli/foods\pork_and_rice.jpg	1	5	1	pork_and_rice	1	P	11	0	245	0		0	0	178.320524300216	178.420517800143
33099.75	0.099942599888891	576	hunger	stimuli/foods\broccoli.jpg	1	5	1	broccoli	1	N	10	0	13	1	a	0.609903200063854	1	178.470570400124	178.570513000013
33137.25	0.0999859001021832	577	hunger	stimuli/foods\beetroots.jpg	1	5	1	beetroots	1	L	8	0	10	0		0	0	178.62052430003	178.720510200132
33174.75	0.0999908000230789	578	hunger	stimuli/non_foods\non-food_animate_cheetah.jpg	1	5	1	non-food_animate_cheetah	0	J	6	0	100	0		0	0	178.770520100137	178.87051090016
33212.25	0.0999837999697775	579	hunger	stimuli/foods\omelette.jpg	1	5	1	omelette	1	K	7	0	228	0		0	0	178.920520200161	179.020504000131
33249.75	0.0999871001113206	580	hunger	stimuli/non_foods\non-food_animate_Causasian_man.jpg	1	5	1	non-food_animate_Causasian_man	0	H	5	0	89	0		0	0	179.070518000051	179.170505100163
33287.25	0.0999855999834836	581	hunger	stimuli/foods\pea_pod.jpg	1	5	1	pea_pod	1	G	4	0	237	0		0	0	179.220517900074	179.320503500057
33324.75	0.0999551999848336	582	hunger	stimuli/non_foods\non-food_inanimate_desk.jpg	1	5	1	non-food_inanimate_desk	0	J	6	0	178	0		0	0	179.370519000106	179.47047420009
33362.25	0.0999737000092864	583	hunger	stimuli/non_foods\non-food_inanimate_socks.jpg	1	5	1	non-food_inanimate_socks	0	V	15	0	211	0		0	0	179.520508500049	179.620482200058
33399.75	0.0999920999165624	584	hunger	stimuli/foods\figs.jpg	1	5	1	figs	1	C	1	0	48	0		0	0	179.670499300119	179.770491400035
33437.25	0.100006599910557	585	hunger	stimuli/foods\pear.jpg	1	5	1	pear	1	H	5	0	239	0		0	0	179.820501200156	179.920507800067
33474.75	0.0999811999499798	586	hunger	stimuli/non_foods\non-food_inanimate_moss.jpg	1	5	1	non-food_inanimate_moss	0	M	9	0	194	0		0	0	179.970514300046	180.070495499996
33512.25	0.100037100026384	587	hunger	stimuli/foods\smoked_ham.jpg	1	5	1	smoked_ham	1	F	3	0	266	0		0	0	180.120481800055	180.220518900082
33549.75	0.0999535000883043	588	hunger	stimuli/non_foods\non-food_animate_ladybug.jpg	1	5	1	non-food_animate_ladybug	0	M	9	0	124	0		0	0	180.270552800037	180.370506300125
33587.25	0.0999837999697775	589	hunger	stimuli/non_foods\non-food_inanimate_pine_cone.jpg	1	5	1	non-food_inanimate_pine_cone	0	R	12	0	200	0		0	0	180.420505300164	180.520489100134
33624.75	0.0999863999895751	590	hunger	stimuli/non_foods\non-food_animate_rhino.jpg	1	5	1	non-food_animate_rhino	0	P	11	0	141	0		0	0	180.570500300033	180.670486700023
33662.25	0.0999873999971896	591	hunger	stimuli/foods\avocado.jpg	1	5	1	avocado	1	M	9	0	5	0		0	0	180.720500500174	180.820487900171
33699.75	0.0999813999515027	592	hunger	stimuli/foods\onion.jpg	1	5	1	onion	1	J	6	0	229	0		0	0	180.870503900107	180.970485300058
33737.25	0.0999833999667317	593	hunger	stimuli/non_foods\non-food_inanimate_speakers.jpg	1	5	1	non-food_inanimate_speakers	0	B	0	0	212	0		0	0	181.020500300219	181.120483700186
33774.75	0.0999863999895751	594	hunger	stimuli/non_foods\non-food_animate_dragonfly.jpg	1	5	1	non-food_animate_dragonfly	0	F	3	0	108	0		0	0	181.170495400205	181.270481800195
33812.25	0.0999523000791669	595	hunger	stimuli/non_foods\non-food_inanimate_shell.jpg	1	5	1	non-food_inanimate_shell	0	K	7	0	206	0		0	0	181.320526099997	181.420478400076
33849.75	0.0999921998009086	596	hunger	stimuli/foods\apricot.jpg	1	5	1	apricot	1	R	12	0	2	0		0	0	181.470472300192	181.570464499993
33887.25	0.0999837999697775	597	hunger	stimuli/foods\potatoes.jpg	1	5	1	potatoes	1	M	9	0	248	0		0	0	181.620493400143	181.720477200113
33924.75	0.0999783999286592	598	hunger	stimuli/foods\pumpkin.jpg	1	5	1	pumpkin	1	T	14	0	250	0		0	0	181.770486900117	181.870465300046
33962.25	0.100038499804214	599	hunger	stimuli/non_foods\non-food_animate_donkey.jpg	1	5	1	non-food_animate_donkey	0	J	6	0	107	0		0	0	181.920480300207	182.020518800011
33999.75	0.0999654999468476	600	hunger	stimuli/non_foods\non-food_animate_swan.jpg	1	5	1	non-food_animate_swan	0	G	4	0	152	0		0	0	182.070504100062	182.170469600009
34037.25	0.0999871001113206	601	hunger	stimuli/foods\cream_donuts.jpg	1	5	1	cream_donuts	1	D	2	0	39	0		0	0	182.22048290004	182.320470000152
34074.75	0.099986300105229	602	hunger	stimuli/non_foods\non-food_animate_monkey.jpg	1	5	1	non-food_animate_monkey	0	M	9	0	130	0		0	0	182.370486000087	182.470472300192
34112.25	0.0999865001067519	603	hunger	stimuli/non_foods\non-food_animate_llama.jpg	1	5	1	non-food_animate_llama	0	T	14	0	127	0		0	0	182.520482300082	182.620468800189
34149.75	0.0999834998510778	604	hunger	stimuli/non_foods\non-food_animate_horse.jpg	1	5	1	non-food_animate_horse	0	P	11	0	119	0		0	0	182.670480100205	182.770463600056
34187.25	0.099986599991098	605	hunger	stimuli/foods\croissant.jpg	1	5	1	croissant	1	T	14	0	40	0		0	0	182.820475200191	182.920461800182
34224.75	0.0999743000138551	606	hunger	stimuli/non_foods\non-food_inanimate_rack.jpg	1	5	1	non-food_inanimate_rack	0	L	8	0	202	0		0	0	182.970476200106	183.070450500119
34262.25	0.0999751000199467	607	hunger	stimuli/foods\salami.jpg	1	5	1	salami	1	V	15	0	263	0		0	0	183.120482100174	183.220457200194
34299.75	0.0999836002010852	608	hunger	stimuli/foods\radish.jpg	1	5	1	radish	1	G	4	0	251	0		0	0	183.270472100005	183.370455700206
34337.25	0.0999860998708755	609	hunger	stimuli/foods\hotdog.jpg	1	5	1	hotdog	1	X	17	0	67	0		0	0	183.420472100144	183.520458200015
34374.75	0.0999783000443131	610	hunger	stimuli/non_foods\non-food_animate_killer_whale.jpg	1	5	1	non-food_animate_killer_whale	0	F	3	0	123	0		0	0	183.570468100021	183.670446400065
34412.25	0.100028899963945	611	hunger	stimuli/non_foods\non-food_inanimate_drum_set.jpg	1	5	1	non-food_inanimate_drum_set	0	G	4	0	179	0		0	0	183.720479200128	183.820508100092
34449.75	0.0999672999605536	612	hunger	stimuli/non_foods\non-food_animate_dolphin.jpg	1	5	1	non-food_animate_dolphin	0	R	12	0	106	0		0	0	183.87048240006	183.97044970002
34487.25	0.100002599880099	613	hunger	stimuli/non_foods\non-food_animate_porcupine.jpg	1	5	1	non-food_animate_porcupine	0	X	17	0	138	0		0	0	184.020437300205	184.120439900085
34524.75	0.0999819000717252	614	hunger	stimuli/non_foods\non-food_inanimate_broom.jpg	1	5	1	non-food_inanimate_broom	0	S	13	0	164	0		0	0	184.170456400141	184.270438300213
34562.25	0.0999569999985397	615	hunger	stimuli/non_foods\non-food_animate_giraffe.jpg	1	5	1	non-food_animate_giraffe	0	K	7	0	115	0		0	0	184.320463100215	184.420420100214
34599.75	0.0999833999667317	616	hunger	stimuli/non_foods\non-food_animate_iguana.jpg	1	5	1	non-food_animate_iguana	0	W	16	0	121	0		0	0	184.470459400211	184.570442800177
34637.25	0.0999839999713004	617	hunger	stimuli/non_foods\non-food_inanimate_orchid.jpg	1	5	1	non-food_inanimate_orchid	0	A	19	1	198	0		0	0	184.62045980012	184.720443800092
34674.75	0.0999839999713004	618	hunger	stimuli/non_foods\non-food_animate_seal.jpg	1	5	1	non-food_animate_seal	0	N	10	0	146	0		0	0	184.770455100108	184.870439100079
34712.25	0.0999702999833971	619	hunger	stimuli/foods\spring_onions.jpg	1	5	1	spring_onions	1	F	3	0	269	0		0	0	184.920455600135	185.020425900118
34749.75	0.100007799919695	620	hunger	stimuli/foods\cracker.jpg	1	5	1	cracker	1	N	10	0	38	0		0	0	185.070432300214	185.170440100133
34787.25	0.0999863999895751	621	hunger	stimuli/foods\banana.jpg	1	5	1	banana	1	D	2	0	9	1	a	0.691830799914896	1	185.220447500004	185.320433899993
34824.75	0.0999859001021832	622	hunger	stimuli/non_foods\non-food_animate_deer.jpg	1	5	1	non-food_animate_deer	0	V	15	0	105	0		0	0	185.370443300111	185.470429200213
34862.25	0.0999894998967648	623	hunger	stimuli/foods\peas.jpg	1	5	1	peas	1	K	7	0	240	0		0	0	185.520461500157	185.620451000053
34899.75	0.099994600052014	624	hunger	stimuli/foods\waffle.jpg	1	5	1	waffle	1	W	16	0	278	0		0	0	185.670424900018	185.77041950007
34937.25	0.0999825000762939	625	hunger	stimuli/non_foods\non-food_animate_young_girl.jpg	1	5	1	non-food_animate_young_girl	0	R	12	0	157	0		0	0	185.820447500097	185.920430000173
34974.75	0.0999874998815358	626	hunger	stimuli/non_foods\non-food_inanimate_wrench.jpg	1	5	1	non-food_inanimate_wrench	0	J	6	0	227	0		0	0	185.970440700185	186.070428200066
35012.25	0.0999873001128435	627	hunger	stimuli/foods\oven-roasted_tomatoes.jpg	1	5	1	oven-roasted_tomatoes	1	T	14	0	232	0		0	0	186.120441300096	186.220428600209
35049.75	0.100010999944061	628	hunger	stimuli/foods\lemon_meringue_pie.jpg	1	5	1	lemon_meringue_pie	1	K	7	0	73	0		0	0	186.270416600164	186.370427600108
35087.25	0.0999877001158893	629	hunger	stimuli/non_foods\non-food_inanimate_skirt.jpg	1	5	1	non-food_inanimate_skirt	0	V	15	0	209	0		0	0	186.420434900094	186.52042260021
35124.75	0.0999729000031948	630	hunger	stimuli/foods\chocolate_pralines.jpg	1	5	1	chocolate_pralines	1	D	2	0	28	0		0	0	186.570438600145	186.670411500148
35162.25	0.0999869001097977	631	hunger	stimuli/non_foods\non-food_animate_bat.jpg	1	5	1	non-food_animate_bat	0	R	12	0	94	0		0	0	186.720434000017	186.820420900127
35199.75	0.0999855999834836	632	hunger	stimuli/non_foods\non-food_inanimate_bed.jpg	1	5	1	non-food_inanimate_bed	0	T	14	0	160	0		0	0	186.870435100049	186.970420700032
35237.25	0.0999659998342395	633	hunger	stimuli/non_foods\non-food_animate_hummingbird.jpg	1	5	1	non-food_animate_hummingbird	0	N	10	0	120	0		0	0	187.020435900195	187.120401900029
35274.75	0.0999658000655472	634	hunger	stimuli/non_foods\non-food_animate_clown.jpg	1	5	1	non-food_animate_clown	0	M	9	0	102	0		0	0	187.170445000054	187.27041080012
35312.25	0.0999737000092864	635	hunger	stimuli/foods\clams.jpg	1	5	1	clams	1	V	15	0	32	0		0	0	187.320442100056	187.420415800065
35349.75	0.0999834998510778	636	hunger	stimuli/foods\raw_sausage.jpg	1	5	1	raw_sausage	1	L	8	0	254	0		0	0	187.470428200206	187.570411700057
35387.25	0.0999867001082748	637	hunger	stimuli/non_foods\non-food_inanimate_cupboard.jpg	1	5	1	non-food_inanimate_cupboard	0	N	10	0	177	0		0	0	187.62042520009	187.720411900198
35424.75	0.0999869999941438	638	hunger	stimuli/non_foods\non-food_animate_chicken.jpg	1	5	1	non-food_animate_chicken	0	B	0	0	101	0		0	0	187.770422100089	187.870409100084
35462.25	0.0999789999332279	639	hunger	stimuli/foods\fruit_salad.jpg	1	5	1	fruit_salad	1	L	8	0	55	0		0	0	187.920420200098	188.020399200032
35499.75	0.0999932999256998	640	hunger	stimuli/non_foods\non-food_animate_Asian_man.jpg	1	5	1	non-food_animate_Asian_man	0	B	0	0	88	0		0	0	188.070405200124	188.170398500049
35537.25	0.100003799889237	641	hunger	stimuli/foods\brownie.jpg	1	5	1	brownie	1	T	14	0	14	0		0	0	188.220399700105	188.320403499994
35574.75	0.0999942999333143	642	hunger	stimuli/foods\rockmelon.jpg	1	5	1	rockmelon	1	P	11	0	262	0		0	0	188.370416300138	188.470410600072
35612.25	0.0999710999894887	643	hunger	stimuli/non_foods\non-food_inanimate_alarm_clock.jpg	1	5	1	non-food_inanimate_alarm_clock	0	G	4	0	158	0		0	0	188.520430200035	188.620401300024
35649.75	0.0999974999576807	644	hunger	stimuli/foods\rice.jpg	1	5	1	rice	1	M	9	0	257	0		0	0	188.670400600182	188.77039810014
35687.25	0.0999696000944823	645	hunger	stimuli/non_foods\non-food_inanimate_suitcase.jpg	1	5	1	non-food_inanimate_suitcase	0	S	13	0	215	0		0	0	188.820410100045	188.920379700139
35724.75	0.100014799972996	646	hunger	stimuli/non_foods\non-food_animate_slug.jpg	1	5	1	non-food_animate_slug	0	T	14	0	148	0		0	0	188.97039510007	189.070409900043
35762.25	0.0999660000670701	647	hunger	stimuli/foods\nectarine.jpg	1	5	1	nectarine	1	L	8	0	87	0		0	0	189.120425600093	189.22039160016
35799.75	0.0999787000473589	648	hunger	stimuli/foods\meatballs.jpg	1	5	1	meatballs	1	P	11	0	81	0		0	0	189.270386000164	189.370364700211
35837.25	0.0999825999606401	649	hunger	stimuli/non_foods\non-food_animate_polar_bear.jpg	1	5	1	non-food_animate_polar_bear	0	F	3	0	137	0		0	0	189.4204051001	189.52038770006
