onset	duration	eventnumber	hunger_condition	stimfilename	blockno	trialno	is_faststream	stim	food_idx	letter	letter_idx	istarget	image_number	response	keypressed	rt	correct	time_stimon	time_stimoff
13664	0.0999515000730753	0	hunger	stimuli/non_foods\non-food_animate_sea_turtle.jpg	1	1	1	non-food_animate_sea_turtle	0	R	12	0	144	0		0	0	88.6336747999303	88.7336263000034
13701.5	0.100035600131378	1	hunger	stimuli/foods\dates.jpg	1	1	1	dates	1	C	1	0	43	0		0	0	88.7836433998309	88.8836789999623
13739	0.0999801000580192	2	hunger	stimuli/foods\raisins.jpg	1	1	1	raisins	1	J	6	0	252	0		0	0	88.9336429999676	89.0336231000256
13776.5	0.0999824998434633	3	hunger	stimuli/foods\strawberry.jpg	1	1	1	strawberry	1	L	8	0	272	0		0	0	89.0836465000175	89.183628999861
13814	0.0999975998420268	4	hunger	stimuli/non_foods\non-food_inanimate_bamboo.jpg	1	1	1	non-food_inanimate_bamboo	0	F	3	0	159	0		0	0	89.2336130000185	89.3336105998605
13851.5	0.0999857999850065	5	hunger	stimuli/non_foods\non-food_inanimate_stoplight.jpg	1	1	1	non-food_inanimate_stoplight	0	N	10	0	214	0		0	0	89.3836317998357	89.4836175998207
13889	0.100000699982047	6	hunger	stimuli/foods\cooked_ham.jpg	1	1	1	cooked_ham	1	S	13	0	35	0		0	0	89.5336217998993	89.6336224998813
13926.5	0.0999722999986261	7	hunger	stimuli/foods\carrot.jpg	1	1	1	carrot	1	V	15	0	19	0		0	0	89.6836478998885	89.7836201998871
13964	0.0999862002208829	8	hunger	stimuli/non_foods\non-food_inanimate_tree.jpg	1	1	1	non-food_inanimate_tree	0	T	14	0	223	0		0	0	89.8336341998074	89.9336204000283
14001.5	0.0999829999636859	9	hunger	stimuli/non_foods\non-food_inanimate_folding_chair.jpg	1	1	1	non-food_inanimate_folding_chair	0	W	16	0	182	0		0	0	89.983633399941	90.0836163999047
14039	0.099996300181374	10	hunger	stimuli/non_foods\non-food_inanimate_teddy_bear.jpg	1	1	1	non-food_inanimate_teddy_bear	0	C	1	0	218	0		0	0	90.1336317998357	90.2336281000171
14076.5	0.100027499953285	11	hunger	stimuli/foods\brussel_sprouts.jpg	1	1	1	brussel_sprouts	1	D	2	0	15	0		0	0	90.2836080999114	90.3836355998646
14114	0.0999602999072522	12	hunger	stimuli/foods\museli_bars.jpg	1	1	1	museli_bars	1	S	13	0	84	0		0	0	90.4336480000056	90.5336082999129
14151.5	0.0997387999668717	13	hunger	stimuli/non_foods\non-food_inanimate_button.jpg	1	1	1	non-food_inanimate_button	0	H	5	0	168	0		0	0	90.583883299958	90.6836220999248
14189	0.0999968000687659	14	hunger	stimuli/non_foods\non-food_animate_caterpillar.jpg	1	1	1	non-food_animate_caterpillar	0	G	4	0	99	0		0	0	90.7336098998785	90.8336066999473
14226.5	0.09998430009	15	hunger	stimuli/non_foods\non-food_inanimate_padlock.jpg	1	1	1	non-food_inanimate_padlock	0	N	10	0	199	0		0	0	90.8836210998707	90.9836053999607
14264	0.0999885001219809	16	hunger	stimuli/foods\risotto_with_zucchini.jpg	1	1	1	risotto_with_zucchini	1	X	17	0	260	0		0	0	91.0336187998764	91.1336072999984
14301.5	0.0999887001235038	17	hunger	stimuli/non_foods\non-food_animate_lizard.jpg	1	1	1	non-food_animate_lizard	0	W	16	0	126	0		0	0	91.1836150998715	91.283603799995
14339	0.0999882000032812	18	hunger	stimuli/non_foods\non-food_inanimate_desk.jpg	1	1	1	non-food_inanimate_desk	0	D	2	0	178	0		0	0	91.3336125998758	91.4336007998791
14376.5	0.0999752001371235	19	hunger	stimuli/non_foods\non-food_inanimate_toilet.jpg	1	1	1	non-food_inanimate_toilet	0	C	1	0	220	0		0	0	91.483624599874	91.5835998000111
14414	0.0999565999954939	20	hunger	stimuli/non_foods\non-food_animate_llama.jpg	1	1	1	non-food_animate_llama	0	T	14	0	127	0		0	0	91.6336146998219	91.7335712998174
14451.5	0.0999687998555601	21	hunger	stimuli/foods\mandarin.jpg	1	1	1	mandarin	1	B	0	0	79	0		0	0	91.7836050000042	91.8835737998597
14489	0.0999690999742597	22	hunger	stimuli/non_foods\non-food_animate_bee.jpg	1	1	1	non-food_animate_bee	0	T	14	0	95	0		0	0	91.9336079999339	92.0335770999081
14526.5	0.10001610009931	23	hunger	stimuli/foods\corncob.jpg	1	1	1	corncob	1	W	16	0	37	0		0	0	92.083614599891	92.1836306999903
14564	0.0999763999134302	24	hunger	stimuli/non_foods\non-food_animate_deer.jpg	1	1	1	non-food_animate_deer	0	K	7	0	105	0		0	0	92.233614299912	92.3335906998254
14601.5	0.0999843999743462	25	hunger	stimuli/foods\pumpkin.jpg	1	1	1	pumpkin	1	F	3	0	250	0		0	0	92.3836030999664	92.4835874999408
14639	0.0999853999819607	26	hunger	stimuli/non_foods\non-food_inanimate_canoe.jpg	1	1	1	non-food_inanimate_canoe	0	C	1	0	170	0		0	0	92.5335992998444	92.6335846998263
14676.5	0.0999841999728233	27	hunger	stimuli/non_foods\non-food_inanimate_shell.jpg	1	1	1	non-food_inanimate_shell	0	M	9	0	206	0		0	0	92.6835982999764	92.7835824999493
14714	0.0999851999804378	28	hunger	stimuli/non_foods\non-food_animate_green_bug.jpg	1	1	1	non-food_animate_green_bug	0	N	10	0	118	0		0	0	92.8335961999837	92.9335813999642
14751.5	0.0999882998876274	29	hunger	stimuli/non_foods\non-food_animate_mammoth.jpg	1	1	1	non-food_animate_mammoth	0	K	7	0	128	0		0	0	92.9835916999727	93.0835799998604
14789	0.0999845999758691	30	hunger	stimuli/foods\waffle.jpg	1	1	1	waffle	1	C	1	0	278	0		0	0	93.1335928000044	93.2335773999803
14826.5	0.0999716001097113	31	hunger	stimuli/foods\salmon.jpg	1	1	1	salmon	1	H	5	0	264	0		0	0	93.2836038998794	93.3835754999891
14864	0.0999819000717252	32	hunger	stimuli/foods\oyster.jpg	1	1	1	oyster	1	Z	18	0	233	0		0	0	93.433589699911	93.5335715999827
14901.5	0.0999817000702024	33	hunger	stimuli/non_foods\non-food_inanimate_toy_airplane.jpg	1	1	1	non-food_inanimate_toy_airplane	0	B	0	0	222	0		0	0	93.5835877999198	93.68356949999
14939	0.0999894998967648	34	hunger	stimuli/non_foods\non-food_inanimate_cap.jpg	1	1	1	non-food_inanimate_cap	0	N	10	0	171	0		0	0	93.7335830000229	93.8335724999197
14976.5	0.0999987998511642	35	hunger	stimuli/non_foods\non-food_inanimate_leaf.jpg	1	1	1	non-food_inanimate_leaf	0	C	1	0	192	0		0	0	93.8835887999739	93.9835875998251
15014	0.0999551999848336	36	hunger	stimuli/non_foods\non-food_animate_ram.jpg	1	1	1	non-food_animate_ram	0	S	13	0	140	0		0	0	94.033610999817	94.1335661998019
15051.5	0.0999866998754442	37	hunger	stimuli/foods\hotdog.jpg	1	1	1	hotdog	1	T	14	0	67	0		0	0	94.1835791999474	94.2835658998229
15089	0.0999855000991374	38	hunger	stimuli/foods\mango.jpg	1	1	1	mango	1	K	7	0	80	0		0	0	94.3335747998208	94.4335602999199
15126.5	0.0999874998815358	39	hunger	stimuli/non_foods\non-food_animate_runner.jpg	1	1	1	non-food_animate_runner	0	H	5	0	142	0		0	0	94.483574999962	94.5835624998435
15164	0.099985099863261	40	hunger	stimuli/non_foods\non-food_animate_horse.jpg	1	1	1	non-food_animate_horse	0	S	13	0	119	0		0	0	94.6335752999876	94.7335603998508
15201.5	0.0999875999987125	41	hunger	stimuli/non_foods\non-food_inanimate_grass.jpg	1	1	1	non-food_inanimate_grass	0	L	8	0	184	0		0	0	94.7835686998442	94.8835562998429
15239	0.100001699989662	42	hunger	stimuli/non_foods\non-food_animate_alligator.jpg	1	1	1	non-food_animate_alligator	0	C	1	0	90	0		0	0	94.9335763999261	95.0335780999158
15276.5	0.0999631001614034	43	hunger	stimuli/foods\cannoli.jpg	1	1	1	cannoli	1	N	10	0	17	0		0	0	95.0835894998163	95.1835525999777
15314	0.099989099893719	44	hunger	stimuli/foods\hamburger.jpg	1	1	1	hamburger	1	C	1	0	64	0		0	0	95.2335657000076	95.3335547999013
15351.5	0.0999847000930458	45	hunger	stimuli/foods\roasted_chicken.jpg	1	1	1	roasted_chicken	1	G	4	0	261	0		0	0	95.3835666999221	95.4835514000151
15389	0.0999857999850065	46	hunger	stimuli/non_foods\non-food_animate_tortoise.jpg	1	1	1	non-food_animate_tortoise	0	Z	18	0	153	0		0	0	95.5335627999157	95.6335485999007
15426.5	0.0999827000778168	47	hunger	stimuli/foods\red_cabbage.jpg	1	1	1	red_cabbage	1	X	17	0	256	0		0	0	95.6835778998211	95.7835605998989
15464	0.099966699955985	48	hunger	stimuli/non_foods\non-food_animate_Causasian_man.jpg	1	1	1	non-food_animate_Causasian_man	0	G	4	0	89	0		0	0	95.8335777998436	95.9335444997996
15501.5	0.0999976000748575	49	hunger	stimuli/foods\fried_zucchini.jpg	1	1	1	fried_zucchini	1	N	10	0	51	0		0	0	95.983555899933	96.0835535000078
15539	0.0999858998693526	50	hunger	stimuli/foods\green_beans.jpg	1	1	1	green_beans	1	K	7	0	61	0		0	0	96.1335583999753	96.2335442998447
15576.5	0.10001129982993	51	hunger	stimuli/non_foods\non-food_animate_clown.jpg	1	1	1	non-food_animate_clown	0	C	1	0	102	0		0	0	96.2835281000007	96.3835393998306
15614	0.0999845000915229	52	hunger	stimuli/foods\baked_lamb_with_potatoes.jpg	1	1	1	baked_lamb_with_potatoes	1	V	15	0	8	0		0	0	96.4335520998575	96.533536599949
15651.5	0.0999811999499798	53	hunger	stimuli/foods\pomegranate.jpg	1	1	1	pomegranate	1	L	8	0	244	0		0	0	96.5835520999972	96.6835332999472
15689	0.100002399878576	54	hunger	stimuli/non_foods\non-food_animate_parrot.jpg	1	1	1	non-food_animate_parrot	0	K	7	0	133	0		0	0	96.7335461999755	96.8335485998541
15726.5	0.0999735998921096	55	hunger	stimuli/foods\pasta_carbonara.jpg	1	1	1	pasta_carbonara	1	H	5	0	236	0		0	0	96.8835611999966	96.9835347998887
15764	0.0999845999758691	56	hunger	stimuli/foods\cream_donuts.jpg	1	1	1	cream_donuts	1	F	3	0	39	0		0	0	97.0335448998958	97.1335294998717
15801.5	0.100009800167754	57	hunger	stimuli/foods\chocolate_pudding.jpg	1	1	1	chocolate_pudding	1	R	12	0	29	0		0	0	97.1835206998512	97.283530500019
15839	0.0999954999424517	58	hunger	stimuli/non_foods\non-food_animate_cheetah.jpg	1	1	1	non-food_animate_cheetah	0	V	15	0	100	0		0	0	97.333540200023	97.4335356999654
15876.5	0.0999596000183374	59	hunger	stimuli/foods\blackberry.jpg	1	1	1	blackberry	1	A	19	1	11	0		0	0	97.4835627998691	97.5835223998874
15914	0.0999711998738348	60	hunger	stimuli/foods\spinach.jpg	1	1	1	spinach	1	Z	18	0	268	0		0	0	97.6335523999296	97.7335235998034
15951.5	0.0999783000443131	61	hunger	stimuli/non_foods\non-food_animate_raccoon.jpg	1	1	1	non-food_animate_raccoon	0	W	16	0	139	0		0	0	97.7835330998059	97.8835113998502
15989	0.0999839999713004	62	hunger	stimuli/non_foods\non-food_animate_rhino.jpg	1	1	1	non-food_animate_rhino	0	R	12	0	141	1	a	0.443249200005084	1	97.9335254998878	98.0335094998591
16026.5	0.0999772001523525	63	hunger	stimuli/foods\brownie.jpg	1	1	1	brownie	1	C	1	0	14	0		0	0	98.0835300998297	98.183507299982
16064	0.0999950000550598	64	hunger	stimuli/foods\kiwi.jpg	1	1	1	kiwi	1	G	4	0	69	0		0	0	98.233507799916	98.333502799971
16101.5	0.0999920000322163	65	hunger	stimuli/non_foods\non-food_animate_seahorse.jpg	1	1	1	non-food_animate_seahorse	0	H	5	0	145	0		0	0	98.3835205999203	98.4835125999525
16139	0.0999779999256134	66	hunger	stimuli/foods\lollies.jpg	1	1	1	lollies	1	W	16	0	78	0		0	0	98.5335118998773	98.633489899803
16176.5	0.099984799977392	67	hunger	stimuli/non_foods\non-food_animate_cow.jpg	1	1	1	non-food_animate_cow	0	P	11	0	103	0		0	0	98.6835164998192	98.7835012997966
16214	0.0999821999575943	68	hunger	stimuli/foods\chocolate_bar.jpg	1	1	1	chocolate_bar	1	N	10	0	26	0		0	0	98.8335184999742	98.9335006999318
16251.5	0.0999865001067519	69	hunger	stimuli/foods\lemon_meringue_pie.jpg	1	1	1	lemon_meringue_pie	1	J	6	0	73	0		0	0	98.9835128998384	99.0834993999451
16289	0.0999775999225676	70	hunger	stimuli/non_foods\non-food_inanimate_cupboard.jpg	1	1	1	non-food_inanimate_cupboard	0	D	2	0	177	0		0	0	99.133512099972	99.2334896998946
16326.5	0.0999647001735866	71	hunger	stimuli/non_foods\non-food_inanimate_protractor.jpg	1	1	1	non-food_inanimate_protractor	0	R	12	0	201	0		0	0	99.283538099844	99.3835028000176
16364	0.0999845000915229	72	hunger	stimuli/foods\risotto_with_peas_and_asparagus_tips.jpg	1	1	1	risotto_with_peas_and_asparagus_tips	1	W	16	0	259	0		0	0	99.4335136997979	99.5334981998894
16401.5	0.0999851999804378	73	hunger	stimuli/non_foods\non-food_animate_chicken.jpg	1	1	1	non-food_animate_chicken	0	T	14	0	101	0		0	0	99.5835136999376	99.683498899918
16439	0.0999684000853449	74	hunger	stimuli/non_foods\non-food_animate_hummingbird.jpg	1	1	1	non-food_animate_hummingbird	0	F	3	0	120	0		0	0	99.7335122998338	99.8334806999192
16476.5	0.0999858998693526	75	hunger	stimuli/foods\chocolate_pralines.jpg	1	1	1	chocolate_pralines	1	L	8	0	28	0		0	0	99.8835094999522	99.9834953998215
16514	0.100001000100747	76	hunger	stimuli/foods\grilled_chicken_breast.jpg	1	1	1	grilled_chicken_breast	1	F	3	0	63	0		0	0	100.033491999842	100.133492999943
16551.5	0.0999821999575943	77	hunger	stimuli/foods\smoked_ham.jpg	1	1	1	smoked_ham	1	D	2	0	266	0		0	0	100.183505899971	100.283488099929
16589	0.0999859001021832	78	hunger	stimuli/foods\ginger_root.jpg	1	1	1	ginger_root	1	T	14	0	57	0		0	0	100.333502499852	100.433488399955
16626.5	0.0999869999941438	79	hunger	stimuli/non_foods\non-food_animate_eagle.jpg	1	1	1	non-food_animate_eagle	0	Z	18	0	110	0		0	0	100.483502499992	100.583489499986
16664	0.0999986999668181	80	hunger	stimuli/non_foods\non-food_inanimate_bush.jpg	1	1	1	non-food_inanimate_bush	0	R	12	0	167	0		0	0	100.633478299947	100.733476999914
16701.5	0.0999856998678297	81	hunger	stimuli/foods\grapefruits.jpg	1	1	1	grapefruits	1	L	8	0	59	0		0	0	100.783488699934	100.883474399801
16739	0.0999964999500662	82	hunger	stimuli/non_foods\non-food_inanimate_bicycle.jpg	1	1	1	non-food_inanimate_bicycle	0	H	5	0	161	0		0	0	100.933482900029	101.033479399979
16776.5	0.0999354000668973	83	hunger	stimuli/non_foods\non-food_animate_fox.jpg	1	1	1	non-food_animate_fox	0	V	15	0	112	0		0	0	101.083541799802	101.183477199869
16814	0.0999844002071768	84	hunger	stimuli/non_foods\non-food_inanimate_cactus_pot_plant.jpg	1	1	1	non-food_inanimate_cactus_pot_plant	0	F	3	0	169	0		0	0	101.233494199812	101.33347860002
16851.5	0.0999827000778168	85	hunger	stimuli/foods\mortadella.jpg	1	1	1	mortadella	1	L	8	0	83	0		0	0	101.383491699817	101.483474399894
16889	0.0999850002117455	86	hunger	stimuli/foods\potatoes.jpg	1	1	1	potatoes	1	G	4	0	248	0		0	0	101.533488599816	101.633473600028
16926.5	0.0999843999743462	87	hunger	stimuli/foods\taco.jpg	1	1	1	taco	1	W	16	0	274	0		0	0	101.683488999959	101.783473399933
16964	0.099954399978742	88	hunger	stimuli/non_foods\non-food_inanimate_bucket.jpg	1	1	1	non-food_inanimate_bucket	0	C	1	0	165	0		0	0	101.833487799857	101.933442199836
17001.5	0.099990899907425	89	hunger	stimuli/non_foods\non-food_inanimate_suitcase.jpg	1	1	1	non-food_inanimate_suitcase	0	Z	18	0	215	0		0	0	101.983480799943	102.083471699851
17039	0.0999832998495549	90	hunger	stimuli/foods\pork_and_rice.jpg	1	1	1	pork_and_rice	1	D	2	0	245	0		0	0	102.133482099976	102.233465399826
17076.5	0.0999910000246018	91	hunger	stimuli/foods\donut.jpg	1	1	1	donut	1	P	11	0	44	0		0	0	102.28347769985	102.383468699874
17114	0.0999845999758691	92	hunger	stimuli/foods\minestrone_soup.jpg	1	1	1	minestrone_soup	1	V	15	0	82	0		0	0	102.433477899991	102.533462499967
17151.5	0.0999843999743462	93	hunger	stimuli/non_foods\non-food_animate_donkey.jpg	1	1	1	non-food_animate_donkey	0	L	8	0	107	0		0	0	102.583474799991	102.683459199965
17189	0.100010999944061	94	hunger	stimuli/non_foods\non-food_animate_pigeon.jpg	1	1	1	non-food_animate_pigeon	0	W	16	0	136	0		0	0	102.733473700006	102.83348469995
17226.5	0.0999584998935461	95	hunger	stimuli/non_foods\non-food_inanimate_scissors.jpg	1	1	1	non-food_inanimate_scissors	0	Z	18	0	205	0		0	0	102.883495799964	102.983454299858
17264	0.0999902000185102	96	hunger	stimuli/non_foods\non-food_inanimate_moss.jpg	1	1	1	non-food_inanimate_moss	0	R	12	0	194	0		0	0	103.033467599889	103.133457799908
17301.5	0.0999838002026081	97	hunger	stimuli/foods\lentils.jpg	1	1	1	lentils	1	X	17	0	74	0		0	0	103.183470199816	103.283454000019
17339	0.0999882998876274	98	hunger	stimuli/foods\artichoke.jpg	1	1	1	artichoke	1	H	5	0	3	0		0	0	103.333457499975	103.433445799863
17376.5	0.0999789999332279	99	hunger	stimuli/foods\cereal.jpg	1	1	1	cereal	1	S	13	0	22	0		0	0	103.48345639999	103.583435399923
17414	0.0999852998647839	100	hunger	stimuli/non_foods\non-food_animate_german_shepherd.jpg	1	1	1	non-food_animate_german_shepherd	0	K	7	0	114	0		0	0	103.633454900002	103.733440199867
17451.5	0.0999781000427902	101	hunger	stimuli/non_foods\non-food_animate_gorilla.jpg	1	1	1	non-food_animate_gorilla	0	M	9	0	116	0		0	0	103.783458799822	103.883436899865
17489	0.099984799977392	102	hunger	stimuli/foods\pepperoni_pizza.jpg	1	1	1	pepperoni_pizza	1	H	5	0	241	0		0	0	103.933453599922	104.0334383999
17526.5	0.0999850002117455	103	hunger	stimuli/foods\coconut.jpg	1	1	1	coconut	1	L	8	0	33	0		0	0	104.083449399797	104.183434400009
17564	0.100005799904466	104	hunger	stimuli/non_foods\non-food_animate_polar_bear.jpg	1	1	1	non-food_animate_polar_bear	0	W	16	0	137	0		0	0	104.23343189992	104.333437699825
17601.5	0.0999705998692662	105	hunger	stimuli/foods\onion.jpg	1	1	1	onion	1	M	9	0	229	0		0	0	104.383456100011	104.483426699881
17639	0.0999773999210447	106	hunger	stimuli/non_foods\non-food_animate_skunk.jpg	1	1	1	non-food_animate_skunk	0	B	0	0	147	0		0	0	104.533451299882	104.633428699803
17676.5	0.0999532998539507	107	hunger	stimuli/foods\pea_pod.jpg	1	1	1	pea_pod	1	K	7	0	237	0		0	0	104.683465200011	104.783418499865
17714	0.0999835000839084	108	hunger	stimuli/non_foods\non-food_animate_elephant.jpg	1	1	1	non-food_animate_elephant	0	E	20	1	111	0		0	0	104.833440499846	104.93342399993
17751.5	0.0999812998343259	109	hunger	stimuli/foods\prawn.jpg	1	1	1	prawn	1	R	12	0	249	0		0	0	104.98343849997	105.083419799805
17789	0.0999839000869542	110	hunger	stimuli/non_foods\non-food_inanimate_socks.jpg	1	1	1	non-food_inanimate_socks	0	K	7	0	211	0		0	0	105.133430399932	105.233414300019
17826.5	0.0999855000991374	111	hunger	stimuli/foods\omelette.jpg	1	1	1	omelette	1	R	12	0	228	0		0	0	105.283442899818	105.383428399917
17864	0.0999878998845816	112	hunger	stimuli/non_foods\non-food_animate_slug.jpg	1	1	1	non-food_animate_slug	0	W	16	0	148	0		0	0	105.433438699925	105.53342659981
17901.5	0.099982799962163	113	hunger	stimuli/non_foods\non-food_animate_bat.jpg	1	1	1	non-food_animate_bat	0	B	0	0	94	0		0	0	105.583440799965	105.683423599927
17939	0.0999684000853449	114	hunger	stimuli/foods\baked_cod_with_carrots_and_green_beans.jpg	1	1	1	baked_cod_with_carrots_and_green_beans	1	J	6	0	7	0		0	0	105.733450099826	105.833418499911
17976.5	0.0999879001174122	115	hunger	stimuli/non_foods\non-food_animate_Asian_man.jpg	1	1	1	non-food_animate_Asian_man	0	G	4	0	88	0		0	0	105.883433499839	105.983421399957
18014	0.0999851999804378	116	hunger	stimuli/non_foods\non-food_inanimate_soccer_ball.jpg	1	1	1	non-food_inanimate_soccer_ball	0	V	15	0	210	0		0	0	106.033434399869	106.13341959985
18051.5	0.0999496998265386	117	hunger	stimuli/foods\papaya.jpg	1	1	1	papaya	1	N	10	0	235	0		0	0	106.183429399971	106.283379099797
18089	0.100021600024775	118	hunger	stimuli/foods\peach.jpg	1	1	1	peach	1	S	13	0	238	0		0	0	106.333435099805	106.43345669983
18126.5	0.0999703998677433	119	hunger	stimuli/non_foods\non-food_inanimate_orchid.jpg	1	1	1	non-food_inanimate_orchid	0	H	5	0	198	0		0	0	106.483440899989	106.583411299856
18164	0.0999857001006603	120	hunger	stimuli/foods\raw_ham.jpg	1	1	1	raw_ham	1	W	16	0	253	0		0	0	106.633425999898	106.733411699999
18201.5	0.0999803000595421	121	hunger	stimuli/foods\spaghetti_with_meat_sauce.jpg	1	1	1	spaghetti_with_meat_sauce	1	M	9	0	267	0		0	0	106.783428999828	106.883409299888
18239	0.0999944999348372	122	hunger	stimuli/non_foods\non-food_inanimate_chair.jpg	1	1	1	non-food_inanimate_chair	0	L	8	0	172	0		0	0	106.933419999899	107.033414499834
18276.5	0.0999842998571694	123	hunger	stimuli/non_foods\non-food_inanimate_tulip.jpg	1	1	1	non-food_inanimate_tulip	0	X	17	0	224	0		0	0	107.08342229994	107.183406599797
18314	0.0999839999713004	124	hunger	stimuli/foods\brie.jpg	1	1	1	brie	1	D	2	0	12	0		0	0	107.233416399918	107.33340039989
18351.5	0.0999878000002354	125	hunger	stimuli/non_foods\non-food_inanimate_sun_flower.jpg	1	1	1	non-food_inanimate_sun_flower	0	W	16	0	216	0		0	0	107.383415899938	107.483403699938
18389	0.0999741000123322	126	hunger	stimuli/non_foods\non-food_inanimate_broom.jpg	1	1	1	non-food_inanimate_broom	0	S	13	0	164	0		0	0	107.533430499956	107.633404599968
18426.5	0.0999567999970168	127	hunger	stimuli/non_foods\non-food_animate_dolphin.jpg	1	1	1	non-food_animate_dolphin	0	V	15	0	106	0		0	0	107.683413699968	107.783370499965
18464	0.0999871001113206	128	hunger	stimuli/foods\fennel.jpg	1	1	1	fennel	1	R	12	0	47	0		0	0	107.833409499843	107.933396599954
18501.5	0.0999678999651223	129	hunger	stimuli/foods\rice.jpg	1	1	1	rice	1	S	13	0	257	0		0	0	107.983408699976	108.083376599941
18539	0.100019699893892	130	hunger	stimuli/foods\banana.jpg	1	1	1	banana	1	P	11	0	9	0		0	0	108.133392699994	108.233412399888
18576.5	0.0999531999696046	131	hunger	stimuli/foods\meatballs.jpg	1	1	1	meatballs	1	K	7	0	81	0		0	0	108.283438799903	108.383391999872
18614	0.099966200068593	132	hunger	stimuli/foods\fruit_salad.jpg	1	1	1	fruit_salad	1	C	1	0	55	0		0	0	108.433404499898	108.533370699966
18651.5	0.0999871999956667	133	hunger	stimuli/foods\cauliflower.jpg	1	1	1	cauliflower	1	S	13	0	20	0		0	0	108.583401100012	108.683388300007
18689	0.0999768001493067	134	hunger	stimuli/foods\chestnut.jpg	1	1	1	chestnut	1	T	14	0	24	0		0	0	108.733402599813	108.833379399963
18726.5	0.100007200147957	135	hunger	stimuli/foods\cherry.jpg	1	1	1	cherry	1	P	11	0	23	0		0	0	108.883368899813	108.983376099961
18764	0.100003700004891	136	hunger	stimuli/non_foods\non-food_inanimate_bowling_ball.jpg	1	1	1	non-food_inanimate_bowling_ball	0	W	16	0	162	0		0	0	109.033380599925	109.13338429993
18801.5	0.0999798998236656	137	hunger	stimuli/foods\stew_with_potatoes_and_carrots.jpg	1	1	1	stew_with_potatoes_and_carrots	1	D	2	0	271	0		0	0	109.183388100006	109.283367999829
18839	0.09997220011428	138	hunger	stimuli/foods\fruit_flan.jpg	1	1	1	fruit_flan	1	B	0	0	53	0		0	0	109.333399199881	109.433371399995
18876.5	0.099997199838981	139	hunger	stimuli/foods\radish.jpg	1	1	1	radish	1	Z	18	0	251	0		0	0	109.483379299985	109.583376499824
19676.5	0.0999765999149531	140	hunger	stimuli/non_foods\non-food_animate_peacock.jpg	1	2	1	non-food_animate_peacock	0	H	5	0	134	0		0	0	112.683359100018	112.783335699933
19714	0.100006300024688	141	hunger	stimuli/non_foods\non-food_inanimate_couch.jpg	1	2	1	non-food_inanimate_couch	0	K	7	0	176	0		0	0	112.833350399975	112.933356699999
19751.5	0.0999773000366986	142	hunger	stimuli/non_foods\non-food_inanimate_stapler.jpg	1	2	1	non-food_inanimate_stapler	0	P	11	0	213	0		0	0	112.983366299886	113.083343599923
19789	0.0999779000412673	143	hunger	stimuli/foods\lime.jpg	1	2	1	lime	1	N	10	0	76	0		0	0	113.133345999988	113.233323900029
19826.5	0.0999857001006603	144	hunger	stimuli/foods\figs.jpg	1	2	1	figs	1	J	6	0	48	0		0	0	113.28333269991	113.38331840001
19864	0.100004400126636	145	hunger	stimuli/foods\broccoli.jpg	1	2	1	broccoli	1	X	17	0	13	0		0	0	113.433333699824	113.533338099951
19901.5	0.0999511000700295	146	hunger	stimuli/foods\avocado.jpg	1	2	1	avocado	1	F	3	0	5	0		0	0	113.583374399925	113.683325499995
19939	0.0999712001066655	147	hunger	stimuli/foods\salami.jpg	1	2	1	salami	1	L	8	0	263	0		0	0	113.733340499923	113.833311700029
19976.5	0.0999462998006493	148	hunger	stimuli/non_foods\non-food_animate_squirrel.jpg	1	2	1	non-food_animate_squirrel	0	F	3	0	150	0		0	0	113.883351200027	113.983297499828
20014	0.0999831000808626	149	hunger	stimuli/non_foods\non-food_inanimate_watering_can.jpg	1	2	1	non-food_inanimate_watering_can	0	S	13	0	225	0		0	0	114.03333009989	114.133313199971
20051.5	0.100015099858865	150	hunger	stimuli/foods\apricot.jpg	1	2	1	apricot	1	D	2	0	2	0		0	0	114.183307399973	114.283322499832
20089	0.0999716999940574	151	hunger	stimuli/foods\frankfurter_and_provolone_salad.jpg	1	2	1	frankfurter_and_provolone_salad	1	P	11	0	49	0		0	0	114.333335099975	114.433306799969
20126.5	0.0999900999013335	152	hunger	stimuli/non_foods\non-food_inanimate_horn.jpg	1	2	1	non-food_inanimate_horn	0	H	5	0	190	0		0	0	114.483317899983	114.583307999885
20164	0.0999953001737595	153	hunger	stimuli/non_foods\non-food_inanimate_nailpolish.jpg	1	2	1	non-food_inanimate_nailpolish	0	S	13	0	195	0		0	0	114.633321599802	114.733316899976
20201.5	0.0999781000427902	154	hunger	stimuli/non_foods\non-food_inanimate_briefcase.jpg	1	2	1	non-food_inanimate_briefcase	0	Z	18	0	163	0		0	0	114.783325599972	114.883303700015
20239	0.0999885001219809	155	hunger	stimuli/non_foods\non-food_inanimate_nest.jpg	1	2	1	non-food_inanimate_nest	0	H	5	0	196	0		0	0	114.933325599879	115.033314100001
20276.5	0.100007300032303	156	hunger	stimuli/non_foods\non-food_animate_duck.jpg	1	2	1	non-food_animate_duck	0	X	17	0	109	0		0	0	115.083303299965	115.183310599998
20314	0.100010400172323	157	hunger	stimuli/foods\fried_calamari.jpg	1	2	1	fried_calamari	1	F	3	0	50	0		0	0	115.23329769983	115.333308100002
20351.5	0.0999740001279861	158	hunger	stimuli/foods\lamb_chops.jpg	1	2	1	lamb_chops	1	L	8	0	70	0		0	0	115.383336499799	115.483310499927
20389	0.100003800122067	159	hunger	stimuli/foods\orange.jpg	1	2	1	orange	1	K	7	0	230	0		0	0	115.533297099872	115.633300899994
20426.5	0.0999829999636859	160	hunger	stimuli/non_foods\non-food_inanimate_wrench.jpg	1	2	1	non-food_inanimate_wrench	0	R	12	0	227	0		0	0	115.683314400027	115.78329739999
20464	0.100009300047532	161	hunger	stimuli/foods\cupcake.jpg	1	2	1	cupcake	1	L	8	0	42	0		0	0	115.833297199802	115.93330649985
20501.5	0.0999853000976145	162	hunger	stimuli/non_foods\non-food_animate_ant.jpg	1	2	1	non-food_animate_ant	0	P	11	0	91	0		0	0	115.983311999822	116.08329729992
20539	0.0999859999865294	163	hunger	stimuli/non_foods\non-food_inanimate_short_sleeved_shirt.jpg	1	2	1	non-food_inanimate_short_sleeved_shirt	0	C	1	0	207	0		0	0	116.133308499819	116.233294499805
20576.5	0.0999892000108957	164	hunger	stimuli/foods\gnocchi.jpg	1	2	1	gnocchi	1	M	9	0	58	0		0	0	116.283306499943	116.383295699954
20614	0.0999855999834836	165	hunger	stimuli/non_foods\non-food_inanimate_guitar.jpg	1	2	1	non-food_inanimate_guitar	0	W	16	0	185	0		0	0	116.433304799953	116.533290399937
20651.5	0.0999867999926209	166	hunger	stimuli/foods\cinnamon.jpg	1	2	1	cinnamon	1	Z	18	0	30	0		0	0	116.583302899962	116.683289699955
20689	0.0999676000792533	167	hunger	stimuli/non_foods\non-food_animate_grasshopper.jpg	1	2	1	non-food_animate_grasshopper	0	M	9	0	117	0		0	0	116.733302699868	116.833270299947
20726.5	0.0999856998678297	168	hunger	stimuli/foods\lemon.jpg	1	2	1	lemon	1	G	4	0	72	0		0	0	116.883298699977	116.983284399845
20764	0.100000000093132	169	hunger	stimuli/non_foods\non-food_animate_millipede.jpg	1	2	1	non-food_animate_millipede	0	Z	18	0	129	0		0	0	117.0333008999	117.133300899994
20801.5	0.0999664000701159	170	hunger	stimuli/non_foods\non-food_animate_butterfly.jpg	1	2	1	non-food_animate_butterfly	0	W	16	0	96	0		0	0	117.183315099915	117.283281499986
20839	0.099990600021556	171	hunger	stimuli/non_foods\non-food_animate_baby_sitting.jpg	1	2	1	non-food_animate_baby_sitting	0	P	11	0	93	0		0	0	117.333290899871	117.433281499892
20876.5	0.0999867999926209	172	hunger	stimuli/foods\chilli.jpg	1	2	1	chilli	1	T	14	0	25	0		0	0	117.48329299991	117.583279799903
20914	0.0999862998723984	173	hunger	stimuli/non_foods\non-food_inanimate_buds.jpg	1	2	1	non-food_inanimate_buds	0	B	0	0	166	0		0	0	117.633289000019	117.733275299892
20951.5	0.099982799962163	174	hunger	stimuli/non_foods\non-food_inanimate_clover.jpg	1	2	1	non-food_inanimate_clover	0	H	5	0	174	0		0	0	117.78329079994	117.883273599902
20989	0.0999825999606401	175	hunger	stimuli/foods\honey.jpg	1	2	1	honey	1	V	15	0	66	0		0	0	117.933290199842	118.033272799803
21026.5	0.0999839999713004	176	hunger	stimuli/foods\toasted_bread_with_tomatoes.jpg	1	2	1	toasted_bread_with_tomatoes	1	P	11	0	275	0		0	0	118.083283199929	118.1832671999
21064	0.0999672000762075	177	hunger	stimuli/non_foods\non-food_animate_penguin.jpg	1	2	1	non-food_animate_penguin	0	Z	18	0	135	0		0	0	118.233305899892	118.333273099968
21101.5	0.0999855999834836	178	hunger	stimuli/foods\cooked_prawn.jpg	1	2	1	cooked_prawn	1	X	17	0	36	0		0	0	118.383280799957	118.48326639994
21139	0.0999886998906732	179	hunger	stimuli/non_foods\non-food_animate_owl.jpg	1	2	1	non-food_animate_owl	0	H	5	0	132	0		0	0	118.53327809996	118.63326679985
21176.5	0.0999857999850065	180	hunger	stimuli/foods\spring_onions.jpg	1	2	1	spring_onions	1	K	7	0	269	0		0	0	118.683277899865	118.78326369985
21214	0.0999871999956667	181	hunger	stimuli/non_foods\non-food_inanimate_fern.jpg	1	2	1	non-food_inanimate_fern	0	G	4	0	180	0		0	0	118.833275399869	118.933262599865
21251.5	0.0999676000792533	182	hunger	stimuli/non_foods\non-food_inanimate_hay.jpg	1	2	1	non-food_inanimate_hay	0	M	9	0	187	0		0	0	118.983295499813	119.083263099892
21289	0.0999839999713004	183	hunger	stimuli/non_foods\non-food_animate_porcupine.jpg	1	2	1	non-food_animate_porcupine	0	C	1	0	138	0		0	0	119.133274399908	119.23325839988
21326.5	0.0999859001021832	184	hunger	stimuli/non_foods\non-food_animate_swan.jpg	1	2	1	non-food_animate_swan	0	X	17	0	152	0		0	0	119.283268699888	119.38325459999
21364	0.100003800122067	185	hunger	stimuli/foods\potato_and_green_bean_salad.jpg	1	2	1	potato_and_green_bean_salad	1	Z	18	0	246	0		0	0	119.433269899804	119.533273699926
21401.5	0.0999676999635994	186	hunger	stimuli/non_foods\non-food_inanimate_rope.jpg	1	2	1	non-food_inanimate_rope	0	N	10	0	204	0		0	0	119.58327279985	119.683240499813
21439	0.0999781000427902	187	hunger	stimuli/foods\rockmelon.jpg	1	2	1	rockmelon	1	G	4	0	262	0		0	0	119.733263499802	119.833241599845
21476.5	0.099989099893719	188	hunger	stimuli/non_foods\non-food_inanimate_construction_helment.jpg	1	2	1	non-food_inanimate_construction_helment	0	H	5	0	175	0		0	0	119.883253799984	119.983242899878
21514	0.0999811000656337	189	hunger	stimuli/non_foods\non-food_animate_cat.jpg	1	2	1	non-food_animate_cat	0	L	8	0	98	0		0	0	120.033258899814	120.133239999879
21551.5	0.0999815000686795	190	hunger	stimuli/foods\lasagna.jpg	1	2	1	lasagna	1	C	1	0	71	0		0	0	120.183265799889	120.283247299958
21589	0.0999841999728233	191	hunger	stimuli/non_foods\non-food_animate_ladybug.jpg	1	2	1	non-food_animate_ladybug	0	P	11	0	124	0		0	0	120.333259699866	120.433243899839
21626.5	0.0999791999347508	192	hunger	stimuli/non_foods\non-food_animate_mouse.jpg	1	2	1	non-food_animate_mouse	0	D	2	0	131	0		0	0	120.483256099978	120.583235299913
21664	0.0999948000535369	193	hunger	stimuli/non_foods\non-food_animate_monkey.jpg	1	2	1	non-food_animate_monkey	0	Z	18	0	130	0		0	0	120.633248099824	120.733242899878
21701.5	0.0999464998021722	194	hunger	stimuli/foods\potato_chips.jpg	1	2	1	potato_chips	1	C	1	0	247	0		0	0	120.783268200001	120.883214699803
21739	0.099984799977392	195	hunger	stimuli/foods\clams.jpg	1	2	1	clams	1	F	3	0	32	0		0	0	120.933251099894	121.033235899871
21776.5	0.0999844998586923	196	hunger	stimuli/non_foods\non-food_inanimate_alarm_clock.jpg	1	2	1	non-food_inanimate_alarm_clock	0	L	8	0	158	0		0	0	121.083249900024	121.183234399883
21814	0.0999827000778168	197	hunger	stimuli/non_foods\non-food_inanimate_chandelier.jpg	1	2	1	non-food_inanimate_chandelier	0	J	6	0	173	0		0	0	121.23324969993	121.333232400008
21851.5	0.0999865001067519	198	hunger	stimuli/foods\capsicum.jpg	1	2	1	capsicum	1	F	3	0	18	0		0	0	121.383245199919	121.483231700025
21889	0.099982300074771	199	hunger	stimuli/non_foods\non-food_inanimate_bed.jpg	1	2	1	non-food_inanimate_bed	0	B	0	0	160	0		0	0	121.533242999809	121.633225299884
21926.5	0.0999887001235038	200	hunger	stimuli/foods\eggplant.jpg	1	2	1	eggplant	1	M	9	0	46	0		0	0	121.683241899824	121.783230599947
21964	0.0999738001264632	201	hunger	stimuli/non_foods\non-food_animate_lion.jpg	1	2	1	non-food_animate_lion	0	K	7	0	125	0		0	0	121.833251899807	121.933225699933
22001.5	0.0999712001066655	202	hunger	stimuli/non_foods\non-food_animate_kangaroo.jpg	1	2	1	non-food_animate_kangaroo	0	S	13	0	122	0		0	0	121.983236499829	122.083207699936
22039	0.0999871999956667	203	hunger	stimuli/foods\asparagus.jpg	1	2	1	asparagus	1	P	11	0	4	0		0	0	122.133236499969	122.233223699965
22076.5	0.0999848998617381	204	hunger	stimuli/foods\cracker.jpg	1	2	1	cracker	1	F	3	0	38	0		0	0	122.283235399984	122.383220299846
22114	0.0999795000534505	205	hunger	stimuli/non_foods\non-food_inanimate_gloves.jpg	1	2	1	non-food_inanimate_gloves	0	G	4	0	183	0		0	0	122.433240699815	122.533220199868
22151.5	0.0999962000641972	206	hunger	stimuli/non_foods\non-food_inanimate_lighter.jpg	1	2	1	non-food_inanimate_lighter	0	N	10	0	193	0		0	0	122.583219399909	122.683215599973
22189	0.0999854998663068	207	hunger	stimuli/foods\bagel.jpg	1	2	1	bagel	1	X	17	0	6	0		0	0	122.733227899997	122.833213399863
22226.5	0.100007399916649	208	hunger	stimuli/foods\cinnamon_sroll.jpg	1	2	1	cinnamon_sroll	1	B	0	0	31	0		0	0	122.883208099985	122.983215499902
22264	0.10000089998357	209	hunger	stimuli/non_foods\non-food_animate_young_girl.jpg	1	2	1	non-food_animate_young_girl	0	R	12	0	157	0		0	0	123.033209899906	123.13321079989
22301.5	0.0999835000839084	210	hunger	stimuli/foods\pineapple.jpg	1	2	1	pineapple	1	W	16	0	243	0		0	0	123.183222899912	123.283206399996
22339	0.0999866002239287	211	hunger	stimuli/foods\cucumber.jpg	1	2	1	cucumber	1	P	11	0	41	0		0	0	123.333220899804	123.433207500027
22376.5	0.0999858002178371	212	hunger	stimuli/non_foods\non-food_animate_dachshund.jpg	1	2	1	non-food_animate_dachshund	0	F	3	0	104	0		0	0	123.483218599809	123.583204400027
22414	0.0999939998146147	213	hunger	stimuli/non_foods\non-food_inanimate_skirt.jpg	1	2	1	non-food_inanimate_skirt	0	D	2	0	209	0		0	0	123.633226800011	123.733220799826
22451.5	0.099984799977392	214	hunger	stimuli/foods\fries.jpg	1	2	1	fries	1	A	19	1	52	0		0	0	123.783216799842	123.88320159982
22489	0.0999855000991374	215	hunger	stimuli/non_foods\non-food_animate_student_female.jpg	1	2	1	non-food_animate_student_female	0	R	12	0	151	0		0	0	123.933205799898	124.033191299997
22526.5	0.099988600006327	216	hunger	stimuli/foods\lettuce.jpg	1	2	1	lettuce	1	P	11	0	75	0		0	0	124.083203200018	124.183191800024
22564	0.0999680999666452	217	hunger	stimuli/foods\cabbage.jpg	1	2	1	cabbage	1	W	16	0	16	0		0	0	124.233216200024	124.333184299991
22601.5	0.099970200099051	218	hunger	stimuli/non_foods\non-food_inanimate_skateboard.jpg	1	2	1	non-food_inanimate_skateboard	0	K	7	0	208	0		0	0	124.383212999906	124.483183200005
22639	0.0999811999499798	219	hunger	stimuli/foods\croissant.jpg	1	2	1	croissant	1	D	2	0	40	0		0	0	124.533202799968	124.633183999918
22676.5	0.0999861999880522	220	hunger	stimuli/foods\nectarine.jpg	1	2	1	nectarine	1	W	16	0	87	0		0	0	124.68319679983	124.783182999818
22714	0.0999873001128435	221	hunger	stimuli/non_foods\non-food_animate_camel.jpg	1	2	1	non-food_animate_camel	0	F	3	0	97	0		0	0	124.83319769986	124.933184999973
22751.5	0.0999840998556465	222	hunger	stimuli/non_foods\non-food_animate_killer_whale.jpg	1	2	1	non-food_animate_killer_whale	0	M	9	0	123	0		0	0	124.983191499952	125.083175599808
22789	0.0999835000839084	223	hunger	stimuli/foods\hazelnuts.jpg	1	2	1	hazelnuts	1	B	0	0	65	0		0	0	125.13319289987	125.233176399954
22826.5	0.0999817999545485	224	hunger	stimuli/foods\red_beans.jpg	1	2	1	red_beans	1	M	9	0	255	0		0	0	125.283186699962	125.383168499917
22864	0.0999809999484569	225	hunger	stimuli/non_foods\non-food_inanimate_highlighter.jpg	1	2	1	non-food_inanimate_highlighter	0	S	13	0	189	0		0	0	125.433200099971	125.53318109992
22901.5	0.0999835999682546	226	hunger	stimuli/foods\apple.jpg	1	2	1	apple	1	W	16	0	1	0		0	0	125.583185900003	125.683169499971
22939	0.0999793999362737	227	hunger	stimuli/non_foods\non-food_animate_giraffe.jpg	1	2	1	non-food_animate_giraffe	0	D	2	0	115	0		0	0	125.733188499929	125.833167899866
22976.5	0.0999983998481184	228	hunger	stimuli/non_foods\non-food_inanimate_jeans.jpg	1	2	1	non-food_inanimate_jeans	0	L	8	0	191	0		0	0	125.883176699979	125.983175099827
23014	0.0999479000456631	229	hunger	stimuli/non_foods\non-food_inanimate_waterlily.jpg	1	2	1	non-food_inanimate_waterlily	0	R	12	0	226	0		0	0	126.033213199815	126.13316109986
23051.5	0.0999759999103844	230	hunger	stimuli/non_foods\non-food_animate_iguana.jpg	1	2	1	non-food_animate_iguana	0	N	10	0	121	0		0	0	126.183182399953	126.283158399863
23089	0.099982799962163	231	hunger	stimuli/non_foods\non-food_inanimate_nettle.jpg	1	2	1	non-food_inanimate_nettle	0	T	14	0	197	0		0	0	126.333180099959	126.433162899921
23126.5	0.099986599991098	232	hunger	stimuli/non_foods\non-food_animate_frog.jpg	1	2	1	non-food_animate_frog	0	G	4	0	113	0		0	0	126.483172399923	126.583158999914
23164	0.0999823999591172	233	hunger	stimuli/non_foods\non-food_inanimate_speakers.jpg	1	2	1	non-food_inanimate_speakers	0	K	7	0	212	0		0	0	126.633175199851	126.733157599811
23201.5	0.0999789999332279	234	hunger	stimuli/foods\rice_cake.jpg	1	2	1	rice_cake	1	W	16	0	258	0		0	0	126.783172599971	126.883151599905
23239	0.0999968000687659	235	hunger	stimuli/non_foods\non-food_animate_baby_crawling.jpg	1	2	1	non-food_animate_baby_crawling	0	N	10	0	92	0		0	0	126.933167999843	127.033164799912
23276.5	0.099974500015378	236	hunger	stimuli/foods\oven-roasted_tomatoes.jpg	1	2	1	oven-roasted_tomatoes	1	D	2	0	232	0		0	0	127.083160199923	127.183134699939
23314	0.0999884000048041	237	hunger	stimuli/foods\almonds.jpg	1	2	1	almonds	1	N	10	0	0	0		0	0	127.233172999928	127.333161399933
23351.5	0.0999837000854313	238	hunger	stimuli/non_foods\non-food_inanimate_headphones.jpg	1	2	1	non-food_inanimate_headphones	0	B	0	0	188	0		0	0	127.383171899943	127.483155600028
23389	0.0999878998845816	239	hunger	stimuli/foods\chocolate_chip_cookies.jpg	1	2	1	chocolate_chip_cookies	1	W	16	0	27	0		0	0	127.533168599941	127.633156499825
23426.5	0.0999898000154644	240	hunger	stimuli/foods\celery.jpg	1	2	1	celery	1	Z	18	0	21	0		0	0	127.683167899959	127.783157699974
23464	0.0999859999865294	241	hunger	stimuli/non_foods\non-food_animate_dragonfly.jpg	1	2	1	non-food_animate_dragonfly	0	P	11	0	108	0		0	0	127.833170499885	127.933156499872
23501.5	0.099988300120458	242	hunger	stimuli/non_foods\non-food_inanimate_tent.jpg	1	2	1	non-food_inanimate_tent	0	H	5	0	219	0		0	0	127.983163599856	128.083151899977
23539	0.0999849999789149	243	hunger	stimuli/non_foods\non-food_inanimate_rack.jpg	1	2	1	non-food_inanimate_rack	0	R	12	0	202	0		0	0	128.133161299862	128.233146299841
23576.5	0.0999900000169873	244	hunger	stimuli/foods\oregano.jpg	1	2	1	oregano	1	Z	18	0	231	0		0	0	128.283157499973	128.38314749999
23614	0.0999897001311183	245	hunger	stimuli/foods\grapes.jpg	1	2	1	grapes	1	N	10	0	60	0		0	0	128.433155499864	128.533145199995
23651.5	0.0999722999986261	246	hunger	stimuli/non_foods\non-food_animate_yellow_bug.jpg	1	2	1	non-food_animate_yellow_bug	0	L	8	0	155	0		0	0	128.583157900022	128.683130200021
23689	0.0999795999377966	247	hunger	stimuli/non_foods\non-food_inanimate_table.jpg	1	2	1	non-food_inanimate_table	0	D	2	0	217	0		0	0	128.733146999963	128.8331265999
23726.5	0.100025100167841	248	hunger	stimuli/foods\mussels.jpg	1	2	1	mussels	1	S	13	0	86	0		0	0	128.883126299828	128.983151399996
23764	0.0999765999149531	249	hunger	stimuli/foods\garlic.jpg	1	2	1	garlic	1	X	17	0	56	0		0	0	129.033163100015	129.13313969993
23801.5	0.0999837000854313	250	hunger	stimuli/foods\coffee_beans.jpg	1	2	1	coffee_beans	1	N	10	0	34	0		0	0	129.183151899837	129.283135599922
23839	0.0999861999880522	251	hunger	stimuli/foods\mushroom.jpg	1	2	1	mushroom	1	B	0	0	85	0		0	0	129.333145199809	129.433131399797
23876.5	0.0999912000261247	252	hunger	stimuli/non_foods\non-food_inanimate_towel.jpg	1	2	1	non-food_inanimate_towel	0	W	16	0	221	0		0	0	129.483146399958	129.583137599984
23914	0.0999608000274748	253	hunger	stimuli/non_foods\non-food_inanimate_drum_set.jpg	1	2	1	non-food_inanimate_drum_set	0	X	17	0	179	0		0	0	129.633166499902	129.733127299929
23951.5	0.0999827000778168	254	hunger	stimuli/foods\watermelon.jpg	1	2	1	watermelon	1	C	1	0	279	0		0	0	129.783143899869	129.883126599947
23989	0.0999816998373717	255	hunger	stimuli/non_foods\non-food_animate_snail.jpg	1	2	1	non-food_animate_snail	0	X	17	0	149	0		0	0	129.933145100018	130.033126799855
24026.5	0.0999658999498934	256	hunger	stimuli/non_foods\non-food_animate_seal.jpg	1	2	1	non-food_animate_seal	0	F	3	0	146	0		0	0	130.083157500019	130.183123399969
24064	0.0999920000322163	257	hunger	stimuli/foods\fruit_pie.jpg	1	2	1	fruit_pie	1	K	7	0	54	0		0	0	130.233134699985	130.333126700018
24101.5	0.099980500061065	258	hunger	stimuli/foods\green_olives.jpg	1	2	1	green_olives	1	L	8	0	62	0		0	0	130.383138199802	130.483118699864
24139	0.0999855999834836	259	hunger	stimuli/non_foods\non-food_inanimate_ring.jpg	1	2	1	non-food_inanimate_ring	0	D	2	0	203	0		0	0	130.533131599892	130.633117199875
24176.5	0.09998430009	260	hunger	stimuli/non_foods\non-food_inanimate_fire_extinguisher.jpg	1	2	1	non-food_inanimate_fire_extinguisher	0	J	6	0	181	0		0	0	130.683133999817	130.783118299907
24214	0.0999693998601288	261	hunger	stimuli/foods\ice_cream.jpg	1	2	1	ice_cream	1	N	10	0	68	0		0	0	130.833119499963	130.933088899823
24251.5	0.099988300120458	262	hunger	stimuli/non_foods\non-food_animate_sea_lion.jpg	1	2	1	non-food_animate_sea_lion	0	Z	18	0	143	0		0	0	130.983126799809	131.083115099929
24289	0.0999845000915229	263	hunger	stimuli/foods\beetroots.jpg	1	2	1	beetroots	1	W	16	0	10	0		0	0	131.133128099842	131.233112599934
24326.5	0.099996899953112	264	hunger	stimuli/foods\pancakes.jpg	1	2	1	pancakes	1	D	2	0	234	0		0	0	131.283124499954	131.383121399907
24364	0.0999809000641108	265	hunger	stimuli/foods\linguine_with_clams.jpg	1	2	1	linguine_with_clams	1	J	6	0	77	0		0	0	131.433136099949	131.533117000014
24401.5	0.0999761999119073	266	hunger	stimuli/foods\tomato.jpg	1	2	1	tomato	1	X	17	0	276	0		0	0	131.583117699949	131.683093899861
24439	0.0999863999895751	267	hunger	stimuli/foods\steak.jpg	1	2	1	steak	1	E	20	1	270	0		0	0	131.733109399909	131.833095799899
24476.5	0.0999973998405039	268	hunger	stimuli/foods\egg.jpg	1	2	1	egg	1	M	9	0	45	0		0	0	131.883097799961	131.983095199801
24514	0.0999851000960916	269	hunger	stimuli/non_foods\non-food_animate_woman.jpg	1	2	1	non-food_animate_woman	0	X	17	0	154	0		0	0	132.033110899851	132.133095999947
24551.5	0.0999816998373717	270	hunger	stimuli/foods\savory_pie.jpg	1	2	1	savory_pie	1	M	9	0	265	0		0	0	132.183108099969	132.283089799806
24589	0.0999902999028563	271	hunger	stimuli/non_foods\non-food_inanimate_hammer.jpg	1	2	1	non-food_inanimate_hammer	0	V	15	0	186	0		0	0	132.333097500028	132.433087799931
24626.5	0.0999920999165624	272	hunger	stimuli/foods\wafer.jpg	1	2	1	wafer	1	Z	18	0	277	0		0	0	132.483097299933	132.58308939985
24664	0.0999802998267114	273	hunger	stimuli/non_foods\non-food_animate_young_boy.jpg	1	2	1	non-food_animate_young_boy	0	J	6	0	156	0		0	0	132.633116299985	132.733096599812
24701.5	0.100000300211832	274	hunger	stimuli/foods\pear.jpg	1	2	1	pear	1	H	5	0	239	0		0	0	132.783091199817	132.883091500029
24739	0.0999876998830587	275	hunger	stimuli/non_foods\non-food_inanimate_pine_cone.jpg	1	2	1	non-food_inanimate_pine_cone	0	T	14	0	200	0		0	0	132.933103699936	133.033091399819
24776.5	0.0999888000078499	276	hunger	stimuli/foods\peas.jpg	1	2	1	peas	1	P	11	0	240	0		0	0	133.083100899821	133.183089699829
24814	0.0999480001628399	277	hunger	stimuli/foods\pickles.jpg	1	2	1	pickles	1	J	6	0	242	0		0	0	133.233140499797	133.33308849996
24851.5	0.0999654999468476	278	hunger	stimuli/foods\raw_sausage.jpg	1	2	1	raw_sausage	1	W	16	0	254	0		0	0	133.383098699851	133.483064199798
24889	0.100003700004891	279	hunger	stimuli/foods\swordfish.jpg	1	2	1	swordfish	1	T	14	0	273	0		0	0	133.533071199898	133.633074899903
25614	0.0999752997886389	280	hunger	stimuli/non_foods\non-food_animate_rhino.jpg	1	3	1	non-food_animate_rhino	0	H	5	0	141	0		0	0	136.433069200022	136.533044499811
25651.5	0.0999575001187623	281	hunger	stimuli/foods\coffee_beans.jpg	1	3	1	coffee_beans	1	W	16	0	34	0		0	0	136.583058599848	136.683016099967
25689	0.0999896998982877	282	hunger	stimuli/non_foods\non-food_animate_penguin.jpg	1	3	1	non-food_animate_penguin	0	T	14	0	135	0		0	0	136.733053199947	136.833042899845
25726.5	0.100071899825707	283	hunger	stimuli/non_foods\non-food_inanimate_jeans.jpg	1	3	1	non-food_inanimate_jeans	0	R	12	0	191	0		0	0	136.88302790001	136.983099799836
25764	0.0999836998526007	284	hunger	stimuli/non_foods\non-food_inanimate_alarm_clock.jpg	1	3	1	non-food_inanimate_alarm_clock	0	L	8	0	158	0		0	0	137.033057400025	137.133041099878
25801.5	0.100010399939492	285	hunger	stimuli/foods\cream_donuts.jpg	1	3	1	cream_donuts	1	P	11	0	39	0		0	0	137.183052900014	137.283063299954
25839	0.0999886998906732	286	hunger	stimuli/non_foods\non-food_animate_porcupine.jpg	1	3	1	non-food_animate_porcupine	0	G	4	0	138	0		0	0	137.333046999993	137.433035699883
25876.5	0.0999551001004875	287	hunger	stimuli/non_foods\non-food_inanimate_table.jpg	1	3	1	non-food_inanimate_table	0	L	8	0	217	0		0	0	137.483080299804	137.583035399904
25914	0.0999844002071768	288	hunger	stimuli/non_foods\non-food_animate_young_boy.jpg	1	3	1	non-food_animate_young_boy	0	M	9	0	156	0		0	0	137.633047199808	137.733031600015
25951.5	0.0999837999697775	289	hunger	stimuli/non_foods\non-food_inanimate_headphones.jpg	1	3	1	non-food_inanimate_headphones	0	B	0	0	188	0		0	0	137.783047799952	137.883031599922
25989	0.09995560022071	290	hunger	stimuli/non_foods\non-food_inanimate_rack.jpg	1	3	1	non-food_inanimate_rack	0	G	4	0	202	0		0	0	137.933071599808	138.033027200028
26026.5	0.0999894998967648	291	hunger	stimuli/foods\mortadella.jpg	1	3	1	mortadella	1	D	2	0	83	0		0	0	138.083030899987	138.183020399883
26064	0.0999656000640243	292	hunger	stimuli/foods\hazelnuts.jpg	1	3	1	hazelnuts	1	W	16	0	65	0		0	0	138.233026099857	138.332991699921
26101.5	0.0999851000960916	293	hunger	stimuli/foods\ice_cream.jpg	1	3	1	ice_cream	1	L	8	0	68	0		0	0	138.383031499805	138.483016599901
26139	0.0999751999042928	294	hunger	stimuli/foods\pork_and_rice.jpg	1	3	1	pork_and_rice	1	Z	18	0	245	0		0	0	138.533048199955	138.63302339986
26176.5	0.100046099862084	295	hunger	stimuli/non_foods\non-food_animate_Causasian_man.jpg	1	3	1	non-food_animate_Causasian_man	0	G	4	0	89	0		0	0	138.683017299976	138.783063399838
26214	0.0999828001949936	296	hunger	stimuli/non_foods\non-food_inanimate_suitcase.jpg	1	3	1	non-food_inanimate_suitcase	0	F	3	0	215	0		0	0	138.833024399821	138.933007200016
26251.5	0.0999753000214696	297	hunger	stimuli/non_foods\non-food_animate_polar_bear.jpg	1	3	1	non-food_animate_polar_bear	0	C	1	0	137	0		0	0	138.983034199802	139.083009499824
26289	0.0999700999818742	298	hunger	stimuli/foods\raisins.jpg	1	3	1	raisins	1	B	0	0	252	0		0	0	139.133020999841	139.232991099823
26326.5	0.0999889001250267	299	hunger	stimuli/non_foods\non-food_animate_fox.jpg	1	3	1	non-food_animate_fox	0	X	17	0	112	0		0	0	139.283025499899	139.383014400024
26364	0.0999624999240041	300	hunger	stimuli/foods\museli_bars.jpg	1	3	1	museli_bars	1	P	11	0	84	0		0	0	139.433028799947	139.532991299871
26401.5	0.0999809999484569	301	hunger	stimuli/non_foods\non-food_inanimate_construction_helment.jpg	1	3	1	non-food_inanimate_construction_helment	0	T	14	0	175	0		0	0	139.583015199983	139.682996199932
26439	0.099988600006327	302	hunger	stimuli/non_foods\non-food_animate_seal.jpg	1	3	1	non-food_animate_seal	0	Z	18	0	146	0		0	0	139.733008299954	139.832996899961
26476.5	0.0999646000564098	303	hunger	stimuli/non_foods\non-food_inanimate_nettle.jpg	1	3	1	non-food_inanimate_nettle	0	L	8	0	197	0		0	0	139.883021699963	139.98298630002
26514	0.0999845000915229	304	hunger	stimuli/foods\papaya.jpg	1	3	1	papaya	1	G	4	0	235	0		0	0	140.033018099843	140.133002599934
26551.5	0.0999865001067519	305	hunger	stimuli/foods\cracker.jpg	1	3	1	cracker	1	K	7	0	38	0		0	0	140.183017199859	140.283003699966
26589	0.0999860998708755	306	hunger	stimuli/non_foods\non-food_inanimate_chandelier.jpg	1	3	1	non-food_inanimate_chandelier	0	U	23	1	173	0		0	0	140.333014199976	140.433000299847
26626.5	0.100004600128159	307	hunger	stimuli/non_foods\non-food_inanimate_nest.jpg	1	3	1	non-food_inanimate_nest	0	V	15	0	196	0		0	0	140.483010799857	140.583015399985
26664	0.0999851999804378	308	hunger	stimuli/non_foods\non-food_inanimate_drum_set.jpg	1	3	1	non-food_inanimate_drum_set	0	T	14	0	179	0		0	0	140.633013800019	140.732999
26701.5	0.0999851999804378	309	hunger	stimuli/non_foods\non-food_animate_runner.jpg	1	3	1	non-food_animate_runner	0	N	10	0	142	0		0	0	140.783007299993	140.882992499974
26739	0.0999944000504911	310	hunger	stimuli/foods\swordfish.jpg	1	3	1	swordfish	1	L	8	0	273	0		0	0	140.932999799959	141.03299420001
26776.5	0.0999869999941438	311	hunger	stimuli/non_foods\non-food_animate_dragonfly.jpg	1	3	1	non-food_animate_dragonfly	0	R	12	0	108	0		0	0	141.083003399894	141.182990399888
26814	0.0999852002132684	312	hunger	stimuli/foods\toasted_bread_with_tomatoes.jpg	1	3	1	toasted_bread_with_tomatoes	1	K	7	0	275	0		0	0	141.233003599802	141.332988800015
26851.5	0.0999672999605536	313	hunger	stimuli/non_foods\non-food_inanimate_highlighter.jpg	1	3	1	non-food_inanimate_highlighter	0	X	17	0	189	0		0	0	141.383013000013	141.482980299974
26889	0.0999819999560714	314	hunger	stimuli/foods\red_beans.jpg	1	3	1	red_beans	1	R	12	0	255	0		0	0	141.532992299879	141.632974299835
26926.5	0.0999514001887292	315	hunger	stimuli/foods\radish.jpg	1	3	1	radish	1	C	1	0	251	0		0	0	141.683024299797	141.782975699985
26964	0.0999893001280725	316	hunger	stimuli/non_foods\non-food_inanimate_clover.jpg	1	3	1	non-food_inanimate_clover	0	S	13	0	174	0		0	0	141.832987699891	141.932977000019
27001.5	0.0999900999013335	317	hunger	stimuli/foods\pomegranate.jpg	1	3	1	pomegranate	1	R	12	0	244	0		0	0	141.982986599905	142.082976699807
27039	0.100007900036871	318	hunger	stimuli/non_foods\non-food_inanimate_toilet.jpg	1	3	1	non-food_inanimate_toilet	0	N	10	0	220	0		0	0	142.132973799948	142.232981699985
27076.5	0.0999597001355141	319	hunger	stimuli/non_foods\non-food_animate_lizard.jpg	1	3	1	non-food_animate_lizard	0	P	11	0	126	0		0	0	142.282998999814	142.382958699949
27114	0.0999946999363601	320	hunger	stimuli/foods\risotto_with_zucchini.jpg	1	3	1	risotto_with_zucchini	1	R	12	0	260	0		0	0	142.432981299935	142.532975999871
27151.5	0.0999708999879658	321	hunger	stimuli/foods\lemon.jpg	1	3	1	lemon	1	J	6	0	72	0		0	0	142.582989600021	142.682960500009
27189	0.0999869001097977	322	hunger	stimuli/non_foods\non-food_inanimate_tulip.jpg	1	3	1	non-food_inanimate_tulip	0	R	12	0	224	0		0	0	142.732978999848	142.832965899957
27226.5	0.0999829999636859	323	hunger	stimuli/foods\hamburger.jpg	1	3	1	hamburger	1	W	16	0	64	0		0	0	142.882977699861	142.982960699825
27264	0.0999896000139415	324	hunger	stimuli/foods\fruit_pie.jpg	1	3	1	fruit_pie	1	M	9	0	54	0		0	0	143.03297109995	143.132960699964
27301.5	0.0999854998663068	325	hunger	stimuli/foods\salmon.jpg	1	3	1	salmon	1	J	6	0	264	0		0	0	143.182972999988	143.282958499854
27339	0.100000800099224	326	hunger	stimuli/foods\donut.jpg	1	3	1	donut	1	N	10	0	44	0		0	0	143.332970599877	143.432971399976
27376.5	0.0999890000093728	327	hunger	stimuli/foods\cherry.jpg	1	3	1	cherry	1	B	0	0	23	0		0	0	143.482966299867	143.582955299877
27414	0.0999853999819607	328	hunger	stimuli/foods\fennel.jpg	1	3	1	fennel	1	K	7	0	47	0		0	0	143.632967999903	143.732953399885
27451.5	0.0999843999743462	329	hunger	stimuli/non_foods\non-food_animate_sea_turtle.jpg	1	3	1	non-food_animate_sea_turtle	0	V	15	0	144	0		0	0	143.782962600002	143.882946999976
27489	0.0999859999865294	330	hunger	stimuli/foods\honey.jpg	1	3	1	honey	1	H	5	0	66	0		0	0	143.932976400014	144.032962400001
27526.5	0.0999700999818742	331	hunger	stimuli/foods\egg.jpg	1	3	1	egg	1	L	8	0	45	0		0	0	144.082978699822	144.182948799804
27564	0.0999810001812875	332	hunger	stimuli/non_foods\non-food_animate_hummingbird.jpg	1	3	1	non-food_animate_hummingbird	0	V	15	0	120	0		0	0	144.232959699817	144.332940699998
27601.5	0.0999847000930458	333	hunger	stimuli/non_foods\non-food_inanimate_soccer_ball.jpg	1	3	1	non-food_inanimate_soccer_ball	0	S	13	0	210	0		0	0	144.38295839983	144.482943099923
27639	0.0999743998982012	334	hunger	stimuli/foods\cereal.jpg	1	3	1	cereal	1	C	1	0	22	0		0	0	144.532966699917	144.632941099815
27676.5	0.0999815000686795	335	hunger	stimuli/foods\prawn.jpg	1	3	1	prawn	1	N	10	0	249	0		0	0	144.68295619986	144.782937699929
27714	0.0999964000657201	336	hunger	stimuli/foods\strawberry.jpg	1	3	1	strawberry	1	T	14	0	272	0		0	0	144.832949999953	144.932946400018
27751.5	0.0999831999652088	337	hunger	stimuli/foods\pineapple.jpg	1	3	1	pineapple	1	D	2	0	243	0		0	0	144.982953700004	145.082936899969
27789	0.099993399810046	338	hunger	stimuli/foods\gnocchi.jpg	1	3	1	gnocchi	1	B	0	0	58	0		0	0	145.13294879999	145.2329421998
27826.5	0.0999845000915229	339	hunger	stimuli/foods\wafer.jpg	1	3	1	wafer	1	U	23	1	277	0		0	0	145.282954299822	145.382938799914
27864	0.0999896000139415	340	hunger	stimuli/non_foods\non-food_inanimate_broom.jpg	1	3	1	non-food_inanimate_broom	0	K	7	0	164	0		0	0	145.432950999821	145.532940599835
27901.5	0.100024200044572	341	hunger	stimuli/foods\potato_and_green_bean_salad.jpg	1	3	1	potato_and_green_bean_salad	1	H	5	0	246	0		0	0	145.582952799974	145.682977000019
27939	0.0999846998602152	342	hunger	stimuli/foods\asparagus.jpg	1	3	1	asparagus	1	R	12	0	4	0		0	0	145.732963599963	145.832948299823
27976.5	0.0999997998587787	343	hunger	stimuli/foods\savory_pie.jpg	1	3	1	savory_pie	1	F	3	0	265	0		0	0	145.882932499982	145.982932299841
28014	0.0999629001598805	344	hunger	stimuli/foods\pepperoni_pizza.jpg	1	3	1	pepperoni_pizza	1	R	12	0	241	0		0	0	146.032966999803	146.132929899963
28051.5	0.0999880998861045	345	hunger	stimuli/non_foods\non-food_animate_camel.jpg	1	3	1	non-food_animate_camel	0	M	9	0	97	0		0	0	146.182942599989	146.282930699876
28089	0.0999858998693526	346	hunger	stimuli/non_foods\non-food_animate_eagle.jpg	1	3	1	non-food_animate_eagle	0	R	12	0	110	0		0	0	146.332938499982	146.432924399851
28126.5	0.0999616999179125	347	hunger	stimuli/non_foods\non-food_inanimate_ring.jpg	1	3	1	non-food_inanimate_ring	0	W	16	0	203	0		0	0	146.482937599998	146.582899299916
28164	0.100005500018597	348	hunger	stimuli/non_foods\non-food_animate_bee.jpg	1	3	1	non-food_animate_bee	0	Z	18	0	95	0		0	0	146.6329237998	146.732929299818
28201.5	0.0999791000504047	349	hunger	stimuli/non_foods\non-food_inanimate_cupboard.jpg	1	3	1	non-food_inanimate_cupboard	0	B	0	0	177	0		0	0	146.782938399818	146.882917499868
28239	0.0999699998646975	350	hunger	stimuli/foods\lemon_meringue_pie.jpg	1	3	1	lemon_meringue_pie	1	V	15	0	73	0		0	0	146.932954899967	147.032924899831
28276.5	0.0999686000868678	351	hunger	stimuli/foods\roasted_chicken.jpg	1	3	1	roasted_chicken	1	C	1	0	261	0		0	0	147.08294699993	147.182915600017
28314	0.0999974999576807	352	hunger	stimuli/non_foods\non-food_inanimate_bucket.jpg	1	3	1	non-food_inanimate_bucket	0	S	13	0	165	0		0	0	147.232927799923	147.332925299881
28351.5	0.0999785999301821	353	hunger	stimuli/non_foods\non-food_animate_green_bug.jpg	1	3	1	non-food_animate_green_bug	0	V	15	0	118	0		0	0	147.382933799876	147.482912399806
28389	0.0999869001097977	354	hunger	stimuli/foods\apricot.jpg	1	3	1	apricot	1	T	14	0	2	0		0	0	147.532925099833	147.632911999943
28426.5	0.0999632999300957	355	hunger	stimuli/non_foods\non-food_inanimate_teddy_bear.jpg	1	3	1	non-food_inanimate_teddy_bear	0	V	15	0	218	0		0	0	147.682942499872	147.782905799802
28464	0.0999912999104708	356	hunger	stimuli/non_foods\non-food_animate_chicken.jpg	1	3	1	non-food_animate_chicken	0	J	6	0	101	0		0	0	147.832913999911	147.932905299822
28501.5	0.0999783000443131	357	hunger	stimuli/non_foods\non-food_inanimate_rope.jpg	1	3	1	non-food_inanimate_rope	0	S	13	0	204	0		0	0	147.982911499916	148.08288979996
28539	0.0999985998496413	358	hunger	stimuli/non_foods\non-food_inanimate_grass.jpg	1	3	1	non-food_inanimate_grass	0	X	17	0	184	0		0	0	148.132906300016	148.232904899865
28576.5	0.099996899953112	359	hunger	stimuli/non_foods\non-food_animate_deer.jpg	1	3	1	non-food_animate_deer	0	V	15	0	105	0		0	0	148.282886399888	148.382883299841
28614	0.0999865001067519	360	hunger	stimuli/non_foods\non-food_inanimate_tree.jpg	1	3	1	non-food_inanimate_tree	0	S	13	0	223	0		0	0	148.432915099896	148.532901600003
28651.5	0.0999771999195218	361	hunger	stimuli/non_foods\non-food_animate_millipede.jpg	1	3	1	non-food_animate_millipede	0	N	10	0	129	0		0	0	148.582913599908	148.682890799828
28689	0.0999931001570076	362	hunger	stimuli/foods\mushroom.jpg	1	3	1	mushroom	1	L	8	0	85	0		0	0	148.732903099852	148.832896200009
28726.5	0.0999771000351757	363	hunger	stimuli/non_foods\non-food_inanimate_buds.jpg	1	3	1	non-food_inanimate_buds	0	D	2	0	166	0		0	0	148.882911499823	148.982888599858
28764	0.0999825000762939	364	hunger	stimuli/non_foods\non-food_inanimate_socks.jpg	1	3	1	non-food_inanimate_socks	0	P	11	0	211	0		0	0	149.032898899866	149.132881399943
28801.5	0.0999762997962534	365	hunger	stimuli/foods\pasta_carbonara.jpg	1	3	1	pasta_carbonara	1	H	5	0	236	0		0	0	149.182899500011	149.282875799807
28839	0.0999880000017583	366	hunger	stimuli/foods\cooked_prawn.jpg	1	3	1	cooked_prawn	1	S	13	0	36	0		0	0	149.332905599847	149.432893599849
28876.5	0.099961900152266	367	hunger	stimuli/non_foods\non-food_inanimate_cap.jpg	1	3	1	non-food_inanimate_cap	0	W	16	0	171	0		0	0	149.482914999826	149.582876899978
28914	0.0999741000123322	368	hunger	stimuli/non_foods\non-food_inanimate_tent.jpg	1	3	1	non-food_inanimate_tent	0	V	15	0	219	0		0	0	149.632903699996	149.732877800008
28951.5	0.0999856002163142	369	hunger	stimuli/foods\fruit_salad.jpg	1	3	1	fruit_salad	1	Z	18	0	55	0		0	0	149.782890099799	149.882875700016
28989	0.0999710999894887	370	hunger	stimuli/foods\cucumber.jpg	1	3	1	cucumber	1	B	0	0	41	0		0	0	149.932903999928	150.032875099918
29026.5	0.099982300074771	371	hunger	stimuli/foods\waffle.jpg	1	3	1	waffle	1	C	1	0	278	0		0	0	150.082900999812	150.182883299887
29064	0.0999831000808626	372	hunger	stimuli/foods\hotdog.jpg	1	3	1	hotdog	1	E	20	1	67	0		0	0	150.232881599804	150.332864699885
29101.5	0.0999858998693526	373	hunger	stimuli/non_foods\non-food_animate_Asian_man.jpg	1	3	1	non-food_animate_Asian_man	0	L	8	0	88	0		0	0	150.382883999962	150.482869899832
29139	0.0999868998769671	374	hunger	stimuli/foods\taco.jpg	1	3	1	taco	1	N	10	0	274	0		0	0	150.532880899962	150.632867799839
29176.5	0.0999804001767188	375	hunger	stimuli/foods\rice.jpg	1	3	1	rice	1	K	7	0	257	0		0	0	150.682877499843	150.78285790002
29214	0.0999974999576807	376	hunger	stimuli/foods\blackberry.jpg	1	3	1	blackberry	1	N	10	0	11	0		0	0	150.832866499899	150.932863999857
29251.5	0.099988600006327	377	hunger	stimuli/non_foods\non-food_inanimate_leaf.jpg	1	3	1	non-food_inanimate_leaf	0	H	5	0	192	0		0	0	150.982881599804	151.082870199811
29289	0.100053800037131	378	hunger	stimuli/foods\chestnut.jpg	1	3	1	chestnut	1	T	14	0	24	0		0	0	151.132862899918	151.232916699955
29326.5	0.0999867001082748	379	hunger	stimuli/foods\pickles.jpg	1	3	1	pickles	1	S	13	0	242	0		0	0	151.282879399834	151.382866099942
29364	0.0999876998830587	380	hunger	stimuli/foods\celery.jpg	1	3	1	celery	1	V	15	0	21	0		0	0	151.432876999956	151.532864699839
29401.5	0.0999664000701159	381	hunger	stimuli/foods\rockmelon.jpg	1	3	1	rockmelon	1	L	8	0	262	0		0	0	151.582877799869	151.682844199939
29439	0.100005500018597	382	hunger	stimuli/foods\cinnamon.jpg	1	3	1	cinnamon	1	H	5	0	30	0		0	0	151.732846600004	151.832852100022
29476.5	0.0999797000549734	383	hunger	stimuli/non_foods\non-food_inanimate_canoe.jpg	1	3	1	non-food_inanimate_canoe	0	G	4	0	170	0		0	0	151.882863899926	151.982843599981
29514	0.100010799942538	384	hunger	stimuli/non_foods\non-food_animate_alligator.jpg	1	3	1	non-food_animate_alligator	0	J	6	0	90	0		0	0	152.03284869995	152.132859499892
29551.5	0.0999833000823855	385	hunger	stimuli/foods\oregano.jpg	1	3	1	oregano	1	Z	18	0	231	0		0	0	152.182869599899	152.282852899982
29589	0.0999808998312801	386	hunger	stimuli/non_foods\non-food_animate_killer_whale.jpg	1	3	1	non-food_animate_killer_whale	0	M	9	0	123	0		0	0	152.332866200013	152.432847099844
29626.5	0.0999856998678297	387	hunger	stimuli/non_foods\non-food_animate_skunk.jpg	1	3	1	non-food_animate_skunk	0	G	4	0	147	0		0	0	152.482856099959	152.582841799827
29664	0.0999936000443995	388	hunger	stimuli/foods\raw_ham.jpg	1	3	1	raw_ham	1	K	7	0	253	0		0	0	152.632858699886	152.732852299931
29701.5	0.0999962000641972	389	hunger	stimuli/foods\coconut.jpg	1	3	1	coconut	1	T	14	0	33	0		0	0	152.782845499925	152.88284169999
29739	0.100005400134251	390	hunger	stimuli/foods\lime.jpg	1	3	1	lime	1	B	0	0	76	0		0	0	152.932859999826	153.03286539996
29776.5	0.0999671998433769	391	hunger	stimuli/non_foods\non-food_animate_owl.jpg	1	3	1	non-food_animate_owl	0	D	2	0	132	0		0	0	153.082879699999	153.182846899843
29814	0.0999867999926209	392	hunger	stimuli/foods\tomato.jpg	1	3	1	tomato	1	X	17	0	276	0		0	0	153.232855599839	153.332842399832
29851.5	0.099990300135687	393	hunger	stimuli/non_foods\non-food_animate_dolphin.jpg	1	3	1	non-food_animate_dolphin	0	M	9	0	106	0		0	0	153.382853299845	153.482843599981
29889	0.099994899937883	394	hunger	stimuli/foods\linguine_with_clams.jpg	1	3	1	linguine_with_clams	1	K	7	0	77	0		0	0	153.53285619989	153.632851099828
29926.5	0.0999866998754442	395	hunger	stimuli/foods\fried_calamari.jpg	1	3	1	fried_calamari	1	W	16	0	50	0		0	0	153.68284959998	153.782836299855
29964	0.0999763000290841	396	hunger	stimuli/non_foods\non-food_inanimate_fire_extinguisher.jpg	1	3	1	non-food_inanimate_fire_extinguisher	0	E	20	1	181	0		0	0	153.832850799896	153.932827099925
30001.5	0.0999559001065791	397	hunger	stimuli/foods\lamb_chops.jpg	1	3	1	lamb_chops	1	H	5	0	70	0		0	0	153.982846699888	154.082802599994
30039	0.099996899953112	398	hunger	stimuli/foods\spaghetti_with_meat_sauce.jpg	1	3	1	spaghetti_with_meat_sauce	1	T	14	0	267	0		0	0	154.132837499958	154.232834399911
30076.5	0.100002499995753	399	hunger	stimuli/non_foods\non-food_animate_pigeon.jpg	1	3	1	non-food_animate_pigeon	0	X	17	0	136	0		0	0	154.282829599921	154.382832099916
30114	0.0999858998693526	400	hunger	stimuli/non_foods\non-food_animate_clown.jpg	1	3	1	non-food_animate_clown	0	H	5	0	102	0		0	0	154.432840500027	154.532826399896
30151.5	0.0999812998343259	401	hunger	stimuli/non_foods\non-food_animate_ant.jpg	1	3	1	non-food_animate_ant	0	V	15	0	91	0		0	0	154.582837600028	154.682818899862
30189	0.0999890000093728	402	hunger	stimuli/foods\bagel.jpg	1	3	1	bagel	1	F	3	0	6	0		0	0	154.732826699968	154.832815699978
30226.5	0.0999833999667317	403	hunger	stimuli/non_foods\non-food_inanimate_toy_airplane.jpg	1	3	1	non-food_inanimate_toy_airplane	0	S	13	0	222	0		0	0	154.882840199862	154.982823599828
30264	0.0999843999743462	404	hunger	stimuli/non_foods\non-food_animate_llama.jpg	1	3	1	non-food_animate_llama	0	H	5	0	127	0		0	0	155.032838699874	155.132823099848
30301.5	0.0999809000641108	405	hunger	stimuli/non_foods\non-food_animate_parrot.jpg	1	3	1	non-food_animate_parrot	0	P	11	0	133	0		0	0	155.182838399895	155.282819299959
30339	0.0999849999789149	406	hunger	stimuli/foods\beetroots.jpg	1	3	1	beetroots	1	V	15	0	10	0		0	0	155.332831499865	155.432816499844
30376.5	0.0999746001325548	407	hunger	stimuli/non_foods\non-food_inanimate_waterlily.jpg	1	3	1	non-food_inanimate_waterlily	0	J	6	0	226	0		0	0	155.482831799891	155.582806400023
30414	0.0999668999575078	408	hunger	stimuli/foods\chocolate_chip_cookies.jpg	1	3	1	chocolate_chip_cookies	1	P	11	0	27	0		0	0	155.632825399982	155.732792299939
30451.5	0.0999696999788284	409	hunger	stimuli/non_foods\non-food_animate_dachshund.jpg	1	3	1	non-food_animate_dachshund	0	V	15	0	104	0		0	0	155.782825700007	155.882795399986
30489	0.0999895001295954	410	hunger	stimuli/foods\apple.jpg	1	3	1	apple	1	W	16	0	1	0		0	0	155.93281329982	156.032802799949
30526.5	0.0999845000915229	411	hunger	stimuli/non_foods\non-food_animate_elephant.jpg	1	3	1	non-food_animate_elephant	0	B	0	0	111	0		0	0	156.082817799877	156.182802299969
30564	0.0999795999377966	412	hunger	stimuli/non_foods\non-food_animate_german_shepherd.jpg	1	3	1	non-food_animate_german_shepherd	0	R	12	0	114	0		0	0	156.232816800009	156.332796399947
30601.5	0.100003100000322	413	hunger	stimuli/foods\capsicum.jpg	1	3	1	capsicum	1	N	10	0	18	0		0	0	156.382810099982	156.482813199982
30639	0.0999779999256134	414	hunger	stimuli/non_foods\non-food_animate_mammoth.jpg	1	3	1	non-food_animate_mammoth	0	F	3	0	128	0		0	0	156.532822899986	156.632800899912
30676.5	0.0999882000032812	415	hunger	stimuli/foods\meatballs.jpg	1	3	1	meatballs	1	N	10	0	81	0		0	0	156.682805699995	156.782793899998
30714	0.0999925998039544	416	hunger	stimuli/foods\stew_with_potatoes_and_carrots.jpg	1	3	1	stew_with_potatoes_and_carrots	1	H	5	0	271	0		0	0	156.83280460001	156.932797199814
30751.5	0.0999851000960916	417	hunger	stimuli/foods\corncob.jpg	1	3	1	corncob	1	L	8	0	37	0		0	0	156.982814899879	157.082799999975
30789	0.0999808998312801	418	hunger	stimuli/foods\grilled_chicken_breast.jpg	1	3	1	grilled_chicken_breast	1	M	9	0	63	0		0	0	157.132811899995	157.232792799827
30826.5	0.0999875999987125	419	hunger	stimuli/non_foods\non-food_animate_raccoon.jpg	1	3	1	non-food_animate_raccoon	0	D	2	0	139	0		0	0	157.282807499869	157.382795099868
31351.5	0.0999792001675814	420	hunger	stimuli/foods\chocolate_bar.jpg	1	4	1	chocolate_bar	1	C	1	0	26	0		0	0	159.382788699819	159.482767899986
31389	0.0999835999682546	421	hunger	stimuli/foods\red_cabbage.jpg	1	4	1	red_cabbage	1	R	12	0	256	0		0	0	159.532783499919	159.632767099887
31426.5	0.0999853999819607	422	hunger	stimuli/non_foods\non-food_inanimate_stoplight.jpg	1	4	1	non-food_inanimate_stoplight	0	M	9	0	214	0		0	0	159.682782099815	159.782767499797
31464	0.099950399948284	423	hunger	stimuli/foods\risotto_with_peas_and_asparagus_tips.jpg	1	4	1	risotto_with_peas_and_asparagus_tips	1	P	11	0	259	0		0	0	159.832822300028	159.932772699976
31501.5	0.0999875999987125	424	hunger	stimuli/foods\baked_cod_with_carrots_and_green_beans.jpg	1	4	1	baked_cod_with_carrots_and_green_beans	1	F	3	0	7	0		0	0	159.982776299817	160.082763899816
31539	0.0999747000169009	425	hunger	stimuli/foods\steak.jpg	1	4	1	steak	1	D	2	0	270	0		0	0	160.132773799822	160.232748499839
31576.5	0.0999747000169009	426	hunger	stimuli/non_foods\non-food_animate_horse.jpg	1	4	1	non-food_animate_horse	0	T	14	0	119	0		0	0	160.282762799878	160.382737499895
31614	0.100007599918172	427	hunger	stimuli/non_foods\non-food_inanimate_button.jpg	1	4	1	non-food_inanimate_button	0	R	12	0	168	0		0	0	160.432756399969	160.532763999887
31651.5	0.0999840998556465	428	hunger	stimuli/foods\dates.jpg	1	4	1	dates	1	S	13	0	43	0		0	0	160.582768599968	160.682752699824
31689	0.0999844998586923	429	hunger	stimuli/non_foods\non-food_animate_gorilla.jpg	1	4	1	non-food_animate_gorilla	0	R	12	0	116	0		0	0	160.732768499991	160.83275299985
31726.5	0.0999612000305206	430	hunger	stimuli/non_foods\non-food_inanimate_wrench.jpg	1	4	1	non-food_inanimate_wrench	0	M	9	0	227	0		0	0	160.882788399933	160.982749599963
31764	0.0999887001235038	431	hunger	stimuli/non_foods\non-food_animate_cow.jpg	1	4	1	non-food_animate_cow	0	V	15	0	103	0		0	0	161.032760799862	161.132749499986
31801.5	0.0999861001037061	432	hunger	stimuli/foods\cauliflower.jpg	1	4	1	cauliflower	1	K	7	0	20	0		0	0	161.182764399797	161.2827504999
31839	0.0999859999865294	433	hunger	stimuli/non_foods\non-food_inanimate_shell.jpg	1	4	1	non-food_inanimate_shell	0	C	1	0	206	0		0	0	161.332756499993	161.432742499979
31876.5	0.100044500082731	434	hunger	stimuli/non_foods\non-food_inanimate_bed.jpg	1	4	1	non-food_inanimate_bed	0	P	11	0	160	0		0	0	161.482751099858	161.582795599941
31914	0.100031499983743	435	hunger	stimuli/foods\almonds.jpg	1	4	1	almonds	1	G	4	0	0	0		0	0	161.632798000006	161.73282949999
31951.5	0.0999203999526799	436	hunger	stimuli/foods\brie.jpg	1	4	1	brie	1	Z	18	0	12	0		0	0	161.782825500006	161.882745899959
31989	0.100027300184593	437	hunger	stimuli/foods\lasagna.jpg	1	4	1	lasagna	1	G	4	0	71	0		0	0	161.932767199818	162.032794500003
32026.5	0.0999877001158893	438	hunger	stimuli/non_foods\non-food_animate_young_girl.jpg	1	4	1	non-food_animate_young_girl	0	Z	18	0	157	0		0	0	162.082778999815	162.182766699931
32064	0.099978000158444	439	hunger	stimuli/non_foods\non-food_inanimate_gloves.jpg	1	4	1	non-food_inanimate_gloves	0	G	4	0	183	0		0	0	162.232761599822	162.33273959998
32101.5	0.0999880998861045	440	hunger	stimuli/non_foods\non-food_animate_woman.jpg	1	4	1	non-food_animate_woman	0	R	12	0	154	0		0	0	162.382760399953	162.482748499839
32139	0.100003500003368	441	hunger	stimuli/foods\ginger_root.jpg	1	4	1	ginger_root	1	S	13	0	57	0		0	0	162.532729799859	162.632733299863
32176.5	0.0999612000305206	442	hunger	stimuli/non_foods\non-food_animate_slug.jpg	1	4	1	non-food_animate_slug	0	G	4	0	148	0		0	0	162.682766599813	162.782727799844
32214	0.0999976999592036	443	hunger	stimuli/non_foods\non-food_animate_lion.jpg	1	4	1	non-food_animate_lion	0	L	8	0	125	0		0	0	162.832734399941	162.9327320999
32251.5	0.0999882998876274	444	hunger	stimuli/foods\green_beans.jpg	1	4	1	green_beans	1	W	16	0	61	0		0	0	162.98275700002	163.082745299907
32289	0.0999842998571694	445	hunger	stimuli/foods\kiwi.jpg	1	4	1	kiwi	1	P	11	0	69	0		0	0	163.132731799968	163.232716099825
32326.5	0.0999797999393195	446	hunger	stimuli/non_foods\non-food_inanimate_short_sleeved_shirt.jpg	1	4	1	non-food_inanimate_short_sleeved_shirt	0	V	15	0	207	0		0	0	163.282747899881	163.38272769982
32364	0.100020500132814	447	hunger	stimuli/non_foods\non-food_inanimate_fern.jpg	1	4	1	non-food_inanimate_fern	0	W	16	0	180	0		0	0	163.432729099877	163.53274960001
32401.5	0.099980799946934	448	hunger	stimuli/non_foods\non-food_animate_tortoise.jpg	1	4	1	non-food_animate_tortoise	0	Z	18	0	153	0		0	0	163.582757799886	163.682738599833
32439	0.0999837999697775	449	hunger	stimuli/foods\lollies.jpg	1	4	1	lollies	1	P	11	0	78	0		0	0	163.732752699871	163.83273649984
32476.5	0.0999617001507431	450	hunger	stimuli/non_foods\non-food_animate_swan.jpg	1	4	1	non-food_animate_swan	0	X	17	0	152	0		0	0	163.88276349986	163.98272520001
32514	0.0999915001448244	451	hunger	stimuli/non_foods\non-food_animate_sea_lion.jpg	1	4	1	non-food_animate_sea_lion	0	H	5	0	143	0		0	0	164.032726199832	164.132717699977
32551.5	0.099986300105229	452	hunger	stimuli/foods\peas.jpg	1	4	1	peas	1	P	11	0	240	0		0	0	164.182759099873	164.282745399978
32589	0.0999708999879658	453	hunger	stimuli/non_foods\non-food_animate_giraffe.jpg	1	4	1	non-food_animate_giraffe	0	R	12	0	115	0		0	0	164.332756399876	164.432727299863
32626.5	0.0999811000656337	454	hunger	stimuli/non_foods\non-food_inanimate_hay.jpg	1	4	1	non-food_inanimate_hay	0	P	11	0	187	0		0	0	164.482739799889	164.582720899954
32664	0.100001699989662	455	hunger	stimuli/non_foods\non-food_animate_frog.jpg	1	4	1	non-food_animate_frog	0	R	12	0	113	0		0	0	164.632734099869	164.732735799858
32701.5	0.099976500030607	456	hunger	stimuli/foods\grapefruits.jpg	1	4	1	grapefruits	1	B	0	0	59	0		0	0	164.782714399975	164.882690900005
32739	0.099978500045836	457	hunger	stimuli/non_foods\non-food_inanimate_skirt.jpg	1	4	1	non-food_inanimate_skirt	0	K	7	0	209	0		0	0	164.932708199834	165.03268669988
32776.5	0.0999686999712139	458	hunger	stimuli/foods\fruit_flan.jpg	1	4	1	fruit_flan	1	X	17	0	53	0		0	0	165.082721499959	165.18269019993
32814	0.0999721998814493	459	hunger	stimuli/foods\avocado.jpg	1	4	1	avocado	1	V	15	0	5	0		0	0	165.232713199919	165.332685399801
32851.5	0.0999865001067519	460	hunger	stimuli/foods\artichoke.jpg	1	4	1	artichoke	1	T	14	0	3	0		0	0	165.382702299859	165.482688799966
32889	0.0999960999470204	461	hunger	stimuli/foods\clams.jpg	1	4	1	clams	1	B	0	0	32	0		0	0	165.532698699972	165.632694799919
32926.5	0.0999851999804378	462	hunger	stimuli/foods\spinach.jpg	1	4	1	spinach	1	T	14	0	268	0		0	0	165.682708599837	165.782693799818
32964	0.099982799962163	463	hunger	stimuli/non_foods\non-food_inanimate_padlock.jpg	1	4	1	non-food_inanimate_padlock	0	V	15	0	199	0		0	0	165.83270589984	165.932688699802
33001.5	0.0999882000032812	464	hunger	stimuli/foods\lettuce.jpg	1	4	1	lettuce	1	N	10	0	75	0		0	0	165.98270069994	166.082688899944
33039	0.0999859999865294	465	hunger	stimuli/foods\cupcake.jpg	1	4	1	cupcake	1	D	2	0	42	0		0	0	166.132700899849	166.232686899835
33076.5	0.0999904000200331	466	hunger	stimuli/non_foods\non-food_animate_snail.jpg	1	4	1	non-food_animate_snail	0	C	1	0	149	0		0	0	166.28268579999	166.38267620001
33114	0.0999841000884771	467	hunger	stimuli/non_foods\non-food_animate_squirrel.jpg	1	4	1	non-food_animate_squirrel	0	K	7	0	150	0		0	0	166.432690399932	166.53267450002
33151.5	0.0999654000625014	468	hunger	stimuli/non_foods\non-food_inanimate_lighter.jpg	1	4	1	non-food_inanimate_lighter	0	C	1	0	193	0		0	0	166.582688299939	166.682653700002
33189	0.0999806998297572	469	hunger	stimuli/non_foods\non-food_animate_bat.jpg	1	4	1	non-food_animate_bat	0	M	9	0	94	0		0	0	166.732690799981	166.832671499811
33226.5	0.0999763000290841	470	hunger	stimuli/non_foods\non-food_inanimate_pine_cone.jpg	1	4	1	non-food_inanimate_pine_cone	0	C	1	0	200	0		0	0	166.882718799869	166.982695099898
33264	0.0999408999923617	471	hunger	stimuli/non_foods\non-food_inanimate_hammer.jpg	1	4	1	non-food_inanimate_hammer	0	J	6	0	186	0		0	0	167.032715599984	167.132656499976
33301.5	0.100007300032303	472	hunger	stimuli/foods\omelette.jpg	1	4	1	omelette	1	V	15	0	228	0		0	0	167.182661499828	167.28266879986
33339	0.0999956999439746	473	hunger	stimuli/foods\cooked_ham.jpg	1	4	1	cooked_ham	1	D	2	0	35	0		0	0	167.332676799968	167.432672499912
33376.5	0.0999857001006603	474	hunger	stimuli/non_foods\non-food_animate_butterfly.jpg	1	4	1	non-food_animate_butterfly	0	T	14	0	96	0		0	0	167.482683699811	167.582669399912
33414	0.0999729000031948	475	hunger	stimuli/non_foods\non-food_inanimate_watering_can.jpg	1	4	1	non-food_inanimate_watering_can	0	N	10	0	225	0		0	0	167.632681699935	167.732654599939
33451.5	0.0999904999043792	476	hunger	stimuli/non_foods\non-food_animate_donkey.jpg	1	4	1	non-food_animate_donkey	0	X	17	0	107	0		0	0	167.782678199932	167.882668699836
33489	0.100013999966905	477	hunger	stimuli/non_foods\non-food_inanimate_stapler.jpg	1	4	1	non-food_inanimate_stapler	0	Z	18	0	213	0		0	0	167.932650099974	168.032664099941
33526.5	0.0999844998586923	478	hunger	stimuli/foods\fried_zucchini.jpg	1	4	1	fried_zucchini	1	W	16	0	51	0		0	0	168.082676599966	168.182661099825
33564	0.0999886998906732	479	hunger	stimuli/foods\mussels.jpg	1	4	1	mussels	1	C	1	0	86	0		0	0	168.232672499958	168.332661199849
33601.5	0.0999821999575943	480	hunger	stimuli/foods\raw_sausage.jpg	1	4	1	raw_sausage	1	T	14	0	254	0		0	0	168.38267049985	168.482652699808
33639	0.0999812001828104	481	hunger	stimuli/foods\brownie.jpg	1	4	1	brownie	1	W	16	0	14	0		0	0	168.532675699797	168.632656899979
33676.5	0.0999858998693526	482	hunger	stimuli/non_foods\non-food_animate_ram.jpg	1	4	1	non-food_animate_ram	0	B	0	0	140	0		0	0	168.68267140002	168.782657299889
33714	0.100001400103793	483	hunger	stimuli/foods\carrot.jpg	1	4	1	carrot	1	I	21	1	19	0		0	0	168.832655499922	168.932656900026
33751.5	0.0999554998707026	484	hunger	stimuli/foods\brussel_sprouts.jpg	1	4	1	brussel_sprouts	1	W	16	0	15	0		0	0	168.982668299926	169.082623799797
33789	0.0999946999363601	485	hunger	stimuli/non_foods\non-food_animate_seahorse.jpg	1	4	1	non-food_animate_seahorse	0	H	5	0	145	0		0	0	169.132655899972	169.232650599908
33826.5	0.0999815000686795	486	hunger	stimuli/foods\eggplant.jpg	1	4	1	eggplant	1	X	17	0	46	0		0	0	169.282665999839	169.382647499908
33864	0.0999851999804378	487	hunger	stimuli/foods\nectarine.jpg	1	4	1	nectarine	1	G	4	0	87	0		0	0	169.432661399944	169.532646599924
33901.5	0.0999892000108957	488	hunger	stimuli/foods\watermelon.jpg	1	4	1	watermelon	1	P	11	0	279	0		0	0	169.582658399828	169.682647599839
33939	0.100002499995753	489	hunger	stimuli/non_foods\non-food_inanimate_folding_chair.jpg	1	4	1	non-food_inanimate_folding_chair	0	B	0	0	182	0		0	0	169.732656699838	169.832659199834
33976.5	0.0999868998769671	490	hunger	stimuli/non_foods\non-food_inanimate_skateboard.jpg	1	4	1	non-food_inanimate_skateboard	0	S	13	0	208	0		0	0	169.882657099981	169.982643999858
34014	0.0999987998511642	491	hunger	stimuli/foods\pumpkin.jpg	1	4	1	pumpkin	1	L	8	0	250	0		0	0	170.032653799979	170.13265259983
34051.5	0.0999694000929594	492	hunger	stimuli/foods\minestrone_soup.jpg	1	4	1	minestrone_soup	1	W	16	0	82	0		0	0	170.182660099817	170.28262949991
34089	0.10000120010227	493	hunger	stimuli/non_foods\non-food_inanimate_scissors.jpg	1	4	1	non-food_inanimate_scissors	0	T	14	0	205	0		0	0	170.332643499831	170.432644699933
34126.5	0.0999640999361873	494	hunger	stimuli/foods\spring_onions.jpg	1	4	1	spring_onions	1	S	13	0	269	0		0	0	170.482665499905	170.582629599841
34164	0.0999849999789149	495	hunger	stimuli/foods\fries.jpg	1	4	1	fries	1	Z	18	0	52	0		0	0	170.632639099844	170.732624099823
34201.5	0.0999882998876274	496	hunger	stimuli/non_foods\non-food_inanimate_orchid.jpg	1	4	1	non-food_inanimate_orchid	0	C	1	0	198	0		0	0	170.782638899982	170.88262719987
34239	0.0999855999834836	497	hunger	stimuli/non_foods\non-food_inanimate_protractor.jpg	1	4	1	non-food_inanimate_protractor	0	J	6	0	201	0		0	0	170.932636299869	171.032621899853
34276.5	0.0999815000686795	498	hunger	stimuli/non_foods\non-food_animate_baby_sitting.jpg	1	4	1	non-food_animate_baby_sitting	0	C	1	0	93	0		0	0	171.082635399885	171.182616899954
34314	0.0999829999636859	499	hunger	stimuli/foods\rice_cake.jpg	1	4	1	rice_cake	1	L	8	0	258	0		0	0	171.232630999992	171.332613999955
34351.5	0.0999815999530256	500	hunger	stimuli/non_foods\non-food_inanimate_cactus_pot_plant.jpg	1	4	1	non-food_inanimate_cactus_pot_plant	0	W	16	0	169	0		0	0	171.382639999967	171.48262159992
34389	0.0999843999743462	501	hunger	stimuli/foods\mandarin.jpg	1	4	1	mandarin	1	N	10	0	79	0		0	0	171.532635999843	171.632620399818
34426.5	0.0999858998693526	502	hunger	stimuli/non_foods\non-food_animate_caterpillar.jpg	1	4	1	non-food_animate_caterpillar	0	J	6	0	99	0		0	0	171.682633399963	171.782619299833
34464	0.0999811999499798	503	hunger	stimuli/foods\potatoes.jpg	1	4	1	potatoes	1	K	7	0	248	0		0	0	171.832639799919	171.932620999869
34501.5	0.099984799977392	504	hunger	stimuli/foods\cannoli.jpg	1	4	1	cannoli	1	X	17	0	17	0		0	0	171.982633000007	172.082617799984
34539	0.0999898000154644	505	hunger	stimuli/foods\lentils.jpg	1	4	1	lentils	1	M	9	0	74	0		0	0	172.13262769999	172.232617500005
34576.5	0.0999420001171529	506	hunger	stimuli/foods\chocolate_pudding.jpg	1	4	1	chocolate_pudding	1	J	6	0	29	0		0	0	172.282670599874	172.382612599991
34614	0.100013599963859	507	hunger	stimuli/non_foods\non-food_inanimate_chair.jpg	1	4	1	non-food_inanimate_chair	0	D	2	0	172	0		0	0	172.432593399892	172.532606999855
34651.5	0.0999888998921961	508	hunger	stimuli/foods\oyster.jpg	1	4	1	oyster	1	F	3	0	233	0		0	0	172.582622899907	172.682611799799
34689	0.0999779999256134	509	hunger	stimuli/non_foods\non-food_inanimate_bowling_ball.jpg	1	4	1	non-food_inanimate_bowling_ball	0	X	17	0	162	0		0	0	172.732616799884	172.832594799809
34726.5	0.0999590000137687	510	hunger	stimuli/non_foods\non-food_animate_baby_crawling.jpg	1	4	1	non-food_animate_baby_crawling	0	P	11	0	92	0		0	0	172.882621199824	172.982580199838
34764	0.0999849999789149	511	hunger	stimuli/foods\green_olives.jpg	1	4	1	green_olives	1	L	8	0	62	0		0	0	173.03261889983	173.132603899809
34801.5	0.0999853999819607	512	hunger	stimuli/foods\peach.jpg	1	4	1	peach	1	X	17	0	238	0		0	0	173.182614999823	173.282600399805
34839	0.0999866998754442	513	hunger	stimuli/non_foods\non-food_inanimate_desk.jpg	1	4	1	non-food_inanimate_desk	0	S	13	0	178	0		0	0	173.332613599952	173.432600299828
34876.5	0.100014100084081	514	hunger	stimuli/foods\pancakes.jpg	1	4	1	pancakes	1	K	7	0	234	0		0	0	173.482588999905	173.582603099989
34914	0.0999994999729097	515	hunger	stimuli/non_foods\non-food_inanimate_couch.jpg	1	4	1	non-food_inanimate_couch	0	W	16	0	176	0		0	0	173.632580499863	173.732579999836
34951.5	0.0999869001097977	516	hunger	stimuli/foods\frankfurter_and_provolone_salad.jpg	1	4	1	frankfurter_and_provolone_salad	1	J	6	0	49	0		0	0	173.782609799877	173.882596699987
34989	0.100021600024775	517	hunger	stimuli/non_foods\non-food_inanimate_guitar.jpg	1	4	1	non-food_inanimate_guitar	0	G	4	0	185	0		0	0	173.932603799971	174.032625399996
35026.5	0.0999472001567483	518	hunger	stimuli/non_foods\non-food_animate_iguana.jpg	1	4	1	non-food_animate_iguana	0	P	11	0	121	0		0	0	174.082655599806	174.182602799963
35064	0.0999878998845816	519	hunger	stimuli/non_foods\non-food_animate_grasshopper.jpg	1	4	1	non-food_animate_grasshopper	0	R	12	0	117	0		0	0	174.232604000019	174.332591899903
35101.5	0.10000570002012	520	hunger	stimuli/foods\salami.jpg	1	4	1	salami	1	L	8	0	263	0		0	0	174.382582499878	174.482588199899
35139	0.0999761000275612	521	hunger	stimuli/foods\potato_chips.jpg	1	4	1	potato_chips	1	G	4	0	247	0		0	0	174.532601199811	174.632577299839
35176.5	0.0999841000884771	522	hunger	stimuli/foods\onion.jpg	1	4	1	onion	1	J	6	0	229	0		0	0	174.682590799872	174.78257489996
35214	0.0999851999804378	523	hunger	stimuli/foods\cabbage.jpg	1	4	1	cabbage	1	P	11	0	16	0		0	0	174.832587799989	174.932572999969
35251.5	0.100002000108361	524	hunger	stimuli/non_foods\non-food_animate_duck.jpg	1	4	1	non-food_animate_duck	0	R	12	0	109	0		0	0	174.982580399839	175.082582399948
35289	0.0999651998281479	525	hunger	stimuli/non_foods\non-food_animate_cheetah.jpg	1	4	1	non-food_animate_cheetah	0	C	1	0	100	0		0	0	175.132611999987	175.232577199815
35326.5	0.0999910999089479	526	hunger	stimuli/foods\pear.jpg	1	4	1	pear	1	V	15	0	239	0		0	0	175.282587399939	175.382578499848
35364	0.0999805999454111	527	hunger	stimuli/non_foods\non-food_animate_mouse.jpg	1	4	1	non-food_animate_mouse	0	T	14	0	131	0		0	0	175.432592900004	175.53257349995
35401.5	0.0999824998434633	528	hunger	stimuli/foods\orange.jpg	1	4	1	orange	1	R	12	0	230	0		0	0	175.582588799996	175.68257129984
35439	0.100029699970037	529	hunger	stimuli/foods\pea_pod.jpg	1	4	1	pea_pod	1	C	1	0	237	0		0	0	175.732579799835	175.832609499805
35476.5	0.0999670999590307	530	hunger	stimuli/non_foods\non-food_inanimate_moss.jpg	1	4	1	non-food_inanimate_moss	0	D	2	0	194	0		0	0	175.882600399898	175.982567499857
35514	0.0999981998465955	531	hunger	stimuli/foods\cinnamon_sroll.jpg	1	4	1	cinnamon_sroll	1	G	4	0	31	0		0	0	176.032579699997	176.132577899843
35551.5	0.099978799931705	532	hunger	stimuli/foods\grapes.jpg	1	4	1	grapes	1	Z	18	0	60	0		0	0	176.182566799922	176.282545599854
35589	0.099986300105229	533	hunger	stimuli/foods\figs.jpg	1	4	1	figs	1	I	21	1	48	0		0	0	176.332575799897	176.432562100003
35626.5	0.0999782998114824	534	hunger	stimuli/non_foods\non-food_inanimate_sun_flower.jpg	1	4	1	non-food_inanimate_sun_flower	0	M	9	0	216	0		0	0	176.482585499994	176.582563799806
35664	0.0999654000625014	535	hunger	stimuli/foods\baked_lamb_with_potatoes.jpg	1	4	1	baked_lamb_with_potatoes	1	V	15	0	8	0		0	0	176.632595199859	176.732560599921
35701.5	0.0999844002071768	536	hunger	stimuli/non_foods\non-food_inanimate_nailpolish.jpg	1	4	1	non-food_inanimate_nailpolish	0	R	12	0	195	0		0	0	176.78257179982	176.882556200027
35739	0.0999869001097977	537	hunger	stimuli/non_foods\non-food_animate_kangaroo.jpg	1	4	1	non-food_animate_kangaroo	0	C	1	0	122	0		0	0	176.932567299809	177.032554199919
35776.5	0.0999827000778168	538	hunger	stimuli/non_foods\non-food_inanimate_bicycle.jpg	1	4	1	non-food_inanimate_bicycle	0	M	9	0	161	0		0	0	177.082563699922	177.182546399999
35814	0.0999861999880522	539	hunger	stimuli/foods\broccoli.jpg	1	4	1	broccoli	1	G	4	0	13	0		0	0	177.232561199926	177.332547399914
35851.5	0.099986599991098	540	hunger	stimuli/non_foods\non-food_inanimate_towel.jpg	1	4	1	non-food_inanimate_towel	0	R	12	0	221	0		0	0	177.38255819981	177.482544799801
35889	0.100007499800995	541	hunger	stimuli/non_foods\non-food_animate_monkey.jpg	1	4	1	non-food_animate_monkey	0	Z	18	0	130	0		0	0	177.532535000006	177.632542499807
35926.5	0.0999709998723119	542	hunger	stimuli/non_foods\non-food_animate_student_female.jpg	1	4	1	non-food_animate_student_female	0	N	10	0	151	0		0	0	177.682579800021	177.782550799893
35964	0.0999849999789149	543	hunger	stimuli/non_foods\non-food_inanimate_bush.jpg	1	4	1	non-food_inanimate_bush	0	M	9	0	167	0		0	0	177.832560499897	177.932545499876
36001.5	0.100011099828407	544	hunger	stimuli/non_foods\non-food_animate_peacock.jpg	1	4	1	non-food_animate_peacock	0	T	14	0	134	0		0	0	177.982557500014	178.082568599842
36039	0.099977099802345	545	hunger	stimuli/foods\chilli.jpg	1	4	1	chilli	1	R	12	0	25	0		0	0	178.132568300003	178.232545399806
36076.5	0.100012100068852	546	hunger	stimuli/foods\oven-roasted_tomatoes.jpg	1	4	1	oven-roasted_tomatoes	1	W	16	0	232	0		0	0	178.282528099837	178.382540199906
36114	0.0999902999028563	547	hunger	stimuli/non_foods\non-food_inanimate_bamboo.jpg	1	4	1	non-food_inanimate_bamboo	0	T	14	0	159	0		0	0	178.432549499907	178.532539799809
36151.5	0.0999799000564963	548	hunger	stimuli/foods\mango.jpg	1	4	1	mango	1	L	8	0	80	0		0	0	178.582553599961	178.682533500018
36189	0.0999905001372099	549	hunger	stimuli/non_foods\non-food_inanimate_horn.jpg	1	4	1	non-food_inanimate_horn	0	R	12	0	190	0		0	0	178.732546999818	178.832537499955
36226.5	0.0999861999880522	550	hunger	stimuli/foods\banana.jpg	1	4	1	banana	1	X	17	0	9	0		0	0	178.882548999973	178.982535199961
36264	0.0999865001067519	551	hunger	stimuli/foods\smoked_ham.jpg	1	4	1	smoked_ham	1	K	7	0	266	0		0	0	179.032545799855	179.132532299962
36301.5	0.0999841999728233	552	hunger	stimuli/non_foods\non-food_animate_ladybug.jpg	1	4	1	non-food_animate_ladybug	0	W	16	0	124	0		0	0	179.182545499876	179.282529699849
36339	0.100006899796426	553	hunger	stimuli/non_foods\non-food_animate_cat.jpg	1	4	1	non-food_animate_cat	0	P	11	0	98	0		0	0	179.332545700017	179.432552599814
36376.5	0.0999756001401693	554	hunger	stimuli/non_foods\non-food_inanimate_speakers.jpg	1	4	1	non-food_inanimate_speakers	0	C	1	0	212	0		0	0	179.482576799812	179.582552399952
36414	0.0999858002178371	555	hunger	stimuli/foods\croissant.jpg	1	4	1	croissant	1	V	15	0	40	0		0	0	179.632541299798	179.732527100015
36451.5	0.0999821999575943	556	hunger	stimuli/non_foods\non-food_inanimate_briefcase.jpg	1	4	1	non-food_inanimate_briefcase	0	K	7	0	163	0		0	0	179.782541299937	179.882523499895
36489	0.0999847000930458	557	hunger	stimuli/foods\garlic.jpg	1	4	1	garlic	1	C	1	0	56	0		0	0	179.932535899803	180.032520599896
36526.5	0.0999886998906732	558	hunger	stimuli/non_foods\non-food_animate_yellow_bug.jpg	1	4	1	non-food_animate_yellow_bug	0	H	5	0	155	0		0	0	180.082533899928	180.182522599818
36564	0.0999875999987125	559	hunger	stimuli/foods\chocolate_pralines.jpg	1	4	1	chocolate_pralines	1	D	2	0	28	0		0	0	180.23252770002	180.332515300019
37259.75	0.0999779999256134	560	hunger	stimuli/non_foods\non-food_animate_parrot.jpg	1	5	1	non-food_animate_parrot	0	V	15	0	133	0		0	0	183.015838899883	183.115816899808
37297.25	0.0999869999941438	561	hunger	stimuli/foods\pancakes.jpg	1	5	1	pancakes	1	M	9	0	234	0		0	0	183.165829599835	183.265816599829
37334.75	0.0999354999512434	562	hunger	stimuli/non_foods\non-food_inanimate_wrench.jpg	1	5	1	non-food_inanimate_wrench	0	S	13	0	227	0		0	0	183.315877199871	183.415812699823
37372.25	0.0999861999880522	563	hunger	stimuli/non_foods\non-food_inanimate_padlock.jpg	1	5	1	non-food_inanimate_padlock	0	X	17	0	199	0		0	0	183.465826399857	183.565812599845
37409.75	0.0999869999941438	564	hunger	stimuli/foods\chilli.jpg	1	5	1	chilli	1	N	10	0	25	0		0	0	183.615822499851	183.715809499845
37447.25	0.0999807000625879	565	hunger	stimuli/foods\oregano.jpg	1	5	1	oregano	1	W	16	0	231	0		0	0	183.7658280998	183.865808799863
37484.75	0.0999793999362737	566	hunger	stimuli/foods\roasted_chicken.jpg	1	5	1	roasted_chicken	1	J	6	0	261	0		0	0	183.915802899981	184.015782299917
37522.25	0.0999892998952419	567	hunger	stimuli/non_foods\non-food_inanimate_jeans.jpg	1	5	1	non-food_inanimate_jeans	0	X	17	0	191	0		0	0	184.0658177	184.165806999896
37559.75	0.0999878000002354	568	hunger	stimuli/non_foods\non-food_animate_pigeon.jpg	1	5	1	non-food_animate_pigeon	0	T	14	0	136	0		0	0	184.215815899894	184.315803699894
37597.25	0.0999586000107229	569	hunger	stimuli/foods\fruit_flan.jpg	1	5	1	fruit_flan	1	R	12	0	53	0		0	0	184.365840599872	184.465799199883
37634.75	0.0999897001311183	570	hunger	stimuli/foods\lemon.jpg	1	5	1	lemon	1	Z	18	0	72	0		0	0	184.5158127998	184.615802499931
37672.25	0.0999858998693526	571	hunger	stimuli/non_foods\non-food_inanimate_bowling_ball.jpg	1	5	1	non-food_inanimate_bowling_ball	0	T	14	0	162	0		0	0	184.665812399937	184.765798299806
37709.75	0.0999811000656337	572	hunger	stimuli/foods\peas.jpg	1	5	1	peas	1	S	13	0	240	0		0	0	184.815814399859	184.915795499925
37747.25	0.099992300150916	573	hunger	stimuli/non_foods\non-food_animate_tortoise.jpg	1	5	1	non-food_animate_tortoise	0	D	2	0	153	0		0	0	184.965813099872	185.065805400023
37784.75	0.099946599919349	574	hunger	stimuli/foods\beetroots.jpg	1	5	1	beetroots	1	G	4	0	10	0		0	0	185.115845799912	185.215792399831
37822.25	0.0999904000200331	575	hunger	stimuli/foods\papaya.jpg	1	5	1	papaya	1	L	8	0	235	0		0	0	185.26580319996	185.36579359998
37859.75	0.099986599991098	576	hunger	stimuli/foods\chocolate_pralines.jpg	1	5	1	chocolate_pralines	1	X	17	0	28	0		0	0	185.415802999865	185.515789599856
37897.25	0.09998709987849	577	hunger	stimuli/foods\honey.jpg	1	5	1	honey	1	F	3	0	66	0		0	0	185.565801999997	185.665789099876
37934.75	0.0999994000885636	578	hunger	stimuli/foods\cannoli.jpg	1	5	1	cannoli	1	C	1	0	17	0		0	0	185.715798399877	185.815797799965
37972.25	0.100004799896851	579	hunger	stimuli/non_foods\non-food_animate_deer.jpg	1	5	1	non-food_animate_deer	0	P	11	0	105	0		0	0	185.865781500004	185.965786299901
38009.75	0.0999578000046313	580	hunger	stimuli/foods\cereal.jpg	1	5	1	cereal	1	N	10	0	22	0		0	0	186.015796799911	186.115754599916
38047.25	0.0999685002025217	581	hunger	stimuli/foods\fries.jpg	1	5	1	fries	1	M	9	0	52	0		0	0	186.165811299812	186.265779800015
38084.75	0.0999595001339912	582	hunger	stimuli/non_foods\non-food_animate_grasshopper.jpg	1	5	1	non-food_animate_grasshopper	0	F	3	0	117	0		0	0	186.315793899819	186.415753399953
38122.25	0.0999857001006603	583	hunger	stimuli/non_foods\non-food_inanimate_folding_chair.jpg	1	5	1	non-food_inanimate_folding_chair	0	C	1	0	182	0		0	0	186.465784699889	186.56577039999
38159.75	0.0999900999013335	584	hunger	stimuli/foods\onion.jpg	1	5	1	onion	1	N	10	0	229	0		0	0	186.615785199916	186.715775299817
38197.25	0.100049699889496	585	hunger	stimuli/foods\cucumber.jpg	1	5	1	cucumber	1	C	1	0	41	0		0	0	186.76579450001	186.8658441999
38234.75	0.0999442001339048	586	hunger	stimuli/foods\mortadella.jpg	1	5	1	mortadella	1	N	10	0	83	0		0	0	186.915828199824	187.015772399958
38272.25	0.0999909001402557	587	hunger	stimuli/foods\fruit_pie.jpg	1	5	1	fruit_pie	1	V	15	0	54	0		0	0	187.065781799844	187.165772699984
38309.75	0.099986300105229	588	hunger	stimuli/foods\salami.jpg	1	5	1	salami	1	P	11	0	263	0		0	0	187.215783299878	187.315769599983
38347.25	0.0999801000580192	589	hunger	stimuli/non_foods\non-food_inanimate_highlighter.jpg	1	5	1	non-food_inanimate_highlighter	0	R	12	0	189	0		0	0	187.365785399918	187.465765499976
38384.75	0.099982300074771	590	hunger	stimuli/foods\almonds.jpg	1	5	1	almonds	1	F	3	0	0	0		0	0	187.515779899899	187.615762199974
38422.25	0.0999829999636859	591	hunger	stimuli/foods\oyster.jpg	1	5	1	oyster	1	L	8	0	233	0		0	0	187.665775799891	187.765758799855
38459.75	0.1000099000521	592	hunger	stimuli/non_foods\non-food_animate_sea_lion.jpg	1	5	1	non-food_animate_sea_lion	0	D	2	0	143	0		0	0	187.815753599862	187.915763499914
38497.25	0.0999603001400828	593	hunger	stimuli/foods\baked_cod_with_carrots_and_green_beans.jpg	1	5	1	baked_cod_with_carrots_and_green_beans	1	M	9	0	7	0		0	0	187.96579879988	188.06575910002
38534.75	0.0999803000595421	594	hunger	stimuli/non_foods\non-food_inanimate_socks.jpg	1	5	1	non-food_inanimate_socks	0	N	10	0	211	0		0	0	188.115774099948	188.215754400007
38572.25	0.0999851999804378	595	hunger	stimuli/foods\green_beans.jpg	1	5	1	green_beans	1	H	5	0	61	0		0	0	188.265769399935	188.365754599916
38609.75	0.0999875999987125	596	hunger	stimuli/foods\frankfurter_and_provolone_salad.jpg	1	5	1	frankfurter_and_provolone_salad	1	B	0	0	49	0		0	0	188.41576689994	188.515754499938
38647.25	0.100016399985179	597	hunger	stimuli/foods\banana.jpg	1	5	1	banana	1	D	2	0	9	0		0	0	188.56577789993	188.665794299915
38684.75	0.0999539000913501	598	hunger	stimuli/non_foods\non-food_animate_yellow_bug.jpg	1	5	1	non-food_animate_yellow_bug	0	C	1	0	155	0		0	0	188.715805099811	188.815758999903
38722.25	0.0999848998617381	599	hunger	stimuli/non_foods\non-food_inanimate_headphones.jpg	1	5	1	non-food_inanimate_headphones	0	L	8	0	188	0		0	0	188.865762399975	188.965747299837
38759.75	0.0999867999926209	600	hunger	stimuli/foods\raw_ham.jpg	1	5	1	raw_ham	1	R	12	0	253	0		0	0	189.015760999871	189.115747799864
38797.25	0.0999859999865294	601	hunger	stimuli/foods\watermelon.jpg	1	5	1	watermelon	1	B	0	0	279	0		0	0	189.165757599985	189.265743599972
38834.75	0.0999835999682546	602	hunger	stimuli/non_foods\non-food_animate_ant.jpg	1	5	1	non-food_animate_ant	0	X	17	0	91	0		0	0	189.315756799886	189.415740399854
38872.25	0.0999881001189351	603	hunger	stimuli/non_foods\non-food_animate_penguin.jpg	1	5	1	non-food_animate_penguin	0	F	3	0	135	0		0	0	189.4657577998	189.565745899919
38909.75	0.0999616000335664	604	hunger	stimuli/non_foods\non-food_inanimate_table.jpg	1	5	1	non-food_inanimate_table	0	N	10	0	217	0		0	0	189.615746699972	189.715708300006
38947.25	0.099992300150916	605	hunger	stimuli/non_foods\non-food_animate_ram.jpg	1	5	1	non-food_animate_ram	0	K	7	0	140	0		0	0	189.765760199865	189.865752500016
38984.75	0.099983099848032	606	hunger	stimuli/non_foods\non-food_animate_squirrel.jpg	1	5	1	non-food_animate_squirrel	0	R	12	0	150	0		0	0	189.915754799964	190.015737899812
39022.25	0.0999783000443131	607	hunger	stimuli/non_foods\non-food_animate_peacock.jpg	1	5	1	non-food_animate_peacock	0	H	5	0	134	0		0	0	190.065747999819	190.165726299863
39059.75	0.0999910999089479	608	hunger	stimuli/foods\cauliflower.jpg	1	5	1	cauliflower	1	R	12	0	20	0		0	0	190.215741700027	190.315732799936
39097.25	0.0999656999483705	609	hunger	stimuli/non_foods\non-food_inanimate_construction_helment.jpg	1	5	1	non-food_inanimate_construction_helment	0	X	17	0	175	0		0	0	190.365764599992	190.46573029994
39134.75	0.0999774998053908	610	hunger	stimuli/non_foods\non-food_inanimate_sun_flower.jpg	1	5	1	non-food_inanimate_sun_flower	0	H	5	0	216	0		0	0	190.515750800027	190.615728299832
39172.25	0.0999994000885636	611	hunger	stimuli/foods\chocolate_chip_cookies.jpg	1	5	1	chocolate_chip_cookies	1	K	7	0	27	0		0	0	190.665729299886	190.765728699975
39209.75	0.0999857999850065	612	hunger	stimuli/foods\cabbage.jpg	1	5	1	cabbage	1	X	17	0	16	0		0	0	190.815738899866	190.915724699851
39247.25	0.0999984999652952	613	hunger	stimuli/foods\croissant.jpg	1	5	1	croissant	1	L	8	0	40	0		0	0	190.965736599872	191.065735099837
39284.75	0.0999646000564098	614	hunger	stimuli/non_foods\non-food_inanimate_fire_extinguisher.jpg	1	5	1	non-food_inanimate_fire_extinguisher	0	S	13	0	181	0		0	0	191.115739099914	191.215703699971
39322.25	0.0999794001691043	615	hunger	stimuli/foods\potato_and_green_bean_salad.jpg	1	5	1	potato_and_green_bean_salad	1	D	2	0	246	0		0	0	191.265736899804	191.365716299973
39359.75	0.100007399916649	616	hunger	stimuli/non_foods\non-food_animate_sea_turtle.jpg	1	5	1	non-food_animate_sea_turtle	0	B	0	0	144	0		0	0	191.415731699904	191.515739099821
39397.25	0.0999692999757826	617	hunger	stimuli/non_foods\non-food_animate_Causasian_man.jpg	1	5	1	non-food_animate_Causasian_man	0	H	5	0	89	0		0	0	191.565744899912	191.665714199888
39434.75	0.0999890000093728	618	hunger	stimuli/non_foods\non-food_inanimate_stapler.jpg	1	5	1	non-food_inanimate_stapler	0	S	13	0	213	0		0	0	191.715727999806	191.815716999816
39472.25	0.0999861001037061	619	hunger	stimuli/foods\gnocchi.jpg	1	5	1	gnocchi	1	D	2	0	58	0		0	0	191.865726499818	191.965712599922
39509.75	0.0999908000230789	620	hunger	stimuli/foods\bagel.jpg	1	5	1	bagel	1	J	6	0	6	0		0	0	192.015724699944	192.115715499967
39547.25	0.0999710999894887	621	hunger	stimuli/non_foods\non-food_animate_duck.jpg	1	5	1	non-food_animate_duck	0	D	2	0	109	0		0	0	192.165723799961	192.26569489995
39584.75	0.0999824001919478	622	hunger	stimuli/foods\salmon.jpg	1	5	1	salmon	1	V	15	0	264	0		0	0	192.315715199802	192.415697599994
39622.25	0.0999929001554847	623	hunger	stimuli/non_foods\non-food_inanimate_bamboo.jpg	1	5	1	non-food_inanimate_bamboo	0	W	16	0	159	0		0	0	192.465714299819	192.565707199974
39659.75	0.0999825000762939	624	hunger	stimuli/non_foods\non-food_inanimate_watering_can.jpg	1	5	1	non-food_inanimate_watering_can	0	V	15	0	225	0		0	0	192.615720799891	192.715703299968
39697.25	0.0999595001339912	625	hunger	stimuli/foods\fennel.jpg	1	5	1	fennel	1	R	12	0	47	0		0	0	192.765717899892	192.865677400026
39734.75	0.0999884000048041	626	hunger	stimuli/non_foods\non-food_animate_porcupine.jpg	1	5	1	non-food_animate_porcupine	0	C	1	0	138	0		0	0	192.915712499991	193.015700899996
39772.25	0.099984000204131	627	hunger	stimuli/non_foods\non-food_animate_baby_sitting.jpg	1	5	1	non-food_animate_baby_sitting	0	R	12	0	93	0		0	0	193.065715999808	193.165700000012
39809.75	0.100019600009546	628	hunger	stimuli/foods\coffee_beans.jpg	1	5	1	coffee_beans	1	M	9	0	34	0		0	0	193.215713999933	193.315733599942
39847.25	0.0999831000808626	629	hunger	stimuli/foods\brownie.jpg	1	5	1	brownie	1	R	12	0	14	0		0	0	193.365712499944	193.465695600025
39884.75	0.0999853000976145	630	hunger	stimuli/foods\raisins.jpg	1	5	1	raisins	1	W	16	0	252	0		0	0	193.515706899809	193.615692199906
39922.25	0.0999857999850065	631	hunger	stimuli/non_foods\non-food_animate_runner.jpg	1	5	1	non-food_animate_runner	0	C	1	0	142	0		0	0	193.665705799824	193.765691599809
39959.75	0.0999896000139415	632	hunger	stimuli/foods\ice_cream.jpg	1	5	1	ice_cream	1	R	12	0	68	0		0	0	193.815703799948	193.915693399962
39997.25	0.0999788998160511	633	hunger	stimuli/non_foods\non-food_animate_caterpillar.jpg	1	5	1	non-food_animate_caterpillar	0	X	17	0	99	0		0	0	193.965708500007	194.065687399823
40034.75	0.0999773000366986	634	hunger	stimuli/foods\cooked_ham.jpg	1	5	1	cooked_ham	1	K	7	0	35	0		0	0	194.115710199811	194.215687499847
40072.25	0.0999857999850065	635	hunger	stimuli/non_foods\non-food_animate_green_bug.jpg	1	5	1	non-food_animate_green_bug	0	J	6	0	118	0		0	0	194.265696599847	194.365682399832
40109.75	0.0999857999850065	636	hunger	stimuli/non_foods\non-food_inanimate_broom.jpg	1	5	1	non-food_inanimate_broom	0	Z	18	0	164	0		0	0	194.415695699863	194.515681499848
40147.25	0.0999859999865294	637	hunger	stimuli/foods\lemon_meringue_pie.jpg	1	5	1	lemon_meringue_pie	1	X	17	0	73	0		0	0	194.565694599878	194.665680599865
40184.75	0.0999602000229061	638	hunger	stimuli/non_foods\non-food_animate_slug.jpg	1	5	1	non-food_animate_slug	0	O	22	1	148	0		0	0	194.715691899881	194.815652099904
40222.25	0.0999781000427902	639	hunger	stimuli/non_foods\non-food_inanimate_gloves.jpg	1	5	1	non-food_inanimate_gloves	0	T	14	0	183	0		0	0	194.86568529997	194.965663400013
40259.75	0.100006500026211	640	hunger	stimuli/non_foods\non-food_animate_alligator.jpg	1	5	1	non-food_animate_alligator	0	M	9	0	90	0		0	0	195.015669599874	195.1156760999
40297.25	0.0999828001949936	641	hunger	stimuli/foods\pear.jpg	1	5	1	pear	1	V	15	0	239	0		0	0	195.165688499808	195.265671300003
40334.75	0.0999896000139415	642	hunger	stimuli/foods\smoked_ham.jpg	1	5	1	smoked_ham	1	C	1	0	266	0		0	0	195.315684099915	195.415673699928
40372.25	0.0999867001082748	643	hunger	stimuli/non_foods\non-food_inanimate_canoe.jpg	1	5	1	non-food_inanimate_canoe	0	G	4	0	170	0		0	0	195.465685499832	195.56567219994
40409.75	0.099996899953112	644	hunger	stimuli/foods\chocolate_pudding.jpg	1	5	1	chocolate_pudding	1	M	9	0	29	0		0	0	195.615679699928	195.715676599881
40447.25	0.0999348000623286	645	hunger	stimuli/non_foods\non-food_inanimate_toy_airplane.jpg	1	5	1	non-food_inanimate_toy_airplane	0	D	2	0	222	0		0	0	195.765727799851	195.865662599914
40484.75	0.099986300105229	646	hunger	stimuli/foods\avocado.jpg	1	5	1	avocado	1	B	0	0	5	0		0	0	195.915677999845	196.01566429995
40522.25	0.0999881001189351	647	hunger	stimuli/foods\taco.jpg	1	5	1	taco	1	W	16	0	274	0		0	0	196.065675499849	196.165663599968
40559.75	0.0999805999454111	648	hunger	stimuli/foods\broccoli.jpg	1	5	1	broccoli	1	J	6	0	13	0		0	0	196.215680599911	196.315661199857
40597.25	0.100005900021642	649	hunger	stimuli/non_foods\non-food_inanimate_skateboard.jpg	1	5	1	non-food_inanimate_skateboard	0	P	11	0	208	0		0	0	196.3656454999	196.465651399922
40634.75	0.0999751000199467	650	hunger	stimuli/non_foods\non-food_inanimate_buds.jpg	1	5	1	non-food_inanimate_buds	0	R	12	0	166	0		0	0	196.515666699968	196.615641799988
40672.25	0.099952399963513	651	hunger	stimuli/foods\cinnamon.jpg	1	5	1	cinnamon	1	Z	18	0	30	0		0	0	196.665671899915	196.765624299878
