onset	duration	eventnumber	hunger_condition	stimfilename	blockno	trialno	is_faststream	stim	food_idx	letter	letter_idx	istarget	image_number	response	keypressed	rt	correct	time_stimon	time_stimoff
14010	0.0999762999708764	0	hunger	stimuli/non_foods\non-food_inanimate_protractor.jpg	1	1	1	non-food_inanimate_protractor	0	G	4	0	201	0		0	0	121.21073510003	121.310711400001
14047.5	0.100045300030615	1	hunger	stimuli/foods\papaya.jpg	1	1	1	papaya	1	C	1	0	235	0		0	0	121.360731100023	121.460776400054
14085	0.0999667999567464	2	hunger	stimuli/non_foods\non-food_animate_penguin.jpg	1	1	1	non-food_animate_penguin	0	B	0	0	135	0		0	0	121.510738400044	121.610705200001
14122.5	0.0999860999872908	3	hunger	stimuli/foods\fruit_pie.jpg	1	1	1	fruit_pie	1	G	4	0	54	0		0	0	121.660719400039	121.760705500026
14160	0.0999825999606401	4	hunger	stimuli/non_foods\non-food_inanimate_jeans.jpg	1	1	1	non-food_inanimate_jeans	0	F	3	0	191	0		0	0	121.810717400047	121.910700000008
14197.5	0.100002399994992	5	hunger	stimuli/foods\cucumber.jpg	1	1	1	cucumber	1	J	6	0	41	0		0	0	121.96068790002	122.060690300015
14235	0.0999788999906741	6	hunger	stimuli/foods\red_beans.jpg	1	1	1	red_beans	1	R	12	0	255	0		0	0	122.110714900016	122.210693800007
14272.5	0.099961300031282	7	hunger	stimuli/non_foods\non-food_animate_peacock.jpg	1	1	1	non-food_animate_peacock	0	G	4	0	134	0		0	0	122.260727900022	122.360689200053
14310	0.0999823000165634	8	hunger	stimuli/non_foods\non-food_animate_hummingbird.jpg	1	1	1	non-food_animate_hummingbird	0	B	0	0	120	0		0	0	122.410703600035	122.510685900052
14347.5	0.0999830999644473	9	hunger	stimuli/non_foods\non-food_inanimate_broom.jpg	1	1	1	non-food_inanimate_broom	0	C	1	0	164	0		0	0	122.560710000049	122.660693100013
14385	0.099986599991098	10	hunger	stimuli/foods\lemon.jpg	1	1	1	lemon	1	D	2	0	72	0		0	0	122.710706000042	122.810692600033
14422.5	0.099975400022231	11	hunger	stimuli/non_foods\non-food_animate_iguana.jpg	1	1	1	non-food_animate_iguana	0	H	5	0	121	0		0	0	122.860706100008	122.96068150003
14460	0.100001700047869	12	hunger	stimuli/foods\cabbage.jpg	1	1	1	cabbage	1	C	1	0	16	0		0	0	123.010694299999	123.110696000047
14497.5	0.0997459999634884	13	hunger	stimuli/foods\blackberry.jpg	1	1	1	blackberry	1	F	3	0	11	0		0	0	123.160941900045	123.260687900009
14535	0.0999699999811128	14	hunger	stimuli/foods\raw_ham.jpg	1	1	1	raw_ham	1	C	1	0	253	0		0	0	123.310714000021	123.410684000002
14572.5	0.0999748999602161	15	hunger	stimuli/non_foods\non-food_animate_young_boy.jpg	1	1	1	non-food_animate_young_boy	0	F	3	0	156	0		0	0	123.460699600051	123.560674500011
14610	0.099985699984245	16	hunger	stimuli/foods\orange.jpg	1	1	1	orange	1	R	12	0	230	0		0	0	123.610694500036	123.71068020002
14647.5	0.0999868999933824	17	hunger	stimuli/non_foods\non-food_inanimate_watering_can.jpg	1	1	1	non-food_inanimate_watering_can	0	J	6	0	225	0		0	0	123.760691200034	123.860678100027
14685	0.0999930999823846	18	hunger	stimuli/non_foods\non-food_animate_butterfly.jpg	1	1	1	non-food_animate_butterfly	0	Z	18	0	96	0		0	0	123.910689600045	124.010682700027
14722.5	0.0999735999503173	19	hunger	stimuli/foods\lemon_meringue_pie.jpg	1	1	1	lemon_meringue_pie	1	D	2	0	73	0		0	0	124.06070250005	124.1606761
14760	0.0999842999735847	20	hunger	stimuli/foods\salami.jpg	1	1	1	salami	1	S	13	0	263	0		0	0	124.210681300028	124.310665600002
14797.5	0.0999852999811992	21	hunger	stimuli/foods\apple.jpg	1	1	1	apple	1	F	3	0	1	0		0	0	124.360679500038	124.460664800019
14835	0.0999873999971896	22	hunger	stimuli/non_foods\non-food_animate_deer.jpg	1	1	1	non-food_animate_deer	0	L	8	0	105	0		0	0	124.510671800002	124.6106592
14872.5	0.099986599991098	23	hunger	stimuli/foods\figs.jpg	1	1	1	figs	1	J	6	0	48	0		0	0	124.660673100036	124.760659700027
14910	0.099982799962163	24	hunger	stimuli/foods\fennel.jpg	1	1	1	fennel	1	K	7	0	47	0		0	0	124.81068590004	124.910668700002
14947.5	0.100008899986278	25	hunger	stimuli/foods\egg.jpg	1	1	1	egg	1	F	3	0	45	0		0	0	124.960654300055	125.060663200042
14985	0.0999866999918595	26	hunger	stimuli/non_foods\non-food_inanimate_skateboard.jpg	1	1	1	non-food_inanimate_skateboard	0	C	1	0	208	0		0	0	125.110675500007	125.210662199999
15022.5	0.0999850999796763	27	hunger	stimuli/foods\stew_with_potatoes_and_carrots.jpg	1	1	1	stew_with_potatoes_and_carrots	1	D	2	0	271	0		0	0	125.26067540003	125.36066050001
15060	0.0999939000466838	28	hunger	stimuli/non_foods\non-food_inanimate_couch.jpg	1	1	1	non-food_inanimate_couch	0	F	3	0	176	0		0	0	125.410662000009	125.510655900056
15097.5	0.0999850999796763	29	hunger	stimuli/non_foods\non-food_inanimate_nest.jpg	1	1	1	non-food_inanimate_nest	0	N	10	0	196	0		0	0	125.560669800034	125.660654900013
15135	0.0999804000020958	30	hunger	stimuli/foods\cinnamon_sroll.jpg	1	1	1	cinnamon_sroll	1	W	16	0	31	0		0	0	125.710679800017	125.810660200019
15172.5	0.0999479999882169	31	hunger	stimuli/foods\cooked_prawn.jpg	1	1	1	cooked_prawn	1	F	3	0	36	0		0	0	125.860679400037	125.960627400025
15210	0.0999850000371225	32	hunger	stimuli/foods\strawberry.jpg	1	1	1	strawberry	1	H	5	0	272	0		0	0	126.010665500013	126.11065050005
15247.5	0.0999856000416912	33	hunger	stimuli/foods\watermelon.jpg	1	1	1	watermelon	1	F	3	0	279	0		0	0	126.160662200011	126.260647800053
15285	0.0999884000048041	34	hunger	stimuli/foods\garlic.jpg	1	1	1	garlic	1	I	21	1	56	0		0	0	126.310660200019	126.410648600024
15322.5	0.0999825000180863	35	hunger	stimuli/foods\coffee_beans.jpg	1	1	1	coffee_beans	1	N	10	0	34	0		0	0	126.460642300022	126.56062480004
15360	0.0999824999598786	36	hunger	stimuli/non_foods\non-food_inanimate_waterlily.jpg	1	1	1	non-food_inanimate_waterlily	0	P	11	0	226	0		0	0	126.610658700054	126.710641200014
15397.5	0.0999799999990501	37	hunger	stimuli/foods\brie.jpg	1	1	1	brie	1	N	10	0	12	1	a	0.550224800012074	1	126.760660200031	126.86064020003
15435	0.0999383000307716	38	hunger	stimuli/foods\cinnamon.jpg	1	1	1	cinnamon	1	T	14	0	30	0		0	0	126.910676300002	127.010614600033
15472.5	0.0999639999936335	39	hunger	stimuli/non_foods\non-food_inanimate_nettle.jpg	1	1	1	non-food_inanimate_nettle	0	L	8	0	197	0		0	0	127.060668900027	127.160632900021
15510	0.0999848999781534	40	hunger	stimuli/foods\lentils.jpg	1	1	1	lentils	1	B	0	0	74	0		0	0	127.210645000043	127.310629900021
15547.5	0.0999918999732472	41	hunger	stimuli/non_foods\non-food_inanimate_suitcase.jpg	1	1	1	non-food_inanimate_suitcase	0	R	12	0	215	0		0	0	127.36064030003	127.460632200004
15585	0.0999528999673203	42	hunger	stimuli/foods\carrot.jpg	1	1	1	carrot	1	L	8	0	19	0		0	0	127.510669500043	127.61062240001
15622.5	0.0999758000252768	43	hunger	stimuli/non_foods\non-food_animate_giraffe.jpg	1	1	1	non-food_animate_giraffe	0	N	10	0	115	0		0	0	127.660641500028	127.760617300053
15660	0.0999821000150405	44	hunger	stimuli/non_foods\non-food_animate_ant.jpg	1	1	1	non-food_animate_ant	0	C	1	0	91	0		0	0	127.810630700027	127.910612800042
15697.5	0.0999993999721482	45	hunger	stimuli/non_foods\non-food_inanimate_fern.jpg	1	1	1	non-food_inanimate_fern	0	R	12	0	180	0		0	0	127.960621400038	128.06062080001
15735	0.0999855999834836	46	hunger	stimuli/foods\cooked_ham.jpg	1	1	1	cooked_ham	1	N	10	0	35	0		0	0	128.110627500049	128.210613100033
15772.5	0.0999855999834836	47	hunger	stimuli/non_foods\non-food_inanimate_chandelier.jpg	1	1	1	non-food_inanimate_chandelier	0	X	17	0	173	0		0	0	128.260629100027	128.36061470001
15810	0.100000099977478	48	hunger	stimuli/foods\prawn.jpg	1	1	1	prawn	1	V	15	0	249	0		0	0	128.410621300049	128.510621400026
15847.5	0.0999528000247665	49	hunger	stimuli/foods\cereal.jpg	1	1	1	cereal	1	M	9	0	22	0		0	0	128.5606348	128.660587600025
15885	0.0999859999865294	50	hunger	stimuli/foods\fries.jpg	1	1	1	fries	1	B	0	0	52	0		0	0	128.710630300047	128.810616300034
15922.5	0.0999838999705389	51	hunger	stimuli/foods\cannoli.jpg	1	1	1	cannoli	1	A	19	1	17	0		0	0	128.860628100054	128.960612000024
15960	0.0999980000196956	52	hunger	stimuli/foods\tomato.jpg	1	1	1	tomato	1	B	0	0	276	0		0	0	129.010614100029	129.110612100048
15997.5	0.0999939999892376	53	hunger	stimuli/foods\red_cabbage.jpg	1	1	1	red_cabbage	1	T	14	0	256	1	a	0.40833519998705	1	129.160618100024	129.260612100014
16035	0.100013800023589	54	hunger	stimuli/non_foods\non-food_animate_skunk.jpg	1	1	1	non-food_animate_skunk	0	X	17	0	147	0		0	0	129.310605200008	129.410619000031
16072.5	0.100007900036871	55	hunger	stimuli/foods\lamb_chops.jpg	1	1	1	lamb_chops	1	F	3	0	70	0		0	0	129.460617600009	129.560625500046
16110	0.0999813999515027	56	hunger	stimuli/non_foods\non-food_inanimate_towel.jpg	1	1	1	non-food_inanimate_towel	0	R	12	0	221	0		0	0	129.610619700048	129.7106011
16147.5	0.0999824000173248	57	hunger	stimuli/non_foods\non-food_inanimate_bowling_ball.jpg	1	1	1	non-food_inanimate_bowling_ball	0	W	16	0	162	0		0	0	129.76061300002	129.860595400038
16185	0.0999943999922834	58	hunger	stimuli/non_foods\non-food_animate_dachshund.jpg	1	1	1	non-food_animate_dachshund	0	C	1	0	104	0		0	0	129.910616400011	130.010610800004
16222.5	0.0999929999816231	59	hunger	stimuli/foods\oyster.jpg	1	1	1	oyster	1	Z	18	0	233	0		0	0	130.060610000044	130.160603000026
16260	0.0999547999817878	60	hunger	stimuli/foods\hotdog.jpg	1	1	1	hotdog	1	J	6	0	67	0		0	0	130.210634800023	130.310589600005
16297.5	0.0999986999668181	61	hunger	stimuli/foods\risotto_with_zucchini.jpg	1	1	1	risotto_with_zucchini	1	D	2	0	260	0		0	0	130.360611100041	130.460609800008
16335	0.0999913000268862	62	hunger	stimuli/foods\ice_cream.jpg	1	1	1	ice_cream	1	N	10	0	68	0		0	0	130.510605700023	130.61059700005
16372.5	0.0999935000436381	63	hunger	stimuli/non_foods\non-food_inanimate_stapler.jpg	1	1	1	non-food_inanimate_stapler	0	H	5	0	213	0		0	0	130.660599900002	130.760593400046
16410	0.099984799977392	64	hunger	stimuli/non_foods\non-food_animate_seal.jpg	1	1	1	non-food_animate_seal	0	T	14	0	146	0		0	0	130.810602400044	130.910587200022
16447.5	0.0999879000009969	65	hunger	stimuli/foods\pepperoni_pizza.jpg	1	1	1	pepperoni_pizza	1	B	0	0	241	0		0	0	130.960599400045	131.060587300046
16485	0.0999634999898262	66	hunger	stimuli/foods\lettuce.jpg	1	1	1	lettuce	1	X	17	0	75	0		0	0	131.110624800029	131.210588300019
16522.5	0.099970800045412	67	hunger	stimuli/foods\pineapple.jpg	1	1	1	pineapple	1	J	6	0	243	0		0	0	131.260611400008	131.360582200054
16560	0.0999839999713004	68	hunger	stimuli/foods\cupcake.jpg	1	1	1	cupcake	1	N	10	0	42	0		0	0	131.410599400057	131.510583400028
16597.5	0.0999907999648713	69	hunger	stimuli/non_foods\non-food_animate_mammoth.jpg	1	1	1	non-food_animate_mammoth	0	C	1	0	128	0		0	0	131.560586300038	131.660577100003
16635	0.0999851999804378	70	hunger	stimuli/non_foods\non-food_animate_lizard.jpg	1	1	1	non-food_animate_lizard	0	B	0	0	126	0		0	0	131.710592200048	131.810577400029
16672.5	0.0999855999834836	71	hunger	stimuli/non_foods\non-food_animate_caterpillar.jpg	1	1	1	non-food_animate_caterpillar	0	R	12	0	99	0		0	0	131.860589800053	131.960575400037
16710	0.0999976000166498	72	hunger	stimuli/foods\croissant.jpg	1	1	1	croissant	1	W	16	0	40	0		0	0	132.010575100023	132.110572700039
16747.5	0.0999904000200331	73	hunger	stimuli/non_foods\non-food_animate_cow.jpg	1	1	1	non-food_animate_cow	0	F	3	0	103	0		0	0	132.160586200014	132.260576600034
16785	0.0999895999557339	74	hunger	stimuli/foods\museli_bars.jpg	1	1	1	museli_bars	1	W	16	0	84	0		0	0	132.310580500052	132.410570100008
16822.5	0.0999882000032812	75	hunger	stimuli/non_foods\non-food_inanimate_chair.jpg	1	1	1	non-food_inanimate_chair	0	H	5	0	172	0		0	0	132.460580100014	132.560568300018
16860	0.0999849999789149	76	hunger	stimuli/non_foods\non-food_animate_rhino.jpg	1	1	1	non-food_animate_rhino	0	W	16	0	141	0		0	0	132.610581300047	132.710566300026
16897.5	0.0999935000436381	77	hunger	stimuli/foods\mortadella.jpg	1	1	1	mortadella	1	P	11	0	83	0		0	0	132.760581500013	132.860575000057
16935	0.0999535000300966	78	hunger	stimuli/non_foods\non-food_inanimate_ring.jpg	1	1	1	non-food_inanimate_ring	0	X	17	0	203	0		0	0	132.910599800001	133.010553300031
16972.5	0.0999812000081874	79	hunger	stimuli/foods\omelette.jpg	1	1	1	omelette	1	L	8	0	228	0		0	0	133.06057760003	133.160558800038
17010	0.0999803000013344	80	hunger	stimuli/non_foods\non-food_inanimate_short_sleeved_shirt.jpg	1	1	1	non-food_inanimate_short_sleeved_shirt	0	H	5	0	207	0		0	0	133.210571300006	133.310551600007
17047.5	0.0999961000052281	81	hunger	stimuli/foods\artichoke.jpg	1	1	1	artichoke	1	N	10	0	3	0		0	0	133.360570500023	133.460566600028
17085	0.0999889000086114	82	hunger	stimuli/non_foods\non-food_animate_owl.jpg	1	1	1	non-food_animate_owl	0	J	6	0	132	0		0	0	133.510566000012	133.61055490002
17122.5	0.0999852000386454	83	hunger	stimuli/foods\bagel.jpg	1	1	1	bagel	1	L	8	0	6	0		0	0	133.6605691	133.760554300039
17160	0.0999502000049688	84	hunger	stimuli/foods\rice_cake.jpg	1	1	1	rice_cake	1	W	16	0	258	0		0	0	133.810576900025	133.91052710003
17197.5	0.0999587000114843	85	hunger	stimuli/non_foods\non-food_animate_german_shepherd.jpg	1	1	1	non-food_animate_german_shepherd	0	H	5	0	114	0		0	0	133.960582400032	134.060541100043
17235	0.0999709999887273	86	hunger	stimuli/non_foods\non-food_inanimate_bush.jpg	1	1	1	non-food_inanimate_bush	0	F	3	0	167	0		0	0	134.110578500025	134.210549500014
17272.5	0.0999834999674931	87	hunger	stimuli/non_foods\non-food_inanimate_padlock.jpg	1	1	1	non-food_inanimate_padlock	0	D	2	0	199	0		0	0	134.260555100045	134.360538600013
17310	0.0999862999888137	88	hunger	stimuli/non_foods\non-food_inanimate_sun_flower.jpg	1	1	1	non-food_inanimate_sun_flower	0	W	16	0	216	0		0	0	134.410552600049	134.510538900038
17347.5	0.100016399985179	89	hunger	stimuli/non_foods\non-food_animate_parrot.jpg	1	1	1	non-food_animate_parrot	0	Z	18	0	133	0		0	0	134.560560400016	134.660576800001
17385	0.0999765999731608	90	hunger	stimuli/non_foods\non-food_animate_bat.jpg	1	1	1	non-food_animate_bat	0	F	3	0	94	0		0	0	134.710555000056	134.810531600029
17422.5	0.0999850000371225	91	hunger	stimuli/non_foods\non-food_inanimate_teddy_bear.jpg	1	1	1	non-food_inanimate_teddy_bear	0	P	11	0	218	0		0	0	134.860544800002	134.960529800039
17460	0.0999911999679171	92	hunger	stimuli/non_foods\non-food_inanimate_briefcase.jpg	1	1	1	non-food_inanimate_briefcase	0	R	12	0	163	0		0	0	135.010545700032	135.1105369
17497.5	0.0999832999659702	93	hunger	stimuli/foods\waffle.jpg	1	1	1	waffle	1	F	3	0	278	0		0	0	135.160551600042	135.260534900008
17535	0.0999869999941438	94	hunger	stimuli/non_foods\non-food_inanimate_soccer_ball.jpg	1	1	1	non-food_inanimate_soccer_ball	0	S	13	0	210	0		0	0	135.310547700035	135.41053470003
17572.5	0.0999908999656327	95	hunger	stimuli/non_foods\non-food_inanimate_lighter.jpg	1	1	1	non-food_inanimate_lighter	0	R	12	0	193	0		0	0	135.460538800049	135.560529700015
17610	0.099986599991098	96	hunger	stimuli/foods\broccoli.jpg	1	1	1	broccoli	1	D	2	0	13	0		0	0	135.610542500042	135.710529100033
17647.5	0.0999694999773055	97	hunger	stimuli/non_foods\non-food_inanimate_cupboard.jpg	1	1	1	non-food_inanimate_cupboard	0	T	14	0	177	0		0	0	135.760554900044	135.860524400021
17685	0.0999864999903366	98	hunger	stimuli/foods\pea_pod.jpg	1	1	1	pea_pod	1	B	0	0	237	0		0	0	135.910540200013	136.010526700004
17722.5	0.0999847000348382	99	hunger	stimuli/foods\coconut.jpg	1	1	1	coconut	1	R	12	0	33	0		0	0	136.060537500016	136.160522200051
17760	0.0999980999622494	100	hunger	stimuli/non_foods\non-food_animate_fox.jpg	1	1	1	non-food_animate_fox	0	J	6	0	112	0		0	0	136.210522200039	136.310520300001
17797.5	0.100011000002269	101	hunger	stimuli/non_foods\non-food_inanimate_hay.jpg	1	1	1	non-food_inanimate_hay	0	N	10	0	187	0		0	0	136.360531200015	136.460542200017
17835	0.0999275000067428	102	hunger	stimuli/foods\chocolate_pudding.jpg	1	1	1	chocolate_pudding	1	L	8	0	29	0		0	0	136.510580300004	136.610507800011
17872.5	0.0999819000135176	103	hunger	stimuli/foods\chestnut.jpg	1	1	1	chestnut	1	T	14	0	24	0		0	0	136.660528200038	136.760510100052
17910	0.0999853000394069	104	hunger	stimuli/foods\pomegranate.jpg	1	1	1	pomegranate	1	Z	18	0	244	0		0	0	136.810528100003	136.910513400042
17947.5	0.0999836000264622	105	hunger	stimuli/non_foods\non-food_inanimate_bed.jpg	1	1	1	non-food_inanimate_bed	0	W	16	0	160	0		0	0	136.960525300005	137.060508900031
17985	0.0999773999792524	106	hunger	stimuli/non_foods\non-food_animate_pigeon.jpg	1	1	1	non-food_animate_pigeon	0	H	5	0	136	0		0	0	137.11052430002	137.210501699999
18022.5	0.0999902000185102	107	hunger	stimuli/non_foods\non-food_animate_donkey.jpg	1	1	1	non-food_animate_donkey	0	S	13	0	107	0		0	0	137.260511400003	137.360501600022
18060	0.0999862999888137	108	hunger	stimuli/foods\smoked_ham.jpg	1	1	1	smoked_ham	1	K	7	0	266	0		0	0	137.410512800037	137.510499100026
18097.5	0.0999866999918595	109	hunger	stimuli/foods\chocolate_bar.jpg	1	1	1	chocolate_bar	1	V	15	0	26	0		0	0	137.560509100033	137.660495800024
18135	0.0999823000165634	110	hunger	stimuli/non_foods\non-food_animate_swan.jpg	1	1	1	non-food_animate_swan	0	G	4	0	152	0		0	0	137.710511000012	137.810493300029
18172.5	0.0999848000355996	111	hunger	stimuli/non_foods\non-food_animate_gorilla.jpg	1	1	1	non-food_animate_gorilla	0	Z	18	0	116	0		0	0	137.860507600009	137.960492400045
18210	0.0999822000158019	112	hunger	stimuli/foods\spring_onions.jpg	1	1	1	spring_onions	1	C	1	0	269	0		0	0	138.01050850004	138.110490700055
18247.5	0.0999848000355996	113	hunger	stimuli/non_foods\non-food_inanimate_cactus_pot_plant.jpg	1	1	1	non-food_inanimate_cactus_pot_plant	0	R	12	0	169	0		0	0	138.160509400012	138.260494200047
18285	0.0999633999890648	114	hunger	stimuli/foods\corncob.jpg	1	1	1	corncob	1	N	10	0	37	0		0	0	138.310523500026	138.410486900015
18322.5	0.0999804000020958	115	hunger	stimuli/non_foods\non-food_inanimate_bamboo.jpg	1	1	1	non-food_inanimate_bamboo	0	X	17	0	159	0		0	0	138.460501300055	138.560481700057
18360	0.0999813000089489	116	hunger	stimuli/non_foods\non-food_inanimate_toilet.jpg	1	1	1	non-food_inanimate_toilet	0	G	4	0	220	0		0	0	138.61050000001	138.710481300019
18397.5	0.0999839000287466	117	hunger	stimuli/non_foods\non-food_animate_elephant.jpg	1	1	1	non-food_animate_elephant	0	V	15	0	111	0		0	0	138.760497900017	138.860481800046
18435	0.0999846000340767	118	hunger	stimuli/foods\fried_calamari.jpg	1	1	1	fried_calamari	1	Z	18	0	50	0		0	0	138.910494800017	139.010479400051
18472.5	0.0999845999758691	119	hunger	stimuli/non_foods\non-food_inanimate_pine_cone.jpg	1	1	1	non-food_inanimate_pine_cone	0	N	10	0	200	0		0	0	139.060493700032	139.160478300008
18510	0.0999608999700285	120	hunger	stimuli/foods\eggplant.jpg	1	1	1	eggplant	1	H	5	0	46	0		0	0	139.210501400055	139.310462300025
18547.5	0.0999752999632619	121	hunger	stimuli/non_foods\non-food_inanimate_fire_extinguisher.jpg	1	1	1	non-food_inanimate_fire_extinguisher	0	V	15	0	181	0		0	0	139.360503800039	139.460479100002
18585	0.0999828999629244	122	hunger	stimuli/foods\oregano.jpg	1	1	1	oregano	1	T	14	0	231	0		0	0	139.510494300048	139.610477200011
18622.5	0.0999855999834836	123	hunger	stimuli/foods\dates.jpg	1	1	1	dates	1	L	8	0	43	0		0	0	139.660492400057	139.76047800004
18660	0.0999688999727368	124	hunger	stimuli/foods\onion.jpg	1	1	1	onion	1	K	7	0	229	0		0	0	139.810504200053	139.910473100026
18697.5	0.0999519000179134	125	hunger	stimuli/foods\asparagus.jpg	1	1	1	asparagus	1	G	4	0	4	0		0	0	139.960497700027	140.060449600045
18735	0.0999669000157155	126	hunger	stimuli/non_foods\non-food_animate_mouse.jpg	1	1	1	non-food_animate_mouse	0	P	11	0	131	0		0	0	140.110504100041	140.210471000057
18772.5	0.0999868999933824	127	hunger	stimuli/non_foods\non-food_inanimate_tulip.jpg	1	1	1	non-food_inanimate_tulip	0	V	15	0	224	0		0	0	140.26048430003	140.360471200023
18810	0.0999867999926209	128	hunger	stimuli/non_foods\non-food_inanimate_tent.jpg	1	1	1	non-food_inanimate_tent	0	K	7	0	219	0		0	0	140.41048260004	140.510469400033
18847.5	0.0999918999732472	129	hunger	stimuli/non_foods\non-food_animate_student_female.jpg	1	1	1	non-food_animate_student_female	0	X	17	0	151	0		0	0	140.560449000041	140.660440900014
18885	0.0999591000145301	130	hunger	stimuli/foods\gnocchi.jpg	1	1	1	gnocchi	1	J	6	0	58	0		0	0	140.710484400042	140.810443500057
18922.5	0.0999872999964282	131	hunger	stimuli/foods\hazelnuts.jpg	1	1	1	hazelnuts	1	M	9	0	65	0		0	0	140.860475000052	140.960462300049
18960	0.0999844000325538	132	hunger	stimuli/foods\cauliflower.jpg	1	1	1	cauliflower	1	N	10	0	20	0		0	0	141.010475500021	141.110459900054
18997.5	0.0999874999979511	133	hunger	stimuli/foods\potato_chips.jpg	1	1	1	potato_chips	1	G	4	0	247	0		0	0	141.16047490004	141.260462400038
19035	0.0999839999713004	134	hunger	stimuli/non_foods\non-food_inanimate_horn.jpg	1	1	1	non-food_inanimate_horn	0	H	5	0	190	0		0	0	141.310472200043	141.410456200014
19072.5	0.0999734000070021	135	hunger	stimuli/non_foods\non-food_animate_dolphin.jpg	1	1	1	non-food_animate_dolphin	0	L	8	0	106	0		0	0	141.460467200028	141.560440600035
19110	0.0999857000424527	136	hunger	stimuli/non_foods\non-food_animate_woman.jpg	1	1	1	non-food_animate_woman	0	P	11	0	154	0		0	0	141.610469000007	141.710454700049
19147.5	0.0999805000028573	137	hunger	stimuli/foods\brownie.jpg	1	1	1	brownie	1	X	17	0	14	0		0	0	141.760485000035	141.860465500038
19185	0.0999845999758691	138	hunger	stimuli/foods\lollies.jpg	1	1	1	lollies	1	P	11	0	78	0		0	0	141.910465500026	142.010450100002
19222.5	0.0999924000352621	139	hunger	stimuli/non_foods\non-food_inanimate_grass.jpg	1	1	1	non-food_inanimate_grass	0	H	5	0	184	0		0	0	142.060453700018	142.160446100053
20276.75	0.0999737000092864	140	hunger	stimuli/foods\baked_cod_with_carrots_and_green_beans.jpg	1	2	1	baked_cod_with_carrots_and_green_beans	1	H	5	0	7	0		0	0	146.277086200018	146.377059900027
20314.25	0.100007999979425	141	hunger	stimuli/non_foods\non-food_inanimate_headphones.jpg	1	2	1	non-food_inanimate_headphones	0	F	3	0	188	0		0	0	146.427070000034	146.527078000014
20351.75	0.0999186999979429	142	hunger	stimuli/non_foods\non-food_animate_Asian_man.jpg	1	2	1	non-food_animate_Asian_man	0	K	7	0	88	0		0	0	146.577137600048	146.677056300046
20389.25	0.099984799977392	143	hunger	stimuli/foods\grapes.jpg	1	2	1	grapes	1	S	13	0	60	0		0	0	146.727070000023	146.8270548
20426.75	0.0999850999796763	144	hunger	stimuli/non_foods\non-food_animate_grasshopper.jpg	1	2	1	non-food_animate_grasshopper	0	G	4	0	117	0		0	0	146.877069100039	146.977054200019
20464.25	0.0999869999941438	145	hunger	stimuli/non_foods\non-food_animate_slug.jpg	1	2	1	non-food_animate_slug	0	H	5	0	148	0		0	0	147.027067100047	147.127054100041
20501.75	0.0999817999545485	146	hunger	stimuli/foods\green_olives.jpg	1	2	1	green_olives	1	N	10	0	62	0		0	0	147.177065200056	147.27704700001
20539.25	0.0999898000154644	147	hunger	stimuli/foods\mango.jpg	1	2	1	mango	1	M	9	0	80	0		0	0	147.3270625	147.427052300016
20576.75	0.0999649000004865	148	hunger	stimuli/non_foods\non-food_inanimate_clover.jpg	1	2	1	non-food_inanimate_clover	0	T	14	0	174	0		0	0	147.47706200002	147.57702690002
20614.25	0.0999684000271372	149	hunger	stimuli/non_foods\non-food_inanimate_shell.jpg	1	2	1	non-food_inanimate_shell	0	L	8	0	206	0		0	0	147.627073900017	147.727042300045
20651.75	0.0999883000040427	150	hunger	stimuli/non_foods\non-food_animate_horse.jpg	1	2	1	non-food_animate_horse	0	J	6	0	119	0		0	0	147.77705590002	147.877044200024
20689.25	0.0999842999735847	151	hunger	stimuli/foods\wafer.jpg	1	2	1	wafer	1	F	3	0	277	0		0	0	147.927053700027	148.027038
20726.75	0.0999884000048041	152	hunger	stimuli/foods\apricot.jpg	1	2	1	apricot	1	G	4	0	2	0		0	0	148.077052900044	148.177041300049
20764.25	0.0999898000154644	153	hunger	stimuli/non_foods\non-food_animate_lion.jpg	1	2	1	non-food_animate_lion	0	M	9	0	125	0		0	0	148.227055500029	148.327045300044
20801.75	0.0999514000141062	154	hunger	stimuli/non_foods\non-food_animate_chicken.jpg	1	2	1	non-food_animate_chicken	0	J	6	0	101	0		0	0	148.377084400039	148.477035800053
20839.25	0.0999872999964282	155	hunger	stimuli/non_foods\non-food_animate_polar_bear.jpg	1	2	1	non-food_animate_polar_bear	0	S	13	0	137	0		0	0	148.527047900017	148.627035200014
20876.75	0.0999838999705389	156	hunger	stimuli/non_foods\non-food_inanimate_moss.jpg	1	2	1	non-food_inanimate_moss	0	V	15	0	194	0		0	0	148.677047200035	148.777031100006
20914.25	0.0999852999811992	157	hunger	stimuli/foods\pear.jpg	1	2	1	pear	1	C	1	0	239	0		0	0	148.82704470004	148.927030000021
20951.75	0.0999833999667317	158	hunger	stimuli/foods\frankfurter_and_provolone_salad.jpg	1	2	1	frankfurter_and_provolone_salad	1	B	0	0	49	0		0	0	148.977042600047	149.077026000014
20989.25	0.0999826000188477	159	hunger	stimuli/non_foods\non-food_animate_camel.jpg	1	2	1	non-food_animate_camel	0	S	13	0	97	0		0	0	149.127041200001	149.22702380002
21026.75	0.100004800013267	160	hunger	stimuli/non_foods\non-food_inanimate_folding_chair.jpg	1	2	1	non-food_inanimate_folding_chair	0	T	14	0	182	0		0	0	149.277038600005	149.377043400018
21064.25	0.0999655000050552	161	hunger	stimuli/foods\lime.jpg	1	2	1	lime	1	K	7	0	76	0		0	0	149.427052400017	149.527017900022
21101.75	0.099984799977392	162	hunger	stimuli/non_foods\non-food_animate_sea_turtle.jpg	1	2	1	non-food_animate_sea_turtle	0	X	17	0	144	0		0	0	149.57703840005	149.677023200027
21139.25	0.0999819999560714	163	hunger	stimuli/foods\chilli.jpg	1	2	1	chilli	1	M	9	0	25	0		0	0	149.727036200056	149.827018200012
21176.75	0.0999819999560714	164	hunger	stimuli/foods\chocolate_pralines.jpg	1	2	1	chocolate_pralines	1	V	15	0	28	0		0	0	149.877032000048	149.977014000004
21214.25	0.0999987000250258	165	hunger	stimuli/foods\radish.jpg	1	2	1	radish	1	B	0	0	251	0		0	0	150.027033400023	150.127032100048
21251.75	0.100014800031204	166	hunger	stimuli/non_foods\non-food_animate_eagle.jpg	1	2	1	non-food_animate_eagle	0	H	5	0	110	0		0	0	150.177043800009	150.277058600041
21289.25	0.0999788999906741	167	hunger	stimuli/non_foods\non-food_animate_runner.jpg	1	2	1	non-food_animate_runner	0	M	9	0	142	0		0	0	150.327030200046	150.427009100036
21326.75	0.0999892999534495	168	hunger	stimuli/foods\hamburger.jpg	1	2	1	hamburger	1	S	13	0	64	0		0	0	150.477021000057	150.57701030001
21364.25	0.0999828000203706	169	hunger	stimuli/non_foods\non-food_animate_dragonfly.jpg	1	2	1	non-food_animate_dragonfly	0	B	0	0	108	0		0	0	150.627021000022	150.727003800042
21401.75	0.0999858999857679	170	hunger	stimuli/non_foods\non-food_animate_ladybug.jpg	1	2	1	non-food_animate_ladybug	0	L	8	0	124	0		0	0	150.777018600027	150.877004500013
21439.25	0.0999863999895751	171	hunger	stimuli/foods\linguine_with_clams.jpg	1	2	1	linguine_with_clams	1	T	14	0	77	0		0	0	150.927017800044	151.027004200034
21476.75	0.09997049998492	172	hunger	stimuli/non_foods\non-food_animate_monkey.jpg	1	2	1	non-food_animate_monkey	0	S	13	0	130	0		0	0	151.076999700046	151.176970200031
21514.25	0.0999670999590307	173	hunger	stimuli/foods\banana.jpg	1	2	1	banana	1	K	7	0	9	0		0	0	151.227027100045	151.326994200004
21551.75	0.099969599978067	174	hunger	stimuli/non_foods\non-food_inanimate_leaf.jpg	1	2	1	non-food_inanimate_leaf	0	L	8	0	192	0		0	0	151.377013900026	151.476983500004
21589.25	0.0999838999705389	175	hunger	stimuli/foods\grapefruits.jpg	1	2	1	grapefruits	1	H	5	0	59	0		0	0	151.527004900039	151.62698880001
21626.75	0.0999778999830596	176	hunger	stimuli/non_foods\non-food_animate_tortoise.jpg	1	2	1	non-food_animate_tortoise	0	F	3	0	153	0		0	0	151.677002800046	151.77698070003
21664.25	0.09997049998492	177	hunger	stimuli/non_foods\non-food_animate_seahorse.jpg	1	2	1	non-food_animate_seahorse	0	V	15	0	145	0		0	0	151.82701420004	151.926984700025
21701.75	0.0999898000154644	178	hunger	stimuli/foods\beetroots.jpg	1	2	1	beetroots	1	S	13	0	10	0		0	0	151.977003000036	152.076992800052
21739.25	0.0999850999796763	179	hunger	stimuli/non_foods\non-food_animate_Causasian_man.jpg	1	2	1	non-food_animate_Causasian_man	0	N	10	0	89	0		0	0	152.126994900056	152.226980000036
21776.75	0.0999822000158019	180	hunger	stimuli/foods\celery.jpg	1	2	1	celery	1	L	8	0	21	0		0	0	152.276992900006	152.376975100022
21814.25	0.0999764000298455	181	hunger	stimuli/foods\rice.jpg	1	2	1	rice	1	F	3	0	257	0		0	0	152.426990700013	152.526967100042
21851.75	0.0999879000009969	182	hunger	stimuli/non_foods\non-food_inanimate_alarm_clock.jpg	1	2	1	non-food_inanimate_alarm_clock	0	T	14	0	158	0		0	0	152.576994800009	152.67698270001
21889.25	0.10001439996995	183	hunger	stimuli/non_foods\non-food_animate_llama.jpg	1	2	1	non-food_animate_llama	0	K	7	0	127	0		0	0	152.726967500057	152.826981900027
21926.75	0.0999864999903366	184	hunger	stimuli/non_foods\non-food_inanimate_gloves.jpg	1	2	1	non-food_inanimate_gloves	0	S	13	0	183	0		0	0	152.876993000042	152.976979500032
21964.25	0.0999604999669828	185	hunger	stimuli/non_foods\non-food_animate_kangaroo.jpg	1	2	1	non-food_animate_kangaroo	0	H	5	0	122	0		0	0	153.027014700056	153.126975200023
22001.75	0.0999885000055656	186	hunger	stimuli/non_foods\non-food_inanimate_tree.jpg	1	2	1	non-food_inanimate_tree	0	M	9	0	223	0		0	0	153.176987300045	153.27697580005
22039.25	0.0999576000031084	187	hunger	stimuli/non_foods\non-food_inanimate_stoplight.jpg	1	2	1	non-food_inanimate_stoplight	0	T	14	0	214	0		0	0	153.326988000015	153.426945600018
22076.75	0.0999944999930449	188	hunger	stimuli/foods\cream_donuts.jpg	1	2	1	cream_donuts	1	O	22	1	39	0		0	0	153.47698560002	153.576980100013
22114.25	0.099983100022655	189	hunger	stimuli/foods\ginger_root.jpg	1	2	1	ginger_root	1	T	14	0	57	0		0	0	153.626998400025	153.726981500047
22151.75	0.0999914999702014	190	hunger	stimuli/foods\chocolate_chip_cookies.jpg	1	2	1	chocolate_chip_cookies	1	B	0	0	27	0		0	0	153.776973700034	153.876965200005
22189.25	0.0999849999789149	191	hunger	stimuli/non_foods\non-food_inanimate_bicycle.jpg	1	2	1	non-food_inanimate_bicycle	0	T	14	0	161	0		0	0	153.926980600052	154.026965600031
22226.75	0.099986000044737	192	hunger	stimuli/non_foods\non-food_animate_young_girl.jpg	1	2	1	non-food_animate_young_girl	0	X	17	0	157	0		0	0	154.0769783	154.176964300044
22264.25	0.0999857999850065	193	hunger	stimuli/foods\risotto_with_peas_and_asparagus_tips.jpg	1	2	1	risotto_with_peas_and_asparagus_tips	1	H	5	0	259	0		0	0	154.226973400044	154.326959200029
22301.75	0.0999859000439756	194	hunger	stimuli/non_foods\non-food_inanimate_button.jpg	1	2	1	non-food_inanimate_button	0	P	11	0	168	0		0	0	154.376972600003	154.476958500047
22339.25	0.0999822999583557	195	hunger	stimuli/foods\peas.jpg	1	2	1	peas	1	B	0	0	240	0		0	0	154.526976600057	154.626958900015
22376.75	0.100008300039917	196	hunger	stimuli/foods\capsicum.jpg	1	2	1	capsicum	1	S	13	0	18	0		0	0	154.676967700012	154.776976000052
22414.25	0.0999674999620765	197	hunger	stimuli/foods\almonds.jpg	1	2	1	almonds	1	W	16	0	0	0		0	0	154.82698490005	154.926952400012
22451.75	0.0999825999606401	198	hunger	stimuli/foods\savory_pie.jpg	1	2	1	savory_pie	1	F	3	0	265	0		0	0	154.976966400049	155.076949000009
22489.25	0.0999868999933824	199	hunger	stimuli/non_foods\non-food_animate_cat.jpg	1	2	1	non-food_animate_cat	0	C	1	0	98	0		0	0	155.126964400057	155.22695130005
22526.75	0.0999885000055656	200	hunger	stimuli/foods\roasted_chicken.jpg	1	2	1	roasted_chicken	1	M	9	0	261	0		0	0	155.276965400029	155.376953900035
22564.25	0.0999510999536142	201	hunger	stimuli/non_foods\non-food_animate_sea_lion.jpg	1	2	1	non-food_animate_sea_lion	0	Z	18	0	143	0		0	0	155.426996400056	155.52694750001
22601.75	0.0999416999984533	202	hunger	stimuli/non_foods\non-food_animate_millipede.jpg	1	2	1	non-food_animate_millipede	0	J	6	0	129	0		0	0	155.576972700015	155.676914400014
22639.25	0.0999833999667317	203	hunger	stimuli/foods\potatoes.jpg	1	2	1	potatoes	1	H	5	0	248	0		0	0	155.726950800046	155.826934200013
22676.75	0.099976199970115	204	hunger	stimuli/foods\baked_lamb_with_potatoes.jpg	1	2	1	baked_lamb_with_potatoes	1	K	7	0	8	0		0	0	155.876947700046	155.976923900016
22714.25	0.100003500003368	205	hunger	stimuli/non_foods\non-food_inanimate_cap.jpg	1	2	1	non-food_inanimate_cap	0	X	17	0	171	0		0	0	156.026934500027	156.12693800003
22751.75	0.0999885000055656	206	hunger	stimuli/non_foods\non-food_inanimate_highlighter.jpg	1	2	1	non-food_inanimate_highlighter	0	P	11	0	189	0		0	0	156.17694850004	156.276937000046
22789.25	0.0999868999933824	207	hunger	stimuli/foods\mandarin.jpg	1	2	1	mandarin	1	F	3	0	79	0		0	0	156.326949500013	156.426936400007
22826.75	0.0999743000138551	208	hunger	stimuli/foods\pumpkin.jpg	1	2	1	pumpkin	1	V	15	0	250	0		0	0	156.4769676	156.576941900013
22864.25	0.0999892000108957	209	hunger	stimuli/foods\raw_sausage.jpg	1	2	1	raw_sausage	1	Z	18	0	254	0		0	0	156.626947400044	156.726936600055
22901.75	0.0999949999968521	210	hunger	stimuli/non_foods\non-food_animate_frog.jpg	1	2	1	non-food_animate_frog	0	J	6	0	113	0		0	0	156.776944300043	156.87693930004
22939.25	0.0999587000114843	211	hunger	stimuli/foods\pickles.jpg	1	2	1	pickles	1	W	16	0	242	0		0	0	156.926943700004	157.026902400015
22976.75	0.0999939999892376	212	hunger	stimuli/non_foods\non-food_inanimate_guitar.jpg	1	2	1	non-food_inanimate_guitar	0	X	17	0	185	0		0	0	157.076937300037	157.176931300026
23014.25	0.0999713999917731	213	hunger	stimuli/foods\grilled_chicken_breast.jpg	1	2	1	grilled_chicken_breast	1	B	0	0	63	0		0	0	157.226949700038	157.32692110003
23051.75	0.0999856000416912	214	hunger	stimuli/non_foods\non-food_inanimate_skirt.jpg	1	2	1	non-food_inanimate_skirt	0	R	12	0	209	0		0	0	157.376935500011	157.476921100053
23089.25	0.0999896000139415	215	hunger	stimuli/non_foods\non-food_inanimate_orchid.jpg	1	2	1	non-food_inanimate_orchid	0	X	17	0	198	0		0	0	157.526932600013	157.626922200026
23126.75	0.0999870999949053	216	hunger	stimuli/foods\fruit_salad.jpg	1	2	1	fruit_salad	1	N	10	0	55	0		0	0	157.67693180003	157.776918900025
23164.25	0.0999862000462599	217	hunger	stimuli/non_foods\non-food_inanimate_bucket.jpg	1	2	1	non-food_inanimate_bucket	0	T	14	0	165	0		0	0	157.826933500008	157.926919700054
23201.75	0.0999826000188477	218	hunger	stimuli/non_foods\non-food_animate_squirrel.jpg	1	2	1	non-food_animate_squirrel	0	V	15	0	150	0		0	0	157.976930600009	158.076913200028
23239.25	0.0999873999971896	219	hunger	stimuli/non_foods\non-food_animate_duck.jpg	1	2	1	non-food_animate_duck	0	J	6	0	109	0		0	0	158.126925700053	158.22691310005
23276.75	0.100004000007175	220	hunger	stimuli/foods\toasted_bread_with_tomatoes.jpg	1	2	1	toasted_bread_with_tomatoes	1	H	5	0	275	0		0	0	158.276925800019	158.376929800026
23314.25	0.0999829000211321	221	hunger	stimuli/foods\spinach.jpg	1	2	1	spinach	1	S	13	0	268	0		0	0	158.426923000021	158.526905900042
23351.75	0.0999841000302695	222	hunger	stimuli/non_foods\non-food_inanimate_wrench.jpg	1	2	1	non-food_inanimate_wrench	0	X	17	0	227	0		0	0	158.576920400024	158.676904500055
23389.25	0.0999839000287466	223	hunger	stimuli/foods\clams.jpg	1	2	1	clams	1	F	3	0	32	0		0	0	158.726922800008	158.826906700036
23426.75	0.0999947999953292	224	hunger	stimuli/foods\oven-roasted_tomatoes.jpg	1	2	1	oven-roasted_tomatoes	1	R	12	0	232	0		0	0	158.876917400048	158.976912200043
23464.25	0.0999751000199467	225	hunger	stimuli/non_foods\non-food_animate_bee.jpg	1	2	1	non-food_animate_bee	0	C	1	0	95	0		0	0	159.026939100004	159.126914200024
23501.5	0.0999924999778159	226	hunger	stimuli/non_foods\non-food_inanimate_scissors.jpg	1	2	1	non-food_inanimate_scissors	0	M	9	0	205	0		0	0	159.17689630005	159.276888800028
23539	0.0999862999888137	227	hunger	stimuli/foods\spaghetti_with_meat_sauce.jpg	1	2	1	spaghetti_with_meat_sauce	1	L	8	0	267	0		0	0	159.326903700014	159.426890000002
23576.5	0.0999814000097103	228	hunger	stimuli/foods\brussel_sprouts.jpg	1	2	1	brussel_sprouts	1	S	13	0	15	0		0	0	159.476895600033	159.576877000043
23614	0.100011300004553	229	hunger	stimuli/non_foods\non-food_animate_ram.jpg	1	2	1	non-food_animate_ram	0	R	12	0	140	0		0	0	159.626879600051	159.726890900056
23651.75	0.0999858999857679	230	hunger	stimuli/foods\mussels.jpg	1	2	1	mussels	1	C	1	0	86	0		0	0	159.776907800057	159.876893700042
23689.25	0.0999701999826357	231	hunger	stimuli/foods\kiwi.jpg	1	2	1	kiwi	1	B	0	0	69	0		0	0	159.926904600055	160.026874800038
23726.75	0.0999855000409298	232	hunger	stimuli/foods\pasta_carbonara.jpg	1	2	1	pasta_carbonara	1	F	3	0	236	0		0	0	160.076902700006	160.176888200047
23764.25	0.0999587000114843	233	hunger	stimuli/foods\fruit_flan.jpg	1	2	1	fruit_flan	1	T	14	0	53	0		0	0	160.226904500043	160.326863200055
23801.5	0.0999805000028573	234	hunger	stimuli/foods\taco.jpg	1	2	1	taco	1	S	13	0	274	0		0	0	160.376889700012	160.476870200015
23839	0.0999833999667317	235	hunger	stimuli/non_foods\non-food_animate_porcupine.jpg	1	2	1	non-food_animate_porcupine	0	P	11	0	138	0		0	0	160.52689170005	160.626875100017
23876.5	0.100003300001845	236	hunger	stimuli/non_foods\non-food_inanimate_hammer.jpg	1	2	1	non-food_inanimate_hammer	0	L	8	0	186	0		0	0	160.676886800036	160.776890100038
23914.25	0.0999531000270508	237	hunger	stimuli/non_foods\non-food_inanimate_speakers.jpg	1	2	1	non-food_inanimate_speakers	0	F	3	0	212	0		0	0	160.826911800017	160.926864900044
23951.5	0.0999720999971032	238	hunger	stimuli/foods\pork_and_rice.jpg	1	2	1	pork_and_rice	1	L	8	0	245	0		0	0	160.976894600026	161.076866700023
23989	0.0999850000371225	239	hunger	stimuli/non_foods\non-food_inanimate_canoe.jpg	1	2	1	non-food_inanimate_canoe	0	N	10	0	170	0		0	0	161.126882200013	161.22686720005
24026.5	0.0999957000021823	240	hunger	stimuli/non_foods\non-food_animate_raccoon.jpg	1	2	1	non-food_animate_raccoon	0	S	13	0	139	0		0	0	161.2768774	161.376873100002
24064	0.100000599981286	241	hunger	stimuli/foods\avocado.jpg	1	2	1	avocado	1	X	17	0	5	0		0	0	161.42687200004	161.526872600021
24101.5	0.0999837999697775	242	hunger	stimuli/non_foods\non-food_inanimate_construction_helment.jpg	1	2	1	non-food_inanimate_construction_helment	0	K	7	0	175	0		0	0	161.576883700036	161.676867500006
24139	0.0999887000070885	243	hunger	stimuli/foods\fried_zucchini.jpg	1	2	1	fried_zucchini	1	S	13	0	51	0		0	0	161.72687850002	161.826867200027
24176.75	0.0999505000072531	244	hunger	stimuli/non_foods\non-food_animate_baby_sitting.jpg	1	2	1	non-food_animate_baby_sitting	0	V	15	0	93	0		0	0	161.876914500026	161.976865000033
24214	0.0999869000515901	245	hunger	stimuli/non_foods\non-food_inanimate_toy_airplane.jpg	1	2	1	non-food_inanimate_toy_airplane	0	J	6	0	222	0		0	0	162.026877800003	162.126864700054
24251.5	0.099981699953787	246	hunger	stimuli/foods\honey.jpg	1	2	1	honey	1	H	5	0	66	0		0	0	162.176881100051	162.276862800005
24289	0.0999867000500672	247	hunger	stimuli/foods\pancakes.jpg	1	2	1	pancakes	1	G	4	0	234	0		0	0	162.326872000005	162.426858700055
24326.5	0.0999967000097968	248	hunger	stimuli/non_foods\non-food_inanimate_table.jpg	1	2	1	non-food_inanimate_table	0	D	2	0	217	0		0	0	162.47687090002	162.57686760003
24364.25	0.099945200025104	249	hunger	stimuli/foods\meatballs.jpg	1	2	1	meatballs	1	K	7	0	81	0		0	0	162.626912100008	162.726857300033
24401.5	0.099974500015378	250	hunger	stimuli/non_foods\non-food_inanimate_socks.jpg	1	2	1	non-food_inanimate_socks	0	W	16	0	211	0		0	0	162.776866600034	162.876841100049
24439	0.0999913000268862	251	hunger	stimuli/non_foods\non-food_animate_alligator.jpg	1	2	1	non-food_animate_alligator	0	Z	18	0	90	0		0	0	162.926861600019	163.026852900046
24476.5	0.0999814000097103	252	hunger	stimuli/foods\nectarine.jpg	1	2	1	nectarine	1	K	7	0	87	0		0	0	163.076867300028	163.176848700037
24514	0.0999822000158019	253	hunger	stimuli/foods\donut.jpg	1	2	1	donut	1	G	4	0	44	0		0	0	163.226854800014	163.32683700003
24551.5	0.0999985000235029	254	hunger	stimuli/foods\cherry.jpg	1	2	1	cherry	1	R	12	0	23	0		0	0	163.37685250002	163.476851000043
24589	0.0999581000069156	255	hunger	stimuli/foods\salmon.jpg	1	2	1	salmon	1	T	14	0	264	0		0	0	163.52686110005	163.626819200057
24626.5	0.0999731000047177	256	hunger	stimuli/foods\peach.jpg	1	2	1	peach	1	V	15	0	238	0		0	0	163.676869200019	163.776842300023
24664	0.0999832999659702	257	hunger	stimuli/foods\lasagna.jpg	1	2	1	lasagna	1	M	9	0	71	0		0	0	163.826854500046	163.926837800012
24701.5	0.0999816000112332	258	hunger	stimuli/non_foods\non-food_inanimate_buds.jpg	1	2	1	non-food_inanimate_buds	0	Z	18	0	166	0		0	0	163.976854400011	164.076836000022
24739	0.0999866999918595	259	hunger	stimuli/non_foods\non-food_inanimate_desk.jpg	1	2	1	non-food_inanimate_desk	0	G	4	0	178	0		0	0	164.126851500012	164.226838200004
24776.5	0.100000499980524	260	hunger	stimuli/non_foods\non-food_animate_green_bug.jpg	1	2	1	non-food_animate_green_bug	0	W	16	0	118	0		0	0	164.276852400042	164.376852900023
24814	0.0999695000355132	261	hunger	stimuli/non_foods\non-food_inanimate_drum_set.jpg	1	2	1	non-food_inanimate_drum_set	0	P	11	0	179	0		0	0	164.426868700015	164.52683820005
24851.5	0.0999850000371225	262	hunger	stimuli/foods\raisins.jpg	1	2	1	raisins	1	K	7	0	252	0		0	0	164.576848299999	164.676833300036
24889	0.0999833999667317	263	hunger	stimuli/non_foods\non-food_inanimate_rack.jpg	1	2	1	non-food_inanimate_rack	0	M	9	0	202	0		0	0	164.726843600045	164.826827000012
24926.5	0.0999889000086114	264	hunger	stimuli/non_foods\non-food_inanimate_rope.jpg	1	2	1	non-food_inanimate_rope	0	S	13	0	204	0		0	0	164.876840500045	164.976829400053
24964	0.0999833000241779	265	hunger	stimuli/foods\potato_and_green_bean_salad.jpg	1	2	1	potato_and_green_bean_salad	1	L	8	0	246	0		0	0	165.026841600018	165.126824900042
25001.5	0.0999840999720618	266	hunger	stimuli/foods\cracker.jpg	1	2	1	cracker	1	T	14	0	38	0		0	0	165.176835700055	165.276819800027
25039	0.0999828999629244	267	hunger	stimuli/foods\minestrone_soup.jpg	1	2	1	minestrone_soup	1	H	5	0	82	0		0	0	165.32683840004	165.426821300003
25076.5	0.0999762999708764	268	hunger	stimuli/foods\mushroom.jpg	1	2	1	mushroom	1	A	19	1	85	0		0	0	165.476842700038	165.576819000009
25114	0.0999867999926209	269	hunger	stimuli/foods\green_beans.jpg	1	2	1	green_beans	1	B	0	0	61	0		0	0	165.626832500042	165.726819300035
25151.5	0.0999879000009969	270	hunger	stimuli/non_foods\non-food_animate_snail.jpg	1	2	1	non-food_animate_snail	0	M	9	0	149	0		0	0	165.776830400049	165.87681830005
25189	0.0999857999850065	271	hunger	stimuli/non_foods\non-food_inanimate_nailpolish.jpg	1	2	1	non-food_inanimate_nailpolish	0	R	12	0	195	0		0	0	165.926826300041	166.026812100026
25226.5	0.100010800000746	272	hunger	stimuli/non_foods\non-food_animate_clown.jpg	1	2	1	non-food_animate_clown	0	K	7	0	102	0		0	0	166.076830400038	166.176841200038
25264.25	0.0999515000148676	273	hunger	stimuli/foods\rockmelon.jpg	1	2	1	rockmelon	1	N	10	0	262	0		0	0	166.226862500014	166.326814000029
25301.5	0.0999754999647848	274	hunger	stimuli/non_foods\non-food_animate_yellow_bug.jpg	1	2	1	non-food_animate_yellow_bug	0	P	11	0	155	0		0	0	166.37682460004	166.476800100005
25339	0.0999866999918595	275	hunger	stimuli/foods\swordfish.jpg	1	2	1	swordfish	1	W	16	0	273	0		0	0	166.526820500032	166.626807200024
25376.5	0.0999833999667317	276	hunger	stimuli/foods\steak.jpg	1	2	1	steak	1	V	15	0	270	0		0	0	166.67681980005	166.776803200017
25414	0.099983699969016	277	hunger	stimuli/non_foods\non-food_animate_cheetah.jpg	1	2	1	non-food_animate_cheetah	0	S	13	0	100	0		0	0	166.826817500056	166.926801200025
25451.5	0.0999842000310309	278	hunger	stimuli/non_foods\non-food_animate_baby_crawling.jpg	1	2	1	non-food_animate_baby_crawling	0	D	2	0	92	0		0	0	166.976815800008	167.076800000039
25489	0.0999878000002354	279	hunger	stimuli/non_foods\non-food_animate_killer_whale.jpg	1	2	1	non-food_animate_killer_whale	0	R	12	0	123	0		0	0	167.126810300048	167.226798100048
26418.25	0.0999832000234164	280	hunger	stimuli/non_foods\non-food_animate_student_female.jpg	1	3	1	non-food_animate_student_female	0	D	2	0	151	0		0	0	170.843432700029	170.943415900052
26455.75	0.0999851999804378	281	hunger	stimuli/foods\ginger_root.jpg	1	3	1	ginger_root	1	P	11	0	57	0		0	0	170.993433300056	171.093418500037
26493.25	0.099995999946259	282	hunger	stimuli/non_foods\non-food_animate_iguana.jpg	1	3	1	non-food_animate_iguana	0	G	4	0	121	0		0	0	171.143430300057	171.243426300003
26530.75	0.0999768000328913	283	hunger	stimuli/foods\lime.jpg	1	3	1	lime	1	X	17	0	76	0		0	0	171.293436700013	171.393413500045
26568.25	0.0999809000059031	284	hunger	stimuli/non_foods\non-food_inanimate_briefcase.jpg	1	3	1	non-food_inanimate_briefcase	0	P	11	0	163	0		0	0	171.44342960004	171.543410500046
26605.75	0.0999828000203706	285	hunger	stimuli/foods\peas.jpg	1	3	1	peas	1	B	0	0	240	0		0	0	171.593424400024	171.693407200044
26643.25	0.0999912999686785	286	hunger	stimuli/foods\savory_pie.jpg	1	3	1	savory_pie	1	C	1	0	265	0		0	0	171.743422800035	171.843414100003
26680.75	0.0999627999844961	287	hunger	stimuli/foods\mussels.jpg	1	3	1	mussels	1	K	7	0	86	0		0	0	171.893444200046	171.993407000031
26718.25	0.0999805000028573	288	hunger	stimuli/foods\corncob.jpg	1	3	1	corncob	1	D	2	0	37	0		0	0	172.043422700022	172.143403200025
26755.75	0.0999871999956667	289	hunger	stimuli/foods\pea_pod.jpg	1	3	1	pea_pod	1	N	10	0	237	0		0	0	172.193417900009	172.293405100005
26793.25	0.0999815000104718	290	hunger	stimuli/foods\cupcake.jpg	1	3	1	cupcake	1	L	8	0	42	0		0	0	172.343417100026	172.443398600037
26830.75	0.0999822999583557	291	hunger	stimuli/non_foods\non-food_inanimate_chair.jpg	1	3	1	non-food_inanimate_chair	0	F	3	0	172	0		0	0	172.493416400044	172.593398700003
26868.25	0.0999824999598786	292	hunger	stimuli/non_foods\non-food_inanimate_lighter.jpg	1	3	1	non-food_inanimate_lighter	0	H	5	0	193	0		0	0	172.643407000054	172.743389500014
26905.75	0.0999822999583557	293	hunger	stimuli/foods\lollies.jpg	1	3	1	lollies	1	L	8	0	78	0		0	0	172.793403200048	172.893385500007
26943.25	0.0999976999592036	294	hunger	stimuli/non_foods\non-food_inanimate_stapler.jpg	1	3	1	non-food_inanimate_stapler	0	H	5	0	213	0		0	0	172.943399300042	173.043397000001
26980.75	0.0999759000260383	295	hunger	stimuli/non_foods\non-food_animate_young_girl.jpg	1	3	1	non-food_animate_young_girl	0	V	15	0	157	0		0	0	173.093414700008	173.193390600034
27018.25	0.0999881000025198	296	hunger	stimuli/foods\clams.jpg	1	3	1	clams	1	P	11	0	32	0		0	0	173.243403800006	173.343391900009
27055.75	0.0999818000127561	297	hunger	stimuli/non_foods\non-food_inanimate_bucket.jpg	1	3	1	non-food_inanimate_bucket	0	G	4	0	165	0		0	0	173.393405700044	173.493387500057
27093.25	0.100003799947444	298	hunger	stimuli/non_foods\non-food_animate_grasshopper.jpg	1	3	1	non-food_animate_grasshopper	0	K	7	0	117	0		0	0	173.543396700057	173.643400500005
27130.75	0.0999394999817014	299	hunger	stimuli/foods\green_beans.jpg	1	3	1	green_beans	1	S	13	0	61	0		0	0	173.693442700023	173.793382200005
27168.25	0.0999834999674931	300	hunger	stimuli/non_foods\non-food_inanimate_tent.jpg	1	3	1	non-food_inanimate_tent	0	Z	18	0	219	0		0	0	173.843396800046	173.943380300014
27205.75	0.0999872999964282	301	hunger	stimuli/foods\dates.jpg	1	3	1	dates	1	H	5	0	43	0		0	0	173.993390700023	174.09337800002
27243.25	0.0999826000188477	302	hunger	stimuli/foods\chocolate_pudding.jpg	1	3	1	chocolate_pudding	1	D	2	0	29	0		0	0	174.143392800004	174.243375400023
27280.75	0.0999849000363611	303	hunger	stimuli/non_foods\non-food_inanimate_bamboo.jpg	1	3	1	non-food_inanimate_bamboo	0	Z	18	0	159	0		0	0	174.293391000014	174.39337590005
27318.25	0.0999837000272237	304	hunger	stimuli/foods\cooked_ham.jpg	1	3	1	cooked_ham	1	M	9	0	35	0		0	0	174.443389500026	174.543373200053
27355.75	0.0999846999766305	305	hunger	stimuli/foods\cannoli.jpg	1	3	1	cannoli	1	J	6	0	17	0		0	0	174.59338960005	174.693374300026
27393.25	0.0999848999781534	306	hunger	stimuli/foods\omelette.jpg	1	3	1	omelette	1	W	16	0	228	0		0	0	174.743383500027	174.843368400005
27430.75	0.0999896000139415	307	hunger	stimuli/non_foods\non-food_animate_deer.jpg	1	3	1	non-food_animate_deer	0	J	6	0	105	0		0	0	174.893378400011	174.993368000025
27468.25	0.099985100037884	308	hunger	stimuli/foods\chocolate_pralines.jpg	1	3	1	chocolate_pralines	1	X	17	0	28	0		0	0	175.043381800002	175.14336690004
27505.75	0.0999832000234164	309	hunger	stimuli/non_foods\non-food_inanimate_fern.jpg	1	3	1	non-food_inanimate_fern	0	D	2	0	180	0		0	0	175.193378900003	175.293362100027
27543.25	0.0999854999827221	310	hunger	stimuli/non_foods\non-food_animate_polar_bear.jpg	1	3	1	non-food_animate_polar_bear	0	V	15	0	137	0		0	0	175.343377700017	175.4433632
27580.75	0.0999374000239186	311	hunger	stimuli/foods\brussel_sprouts.jpg	1	3	1	brussel_sprouts	1	F	3	0	15	0		0	0	175.49341950001	175.593356900034
27618.25	0.0999870999949053	312	hunger	stimuli/non_foods\non-food_animate_bee.jpg	1	3	1	non-food_animate_bee	0	Z	18	0	95	0		0	0	175.643371100014	175.743358200009
27655.75	0.0999863999895751	313	hunger	stimuli/foods\baked_cod_with_carrots_and_green_beans.jpg	1	3	1	baked_cod_with_carrots_and_green_beans	1	F	3	0	7	0		0	0	175.793373400054	175.893359800044
27693.25	0.0999845999758691	314	hunger	stimuli/foods\cereal.jpg	1	3	1	cereal	1	M	9	0	22	0		0	0	175.943368200038	176.043352800014
27730.75	0.0999837999697775	315	hunger	stimuli/foods\pear.jpg	1	3	1	pear	1	T	14	0	239	0		0	0	176.093359200051	176.193343000021
27768.25	0.0999822999583557	316	hunger	stimuli/non_foods\non-food_animate_baby_crawling.jpg	1	3	1	non-food_animate_baby_crawling	0	K	7	0	92	0		0	0	176.243370700045	176.343353000004
27805.75	0.100003200001083	317	hunger	stimuli/non_foods\non-food_inanimate_waterlily.jpg	1	3	1	non-food_inanimate_waterlily	0	G	4	0	226	0		0	0	176.393338400056	176.493341600057
27843.25	0.100002199993469	318	hunger	stimuli/foods\oven-roasted_tomatoes.jpg	1	3	1	oven-roasted_tomatoes	1	W	16	0	232	0		0	0	176.543347500032	176.643349700025
27880.75	0.099986599991098	319	hunger	stimuli/foods\radish.jpg	1	3	1	radish	1	V	15	0	251	0		0	0	176.693357300013	176.793343900004
27918.25	0.0999861999880522	320	hunger	stimuli/foods\kiwi.jpg	1	3	1	kiwi	1	Z	18	0	69	0		0	0	176.843357100035	176.943343300023
27955.75	0.0999798999982886	321	hunger	stimuli/foods\lentils.jpg	1	3	1	lentils	1	C	1	0	74	0		0	0	176.993358200009	177.093338100007
27993.25	0.100008599983994	322	hunger	stimuli/foods\museli_bars.jpg	1	3	1	museli_bars	1	W	16	0	84	0		0	0	177.143352200044	177.243360800028
28030.75	0.0999242999823764	323	hunger	stimuli/non_foods\non-food_inanimate_bowling_ball.jpg	1	3	1	non-food_inanimate_bowling_ball	0	T	14	0	162	0		0	0	177.29341470002	177.393339000002
28068.25	0.0999863999895751	324	hunger	stimuli/non_foods\non-food_animate_horse.jpg	1	3	1	non-food_animate_horse	0	G	4	0	119	0		0	0	177.443351200025	177.543337600015
28105.75	0.100009899993893	325	hunger	stimuli/foods\mango.jpg	1	3	1	mango	1	W	16	0	80	0		0	0	177.593323300011	177.693333200004
28143.25	0.0999657000065781	326	hunger	stimuli/foods\red_cabbage.jpg	1	3	1	red_cabbage	1	K	7	0	256	0		0	0	177.743365400005	177.843331100012
28180.75	0.0999838999705389	327	hunger	stimuli/foods\salmon.jpg	1	3	1	salmon	1	W	16	0	264	0		0	0	177.893343900039	177.99332780001
28218.25	0.099986000044737	328	hunger	stimuli/foods\pasta_carbonara.jpg	1	3	1	pasta_carbonara	1	H	5	0	236	0		0	0	178.043344200007	178.143330200051
28255.75	0.0999838999705389	329	hunger	stimuli/foods\garlic.jpg	1	3	1	garlic	1	U	23	1	56	0		0	0	178.193339000049	178.293322900019
28293.25	0.0999704000423662	330	hunger	stimuli/non_foods\non-food_animate_killer_whale.jpg	1	3	1	non-food_animate_killer_whale	0	B	0	0	123	0		0	0	178.343353600008	178.443324000051
28330.75	0.0999846999766305	331	hunger	stimuli/non_foods\non-food_animate_kangaroo.jpg	1	3	1	non-food_animate_kangaroo	0	J	6	0	122	0		0	0	178.493338300032	178.593323000008
28368.25	0.0999600000213832	332	hunger	stimuli/non_foods\non-food_animate_mouse.jpg	1	3	1	non-food_animate_mouse	0	P	11	0	131	0		0	0	178.643333000015	178.743293000036
28405.75	0.0999772999784909	333	hunger	stimuli/non_foods\non-food_animate_eagle.jpg	1	3	1	non-food_animate_eagle	0	V	15	0	110	0		0	0	178.793326000043	178.893303300021
28443.25	0.10002459998941	334	hunger	stimuli/non_foods\non-food_animate_squirrel.jpg	1	3	1	non-food_animate_squirrel	0	W	16	0	150	1	a	0.841795599961188	1	178.943311300012	179.043335900002
28480.75	0.0999566999962553	335	hunger	stimuli/non_foods\non-food_inanimate_folding_chair.jpg	1	3	1	non-food_inanimate_folding_chair	0	M	9	0	182	0		0	0	179.093355200021	179.193311900017
28518.25	0.0999883000040427	336	hunger	stimuli/non_foods\non-food_inanimate_protractor.jpg	1	3	1	non-food_inanimate_protractor	0	V	15	0	201	0		0	0	179.243326399999	179.343314700003
28555.75	0.0999848000355996	337	hunger	stimuli/non_foods\non-food_animate_sea_turtle.jpg	1	3	1	non-food_animate_sea_turtle	0	P	11	0	144	0		0	0	179.393325200013	179.493310000049
28593.25	0.0999869999941438	338	hunger	stimuli/foods\artichoke.jpg	1	3	1	artichoke	1	T	14	0	3	0		0	0	179.543325300037	179.643312300032
28630.75	0.0999823999591172	339	hunger	stimuli/foods\meatballs.jpg	1	3	1	meatballs	1	S	13	0	81	0		0	0	179.693324800057	179.793307200016
28668.25	0.099984799977392	340	hunger	stimuli/non_foods\non-food_inanimate_cap.jpg	1	3	1	non-food_inanimate_cap	0	D	2	0	171	0		0	0	179.843318100029	179.943302900007
28705.75	0.0999890000093728	341	hunger	stimuli/foods\oregano.jpg	1	3	1	oregano	1	J	6	0	231	0		0	0	179.993317200046	180.093306200055
28743.25	0.0999731000047177	342	hunger	stimuli/non_foods\non-food_inanimate_towel.jpg	1	3	1	non-food_inanimate_towel	0	R	12	0	221	0		0	0	180.143328000035	180.243301100039
28780.75	0.099990299961064	343	hunger	stimuli/foods\avocado.jpg	1	3	1	avocado	1	B	0	0	5	0		0	0	180.293312100053	180.393302400014
28818.25	0.0999846999766305	344	hunger	stimuli/foods\tomato.jpg	1	3	1	tomato	1	C	1	0	276	0		0	0	180.443312700023	180.5432974
28855.75	0.099971599993296	345	hunger	stimuli/foods\cracker.jpg	1	3	1	cracker	1	D	2	0	38	0		0	0	180.59330930002	180.693280900014
28893.25	0.0999802000005729	346	hunger	stimuli/foods\pork_and_rice.jpg	1	3	1	pork_and_rice	1	P	11	0	245	0		0	0	180.743316900043	180.843297100044
28930.75	0.0999605999677442	347	hunger	stimuli/non_foods\non-food_animate_porcupine.jpg	1	3	1	non-food_animate_porcupine	0	F	3	0	138	0		0	0	180.893323200056	180.993283800024
28968.25	0.0999829000211321	348	hunger	stimuli/non_foods\non-food_animate_owl.jpg	1	3	1	non-food_animate_owl	0	X	17	0	132	0		0	0	181.043306100008	181.143289000029
29005.75	0.0999712000484578	349	hunger	stimuli/foods\broccoli.jpg	1	3	1	broccoli	1	V	15	0	13	0		0	0	181.1933173	181.293288500048
29043.25	0.0999847000348382	350	hunger	stimuli/non_foods\non-food_inanimate_teddy_bear.jpg	1	3	1	non-food_inanimate_teddy_bear	0	W	16	0	218	0		0	0	181.343300400011	181.443285100046
29080.75	0.0999859999865294	351	hunger	stimuli/non_foods\non-food_inanimate_socks.jpg	1	3	1	non-food_inanimate_socks	0	G	4	0	211	0		0	0	181.493299300026	181.593285300012
29118.25	0.0999868999933824	352	hunger	stimuli/non_foods\non-food_animate_dragonfly.jpg	1	3	1	non-food_animate_dragonfly	0	C	1	0	108	0		0	0	181.643297400034	181.743284300028
29155.75	0.0999837999697775	353	hunger	stimuli/foods\orange.jpg	1	3	1	orange	1	K	7	0	230	0		0	0	181.79329500004	181.893278800009
29193.25	0.0999743000138551	354	hunger	stimuli/foods\toasted_bread_with_tomatoes.jpg	1	3	1	toasted_bread_with_tomatoes	1	T	14	0	275	0		0	0	181.94330600003	182.043280300044
29230.75	0.0999875999987125	355	hunger	stimuli/non_foods\non-food_inanimate_cupboard.jpg	1	3	1	non-food_inanimate_cupboard	0	G	4	0	177	0		0	0	182.093290600053	182.193278200051
29268.25	0.0999850000371225	356	hunger	stimuli/foods\rockmelon.jpg	1	3	1	rockmelon	1	P	11	0	262	0		0	0	182.243289100006	182.343274100043
29305.75	0.0999867999926209	357	hunger	stimuli/non_foods\non-food_inanimate_grass.jpg	1	3	1	non-food_inanimate_grass	0	F	3	0	184	0		0	0	182.393288400024	182.493275200017
29343.25	0.100002400053199	358	hunger	stimuli/non_foods\non-food_inanimate_cactus_pot_plant.jpg	1	3	1	non-food_inanimate_cactus_pot_plant	0	R	12	0	169	0		0	0	182.543290300004	182.643292700057
29380.75	0.0999521000194363	359	hunger	stimuli/non_foods\non-food_inanimate_moss.jpg	1	3	1	non-food_inanimate_moss	0	N	10	0	194	0		0	0	182.693317900004	182.793270000024
29418.25	0.0999834999674931	360	hunger	stimuli/non_foods\non-food_animate_Asian_man.jpg	1	3	1	non-food_animate_Asian_man	0	W	16	0	88	0		0	0	182.843282300048	182.943265800015
29455.75	0.0999881000025198	361	hunger	stimuli/foods\pineapple.jpg	1	3	1	pineapple	1	X	17	0	243	0		0	0	182.993276800029	183.093264900031
29493.25	0.0999891999526881	362	hunger	stimuli/non_foods\non-food_inanimate_chandelier.jpg	1	3	1	non-food_inanimate_chandelier	0	Z	18	0	173	0		0	0	183.143276200048	183.2432654
29530.75	0.0999848000355996	363	hunger	stimuli/foods\swordfish.jpg	1	3	1	swordfish	1	J	6	0	273	0		0	0	183.293275400007	183.393260200042
29568.25	0.0999870999949053	364	hunger	stimuli/non_foods\non-food_inanimate_highlighter.jpg	1	3	1	non-food_inanimate_highlighter	0	N	10	0	189	0		0	0	183.443272900011	183.543260000006
29605.75	0.0999601999646984	365	hunger	stimuli/non_foods\non-food_inanimate_hay.jpg	1	3	1	non-food_inanimate_hay	0	T	14	0	187	0		0	0	183.593273500039	183.693233700003
29643.25	0.0999676999635994	366	hunger	stimuli/foods\lamb_chops.jpg	1	3	1	lamb_chops	1	N	10	0	70	0		0	0	183.743280500057	183.843248200021
29680.75	0.0999842999735847	367	hunger	stimuli/non_foods\non-food_inanimate_tulip.jpg	1	3	1	non-food_inanimate_tulip	0	T	14	0	224	0		0	0	183.893261600053	183.993245900027
29718.25	0.0999899000162259	368	hunger	stimuli/non_foods\non-food_inanimate_guitar.jpg	1	3	1	non-food_inanimate_guitar	0	L	8	0	185	0		0	0	184.043253500015	184.143243400031
29755.75	0.0999909999663942	369	hunger	stimuli/non_foods\non-food_animate_woman.jpg	1	3	1	non-food_animate_woman	0	Z	18	0	154	0		0	0	184.193261600041	184.293252600008
29793.25	0.0999525999650359	370	hunger	stimuli/non_foods\non-food_inanimate_horn.jpg	1	3	1	non-food_inanimate_horn	0	C	1	0	190	0		0	0	184.343288800039	184.443241400004
29830.75	0.0999828999629244	371	hunger	stimuli/foods\gnocchi.jpg	1	3	1	gnocchi	1	N	10	0	58	0		0	0	184.493257100054	184.593240000017
29868.25	0.0999950999976136	372	hunger	stimuli/non_foods\non-food_inanimate_fire_extinguisher.jpg	1	3	1	non-food_inanimate_fire_extinguisher	0	M	9	0	181	0		0	0	184.643252800044	184.743247900042
29905.75	0.0999852000386454	373	hunger	stimuli/foods\lemon_meringue_pie.jpg	1	3	1	lemon_meringue_pie	1	R	12	0	73	0		0	0	184.793260000006	184.893245200044
29943.25	0.10000969999237	374	hunger	stimuli/foods\potatoes.jpg	1	3	1	potatoes	1	W	16	0	248	0		0	0	184.943232400052	185.043242100044
29980.75	0.0999791999929585	375	hunger	stimuli/non_foods\non-food_animate_cat.jpg	1	3	1	non-food_animate_cat	0	R	12	0	98	0		0	0	185.09325200005	185.193231200043
30018.25	0.0999846000340767	376	hunger	stimuli/foods\brownie.jpg	1	3	1	brownie	1	N	10	0	14	0		0	0	185.24325270002	185.343237300054
30055.75	0.100005400017835	377	hunger	stimuli/non_foods\non-food_inanimate_tree.jpg	1	3	1	non-food_inanimate_tree	0	X	17	0	223	0		0	0	185.393247800006	185.493253200024
30093.25	0.0999727000016719	378	hunger	stimuli/foods\cauliflower.jpg	1	3	1	cauliflower	1	L	8	0	20	0		0	0	185.543264900043	185.643237600045
30130.75	0.0999867999926209	379	hunger	stimuli/non_foods\non-food_inanimate_speakers.jpg	1	3	1	non-food_inanimate_speakers	0	X	17	0	212	0		0	0	185.693245100032	185.793231900025
30168.25	0.0999851999804378	380	hunger	stimuli/foods\almonds.jpg	1	3	1	almonds	1	P	11	0	0	0		0	0	185.843244200049	185.943229400029
30205.75	0.0999936999869533	381	hunger	stimuli/non_foods\non-food_inanimate_drum_set.jpg	1	3	1	non-food_inanimate_drum_set	0	J	6	0	179	0		0	0	185.993244500016	186.093238200003
30243.25	0.0999528000247665	382	hunger	stimuli/foods\fried_zucchini.jpg	1	3	1	fried_zucchini	1	W	16	0	51	0		0	0	186.143274200032	186.243227000057
30280.75	0.0999738000100479	383	hunger	stimuli/non_foods\non-food_inanimate_stoplight.jpg	1	3	1	non-food_inanimate_stoplight	0	F	3	0	214	0		0	0	186.293254000018	186.393227800028
30318.25	0.0999829000211321	384	hunger	stimuli/non_foods\non-food_animate_swan.jpg	1	3	1	non-food_animate_swan	0	P	11	0	152	0		0	0	186.443242400012	186.543225300033
30355.75	0.0999818000127561	385	hunger	stimuli/foods\strawberry.jpg	1	3	1	strawberry	1	J	6	0	272	0		0	0	186.593230700004	186.693212500017
30393.25	0.0999858999857679	386	hunger	stimuli/foods\minestrone_soup.jpg	1	3	1	minestrone_soup	1	P	11	0	82	0		0	0	186.743224400037	186.843210300023
30430.75	0.0999833000241779	387	hunger	stimuli/foods\eggplant.jpg	1	3	1	eggplant	1	M	9	0	46	0		0	0	186.893223999999	186.993207300024
30468.25	0.0999907999648713	388	hunger	stimuli/foods\pickles.jpg	1	3	1	pickles	1	G	4	0	242	0		0	0	187.043219700048	187.143210500013
30505.75	0.0999832999659702	389	hunger	stimuli/foods\peach.jpg	1	3	1	peach	1	D	2	0	238	0		0	0	187.193232400052	187.293215700018
30543.25	0.0999508999520913	390	hunger	stimuli/foods\pumpkin.jpg	1	3	1	pumpkin	1	I	21	1	250	0		0	0	187.343237300054	187.443188200006
30580.75	0.0999858999857679	391	hunger	stimuli/non_foods\non-food_inanimate_alarm_clock.jpg	1	3	1	non-food_inanimate_alarm_clock	0	S	13	0	158	0		0	0	187.493225400045	187.593211300031
30618.25	0.0999590000137687	392	hunger	stimuli/foods\red_beans.jpg	1	3	1	red_beans	1	Z	18	0	255	0		0	0	187.643220800033	187.743179800047
30655.75	0.10000640002545	393	hunger	stimuli/non_foods\non-food_inanimate_soccer_ball.jpg	1	3	1	non-food_inanimate_soccer_ball	0	R	12	0	210	0		0	0	187.793209900032	187.893216300057
30693.25	0.0999846000340767	394	hunger	stimuli/non_foods\non-food_inanimate_skateboard.jpg	1	3	1	non-food_inanimate_skateboard	0	Z	18	0	208	1	a	0.59331279998878	1	187.943220700021	188.043205300055
30730.75	0.0999852000386454	395	hunger	stimuli/foods\raw_ham.jpg	1	3	1	raw_ham	1	C	1	0	253	0		0	0	188.093217300018	188.193202500057
30768.25	0.0999902000185102	396	hunger	stimuli/non_foods\non-food_inanimate_toilet.jpg	1	3	1	non-food_inanimate_toilet	0	S	13	0	220	0		0	0	188.243214400019	188.343204600038
30805.75	0.0999875999987125	397	hunger	stimuli/non_foods\non-food_animate_alligator.jpg	1	3	1	non-food_animate_alligator	0	M	9	0	90	0		0	0	188.39321140002	188.493199000019
30843.25	0.0999893000116572	398	hunger	stimuli/non_foods\non-food_animate_llama.jpg	1	3	1	non-food_animate_llama	0	F	3	0	127	0		0	0	188.543210100033	188.643199400045
30880.75	0.0999858999857679	399	hunger	stimuli/foods\bagel.jpg	1	3	1	bagel	1	B	0	0	6	0		0	0	188.693209300051	188.793195200036
30918.25	0.0999807000043802	400	hunger	stimuli/non_foods\non-food_inanimate_short_sleeved_shirt.jpg	1	3	1	non-food_inanimate_short_sleeved_shirt	0	D	2	0	207	0		0	0	188.843205000041	188.943185700045
30955.75	0.0999868999933824	401	hunger	stimuli/foods\steak.jpg	1	3	1	steak	1	K	7	0	270	0		0	0	188.993198700016	189.09318560001
30993.25	0.0999706999864429	402	hunger	stimuli/foods\mushroom.jpg	1	3	1	mushroom	1	W	16	0	85	0		0	0	189.143208400055	189.243179100042
31030.75	0.099985699984245	403	hunger	stimuli/non_foods\non-food_animate_caterpillar.jpg	1	3	1	non-food_animate_caterpillar	0	C	1	0	99	0		0	0	189.293194000027	189.393179700011
31068.25	0.100000399979763	404	hunger	stimuli/foods\waffle.jpg	1	3	1	waffle	1	X	17	0	278	0		0	0	189.443186100048	189.543186500028
31105.75	0.0999959000037052	405	hunger	stimuli/non_foods\non-food_inanimate_construction_helment.jpg	1	3	1	non-food_inanimate_construction_helment	0	Z	18	0	175	0		0	0	189.593197100039	189.693193000043
31143.25	0.0999400999862701	406	hunger	stimuli/non_foods\non-food_animate_dachshund.jpg	1	3	1	non-food_animate_dachshund	0	R	12	0	104	0		0	0	189.743239300034	189.843179400021
31180.75	0.0999787000473589	407	hunger	stimuli/non_foods\non-food_animate_fox.jpg	1	3	1	non-food_animate_fox	0	G	4	0	112	0		0	0	189.893194500008	189.993173200055
31218.25	0.0999917999724858	408	hunger	stimuli/non_foods\non-food_inanimate_toy_airplane.jpg	1	3	1	non-food_inanimate_toy_airplane	0	D	2	0	222	0		0	0	190.043190200056	190.143182000029
31255.75	0.099971599993296	409	hunger	stimuli/foods\cherry.jpg	1	3	1	cherry	1	K	7	0	23	0		0	0	190.193207100034	190.293178700027
31293.25	0.099984799977392	410	hunger	stimuli/non_foods\non-food_inanimate_buds.jpg	1	3	1	non-food_inanimate_buds	0	C	1	0	166	0		0	0	190.343189400039	190.443174200016
31330.75	0.0999869999941438	411	hunger	stimuli/non_foods\non-food_inanimate_suitcase.jpg	1	3	1	non-food_inanimate_suitcase	0	V	15	0	215	0		0	0	190.493187300046	190.59317430004
31368.25	0.0999857999850065	412	hunger	stimuli/non_foods\non-food_inanimate_shell.jpg	1	3	1	non-food_inanimate_shell	0	H	5	0	206	0		0	0	190.643184700049	190.743170500034
31405.75	0.0999841000302695	413	hunger	stimuli/non_foods\non-food_animate_ant.jpg	1	3	1	non-food_animate_ant	0	F	3	0	91	0		0	0	190.793184600014	190.893168700044
31443.25	0.0999865000485443	414	hunger	stimuli/non_foods\non-food_animate_rhino.jpg	1	3	1	non-food_animate_rhino	0	J	6	0	141	0		0	0	190.943180600007	191.043167100055
31480.75	0.0999827000196092	415	hunger	stimuli/non_foods\non-food_inanimate_nailpolish.jpg	1	3	1	non-food_inanimate_nailpolish	0	C	1	0	195	0		0	0	191.093180400028	191.193163100048
31518.25	0.0999789999914356	416	hunger	stimuli/foods\smoked_ham.jpg	1	3	1	smoked_ham	1	T	14	0	266	0		0	0	191.24318020005	191.343159200042
31555.75	0.100012800015975	417	hunger	stimuli/non_foods\non-food_inanimate_nest.jpg	1	3	1	non-food_inanimate_nest	0	F	3	0	196	0		0	0	191.39317450003	191.493187300046
31593.25	0.0999378999695182	418	hunger	stimuli/non_foods\non-food_animate_bat.jpg	1	3	1	non-food_animate_bat	0	B	0	0	94	0		0	0	191.543220100051	191.643158000021
31630.75	0.0999870999949053	419	hunger	stimuli/non_foods\non-food_animate_peacock.jpg	1	3	1	non-food_animate_peacock	0	R	12	0	134	0		0	0	191.693171100051	191.793158200046
33585	0.0999710999894887	420	hunger	stimuli/foods\mandarin.jpg	1	4	1	mandarin	1	M	9	0	79	0		0	0	199.509757200023	199.609728300013
33622.5	0.0999483999912627	421	hunger	stimuli/non_foods\non-food_animate_snail.jpg	1	4	1	non-food_animate_snail	0	H	5	0	149	0		0	0	199.659765100048	199.75971350004
33660	0.0999943999922834	422	hunger	stimuli/non_foods\non-food_animate_frog.jpg	1	4	1	non-food_animate_frog	0	T	14	0	113	0		0	0	199.809730600042	199.909725000034
33697.5	0.0999971999553964	423	hunger	stimuli/non_foods\non-food_inanimate_padlock.jpg	1	4	1	non-food_inanimate_padlock	0	C	1	0	199	0		0	0	199.959720900049	200.059718100005
33735	0.0999853999819607	424	hunger	stimuli/non_foods\non-food_inanimate_bush.jpg	1	4	1	non-food_inanimate_bush	0	P	11	0	167	0		0	0	200.109732700046	200.209718100028
33772.5	0.0999853000394069	425	hunger	stimuli/foods\apricot.jpg	1	4	1	apricot	1	B	0	0	2	0		0	0	200.259732800012	200.359718100051
33810	0.0999814000097103	426	hunger	stimuli/non_foods\non-food_animate_gorilla.jpg	1	4	1	non-food_animate_gorilla	0	T	14	0	116	0		0	0	200.409729900013	200.509711300023
33847.5	0.0999832000234164	427	hunger	stimuli/non_foods\non-food_animate_duck.jpg	1	4	1	non-food_animate_duck	0	C	1	0	109	0		0	0	200.559727100015	200.659710300039
33885	0.0999937999877147	428	hunger	stimuli/non_foods\non-food_animate_yellow_bug.jpg	1	4	1	non-food_animate_yellow_bug	0	W	16	0	155	0		0	0	200.709726800036	200.809720600024
33922.5	0.0999851999804378	429	hunger	stimuli/foods\fries.jpg	1	4	1	fries	1	X	17	0	52	0		0	0	200.859723700036	200.959708900016
33960	0.0999846000340767	430	hunger	stimuli/foods\blackberry.jpg	1	4	1	blackberry	1	C	1	0	11	0		0	0	201.0097236	201.109708200034
33997.5	0.0999815000104718	431	hunger	stimuli/foods\cooked_prawn.jpg	1	4	1	cooked_prawn	1	G	4	0	36	0		0	0	201.159722700017	201.259704200027
34035	0.10000040003797	432	hunger	stimuli/foods\nectarine.jpg	1	4	1	nectarine	1	T	14	0	87	0		0	0	201.309719900019	201.409720300057
34072.5	0.099959300016053	433	hunger	stimuli/foods\pancakes.jpg	1	4	1	pancakes	1	R	12	0	234	0		0	0	201.459737900004	201.55969720002
34110	0.0999833000241779	434	hunger	stimuli/non_foods\non-food_animate_monkey.jpg	1	4	1	non-food_animate_monkey	0	V	15	0	130	0		0	0	201.609714600025	201.709697900049
34147.5	0.0999809000059031	435	hunger	stimuli/foods\fruit_salad.jpg	1	4	1	fruit_salad	1	D	2	0	55	0		0	0	201.759714500047	201.859695400053
34185	0.0999834000249393	436	hunger	stimuli/foods\onion.jpg	1	4	1	onion	1	B	0	0	229	0		0	0	201.909707600018	202.009691000043
34222.5	0.0999880000017583	437	hunger	stimuli/non_foods\non-food_animate_cheetah.jpg	1	4	1	non-food_animate_cheetah	0	S	13	0	100	0		0	0	202.059707500041	202.159695500042
34260	0.0999836000264622	438	hunger	stimuli/foods\chocolate_chip_cookies.jpg	1	4	1	chocolate_chip_cookies	1	G	4	0	27	0		0	0	202.209710200026	202.309693800053
34297.5	0.099990299961064	439	hunger	stimuli/non_foods\non-food_animate_mammoth.jpg	1	4	1	non-food_animate_mammoth	0	W	16	0	128	0		0	0	202.359703500057	202.459693800018
34335	0.0999893000116572	440	hunger	stimuli/non_foods\non-food_animate_tortoise.jpg	1	4	1	non-food_animate_tortoise	0	S	13	0	153	0		0	0	202.509706000041	202.609695300052
34372.5	0.0999850999796763	441	hunger	stimuli/non_foods\non-food_animate_clown.jpg	1	4	1	non-food_animate_clown	0	Z	18	0	102	0		0	0	202.659701100027	202.759686200006
34410	0.0999867999926209	442	hunger	stimuli/non_foods\non-food_animate_lion.jpg	1	4	1	non-food_animate_lion	0	F	3	0	125	0		0	0	202.809698400029	202.909685200022
34447.5	0.0999845999758691	443	hunger	stimuli/foods\egg.jpg	1	4	1	egg	1	D	2	0	45	0		0	0	202.959698600054	203.05968320003
34485	0.0999863999895751	444	hunger	stimuli/foods\stew_with_potatoes_and_carrots.jpg	1	4	1	stew_with_potatoes_and_carrots	1	W	16	0	271	0		0	0	203.109693100036	203.209679500025
34522.5	0.099941199994646	445	hunger	stimuli/non_foods\non-food_animate_ladybug.jpg	1	4	1	non-food_animate_ladybug	0	J	6	0	124	0		0	0	203.259739900008	203.359681100002
34560	0.0999835000257008	446	hunger	stimuli/foods\carrot.jpg	1	4	1	carrot	1	G	4	0	19	0		0	0	203.409693600028	203.509677100054
34597.5	0.100013099960051	447	hunger	stimuli/foods\frankfurter_and_provolone_salad.jpg	1	4	1	frankfurter_and_provolone_salad	1	B	0	0	49	0		0	0	203.559662200045	203.659675300005
34635	0.0999846999766305	448	hunger	stimuli/non_foods\non-food_animate_camel.jpg	1	4	1	non-food_animate_camel	0	T	14	0	97	0		0	0	203.709689400042	203.809674100019
34672.5	0.0999823999591172	449	hunger	stimuli/non_foods\non-food_animate_chicken.jpg	1	4	1	non-food_animate_chicken	0	B	0	0	101	0		0	0	203.859686800046	203.959669200005
34710	0.0999958000029437	450	hunger	stimuli/non_foods\non-food_animate_sea_lion.jpg	1	4	1	non-food_animate_sea_lion	0	C	1	0	143	0		0	0	204.009666700033	204.109662500035
34747.5	0.0999837000272237	451	hunger	stimuli/non_foods\non-food_inanimate_watering_can.jpg	1	4	1	non-food_inanimate_watering_can	0	G	4	0	225	0		0	0	204.159677600022	204.25966130005
34785	0.0999846000340767	452	hunger	stimuli/foods\cinnamon.jpg	1	4	1	cinnamon	1	D	2	0	30	0		0	0	204.309673100011	204.409657700045
34822.5	0.0999853999819607	453	hunger	stimuli/non_foods\non-food_animate_lizard.jpg	1	4	1	non-food_animate_lizard	0	K	7	0	126	0		0	0	204.459679200023	204.559664600005
34860	0.0999872999964282	454	hunger	stimuli/non_foods\non-food_inanimate_bed.jpg	1	4	1	non-food_inanimate_bed	0	F	3	0	160	0		0	0	204.609675600019	204.709662900015
34897.5	0.0999888000078499	455	hunger	stimuli/foods\beetroots.jpg	1	4	1	beetroots	1	H	5	0	10	0		0	0	204.759673400025	204.859662200033
34935	0.100005400017835	456	hunger	stimuli/non_foods\non-food_animate_young_boy.jpg	1	4	1	non-food_animate_young_boy	0	W	16	0	156	0		0	0	204.909675400006	205.009680800023
34972.5	0.099963300046511	457	hunger	stimuli/non_foods\non-food_inanimate_desk.jpg	1	4	1	non-food_inanimate_desk	0	B	0	0	178	0		0	0	205.059687600005	205.159650900052
35010	0.0999838999705389	458	hunger	stimuli/non_foods\non-food_animate_penguin.jpg	1	4	1	non-food_animate_penguin	0	M	9	0	135	0		0	0	205.209667600051	205.309651500022
35047.5	0.10001110000303	459	hunger	stimuli/foods\roasted_chicken.jpg	1	4	1	roasted_chicken	1	K	7	0	261	0		0	0	205.359659300011	205.459670400014
35085	0.0999831999652088	460	hunger	stimuli/non_foods\non-food_inanimate_wrench.jpg	1	4	1	non-food_inanimate_wrench	0	V	15	0	227	0		0	0	205.509659400035	205.6096426
35122.5	0.0999843999743462	461	hunger	stimuli/non_foods\non-food_inanimate_headphones.jpg	1	4	1	non-food_inanimate_headphones	0	H	5	0	188	0		0	0	205.659658800054	205.759643200028
35160	0.0999829000211321	462	hunger	stimuli/foods\banana.jpg	1	4	1	banana	1	C	1	0	9	0		0	0	205.809653200035	205.909636100056
35197.5	0.0999864999903366	463	hunger	stimuli/foods\rice_cake.jpg	1	4	1	rice_cake	1	R	12	0	258	0		0	0	205.959658700041	206.059645200032
35235	0.0999668000149541	464	hunger	stimuli/non_foods\non-food_inanimate_skirt.jpg	1	4	1	non-food_inanimate_skirt	0	G	4	0	209	0		0	0	206.109676100023	206.209642900038
35272.5	0.0999859999865294	465	hunger	stimuli/foods\chilli.jpg	1	4	1	chilli	1	D	2	0	25	0		0	0	206.259658200026	206.359644200013
35310	0.0999849999789149	466	hunger	stimuli/non_foods\non-food_inanimate_nettle.jpg	1	4	1	non-food_inanimate_nettle	0	N	10	0	197	0		0	0	206.409655300027	206.509640300006
35347.5	0.0999762999708764	467	hunger	stimuli/non_foods\non-food_inanimate_couch.jpg	1	4	1	non-food_inanimate_couch	0	Z	18	0	176	0		0	0	206.559652900032	206.659629200003
35385	0.0999741000123322	468	hunger	stimuli/foods\taco.jpg	1	4	1	taco	1	V	15	0	274	0		0	0	206.709654400009	206.809628500021
35422.5	0.0999628999852575	469	hunger	stimuli/foods\spring_onions.jpg	1	4	1	spring_onions	1	T	14	0	269	0		0	0	206.859663400042	206.959626300028
35460	0.0999845000333153	470	hunger	stimuli/non_foods\non-food_inanimate_ring.jpg	1	4	1	non-food_inanimate_ring	0	L	8	0	203	0		0	0	207.00964210002	207.109626600053
35497.5	0.0999881000025198	471	hunger	stimuli/foods\hamburger.jpg	1	4	1	hamburger	1	C	1	0	64	0		0	0	207.159635900054	207.259624000057
35535	0.0999822000158019	472	hunger	stimuli/non_foods\non-food_inanimate_rope.jpg	1	4	1	non-food_inanimate_rope	0	D	2	0	204	0		0	0	207.309638400038	207.409620600054
35572.5	0.0999840999720618	473	hunger	stimuli/non_foods\non-food_inanimate_orchid.jpg	1	4	1	non-food_inanimate_orchid	0	B	0	0	198	0		0	0	207.459635300038	207.55961940001
35610	0.0999832999659702	474	hunger	stimuli/non_foods\non-food_inanimate_leaf.jpg	1	4	1	non-food_inanimate_leaf	0	D	2	0	192	0		0	0	207.609633100044	207.70961640001
35647.5	0.0999880000017583	475	hunger	stimuli/foods\figs.jpg	1	4	1	figs	1	B	0	0	48	0		0	0	207.759631500056	207.859619500057
35685	0.0999805000028573	476	hunger	stimuli/non_foods\non-food_animate_butterfly.jpg	1	4	1	non-food_animate_butterfly	0	F	3	0	96	0		0	0	207.909643500054	208.009624000057
35722.5	0.0999861999880522	477	hunger	stimuli/foods\lemon.jpg	1	4	1	lemon	1	S	13	0	72	0		0	0	208.059638400038	208.159624600026
35760	0.0999868999933824	478	hunger	stimuli/foods\cream_donuts.jpg	1	4	1	cream_donuts	1	M	9	0	39	0		0	0	208.20963300002	208.309619900014
35797.5	0.0999835000257008	479	hunger	stimuli/non_foods\non-food_inanimate_canoe.jpg	1	4	1	non-food_inanimate_canoe	0	N	10	0	170	0		0	0	208.3596349	208.459618400026
35835	0.0999596999608912	480	hunger	stimuli/foods\green_olives.jpg	1	4	1	green_olives	1	H	5	0	62	0		0	0	208.509637500043	208.609597200004
35872.5	0.0999683000263758	481	hunger	stimuli/foods\fennel.jpg	1	4	1	fennel	1	E	20	1	47	0		0	0	208.659644900006	208.759613200033
35910	0.0999858000432141	482	hunger	stimuli/non_foods\non-food_inanimate_table.jpg	1	4	1	non-food_inanimate_table	0	C	1	0	217	0		0	0	208.80962700001	208.909612800053
35947.5	0.0999824000173248	483	hunger	stimuli/foods\raisins.jpg	1	4	1	raisins	1	P	11	0	252	0		0	0	208.959623600007	209.059606000024
35985	0.0999788999906741	484	hunger	stimuli/foods\fried_calamari.jpg	1	4	1	fried_calamari	1	R	12	0	50	0		0	0	209.109623700031	209.209602600022
36022.5	0.0999747999594547	485	hunger	stimuli/foods\honey.jpg	1	4	1	honey	1	V	15	0	66	0		0	0	209.25962310005	209.359597900009
36060	0.099986599991098	486	hunger	stimuli/non_foods\non-food_animate_pigeon.jpg	1	4	1	non-food_animate_pigeon	0	W	16	0	136	0		0	0	209.40960980003	209.509596400021
36097.5	0.0999857999850065	487	hunger	stimuli/foods\hazelnuts.jpg	1	4	1	hazelnuts	1	H	5	0	65	0		0	0	209.559607000032	209.659592800017
36135	0.0999613999738358	488	hunger	stimuli/foods\papaya.jpg	1	4	1	papaya	1	G	4	0	235	0		0	0	209.709628000041	209.809589400014
36172.5	0.0999979999614879	489	hunger	stimuli/foods\ice_cream.jpg	1	4	1	ice_cream	1	F	3	0	68	0		0	0	209.859603900055	209.959601900016
36210	0.0999723999993876	490	hunger	stimuli/non_foods\non-food_animate_baby_sitting.jpg	1	4	1	non-food_animate_baby_sitting	0	R	12	0	93	0		0	0	210.009595200012	210.109567600011
36247.5	0.0999844000325538	491	hunger	stimuli/foods\lasagna.jpg	1	4	1	lasagna	1	H	5	0	71	0		0	0	210.159601300023	210.259585700056
36285	0.0999509000102989	492	hunger	stimuli/non_foods\non-food_inanimate_bicycle.jpg	1	4	1	non-food_inanimate_bicycle	0	T	14	0	161	0		0	0	210.309635600017	210.409586500027
36322.5	0.0999894000124186	493	hunger	stimuli/foods\lettuce.jpg	1	4	1	lettuce	1	W	16	0	75	0		0	0	210.459589600039	210.559579000052
36360	0.099985699984245	494	hunger	stimuli/non_foods\non-food_animate_skunk.jpg	1	4	1	non-food_animate_skunk	0	R	12	0	147	0		0	0	210.609596300055	210.70958200004
36397.5	0.0999984000227414	495	hunger	stimuli/foods\cinnamon_sroll.jpg	1	4	1	cinnamon_sroll	1	V	15	0	31	0		0	0	210.759586800006	210.859585200029
36435	0.0999858999857679	496	hunger	stimuli/non_foods\non-food_animate_runner.jpg	1	4	1	non-food_animate_runner	0	E	20	1	142	0		0	0	210.909597000049	211.009582900035
36472.5	0.0999858999857679	497	hunger	stimuli/non_foods\non-food_animate_green_bug.jpg	1	4	1	non-food_animate_green_bug	0	P	11	0	118	0		0	0	211.059598400025	211.15958430001
36510	0.0999867000500672	498	hunger	stimuli/non_foods\non-food_animate_seal.jpg	1	4	1	non-food_animate_seal	0	M	9	0	146	0		0	0	211.209592500003	211.309579200053
36547.5	0.100001199985854	499	hunger	stimuli/non_foods\non-food_inanimate_broom.jpg	1	4	1	non-food_inanimate_broom	0	L	8	0	164	0		0	0	211.359593100031	211.459594300017
36585	0.0999757999670692	500	hunger	stimuli/foods\wafer.jpg	1	4	1	wafer	1	C	1	0	277	1	a	0.593207900004927	1	211.509600600053	211.60957640002
36622.5	0.0999879000009969	501	hunger	stimuli/non_foods\non-food_animate_raccoon.jpg	1	4	1	non-food_animate_raccoon	0	P	11	0	139	0		0	0	211.659589200048	211.759577100049
36660	0.0999884000048041	502	hunger	stimuli/foods\grapes.jpg	1	4	1	grapes	1	B	0	0	60	0		0	0	211.809585700044	211.909574100049
36697.5	0.0999923000345007	503	hunger	stimuli/non_foods\non-food_animate_hummingbird.jpg	1	4	1	non-food_animate_hummingbird	0	H	5	0	120	0		0	0	211.959586600016	212.059578900051
36735	0.0999874999979511	504	hunger	stimuli/non_foods\non-food_animate_dolphin.jpg	1	4	1	non-food_animate_dolphin	0	N	10	0	106	0		0	0	212.109597400005	212.209584900003
36772.5	0.0999843999743462	505	hunger	stimuli/foods\rice.jpg	1	4	1	rice	1	T	14	0	257	0		0	0	212.259581900027	212.359566300001
36810	0.0999939999892376	506	hunger	stimuli/foods\potato_and_green_bean_salad.jpg	1	4	1	potato_and_green_bean_salad	1	K	7	0	246	0		0	0	212.409571000026	212.509565000015
36847.25	0.099995199998375	507	hunger	stimuli/foods\coffee_beans.jpg	1	4	1	coffee_beans	1	S	13	0	34	0		0	0	212.559559400019	212.659554600017
36885	0.099981100007426	508	hunger	stimuli/foods\grapefruits.jpg	1	4	1	grapefruits	1	R	12	0	59	0		0	0	212.709571000014	212.809552100021
36922.5	0.0999837000272237	509	hunger	stimuli/foods\donut.jpg	1	4	1	donut	1	S	13	0	44	0		0	0	212.859569300024	212.959553000052
36960	0.0999885000055656	510	hunger	stimuli/foods\raw_sausage.jpg	1	4	1	raw_sausage	1	K	7	0	254	0		0	0	213.009563900006	213.109552400012
36997.5	0.099983699969016	511	hunger	stimuli/non_foods\non-food_animate_millipede.jpg	1	4	1	non-food_animate_millipede	0	V	15	0	129	0		0	0	213.159564800037	213.259548500006
37035	0.0999760999693535	512	hunger	stimuli/foods\spaghetti_with_meat_sauce.jpg	1	4	1	spaghetti_with_meat_sauce	1	M	9	0	267	0		0	0	213.309570800047	213.409546900017
37072.5	0.0999799999990501	513	hunger	stimuli/foods\potato_chips.jpg	1	4	1	potato_chips	1	B	0	0	247	0		0	0	213.459559400042	213.559539400041
37110	0.0999839000287466	514	hunger	stimuli/foods\chestnut.jpg	1	4	1	chestnut	1	P	11	0	24	0		0	0	213.609561600024	213.709545500053
37147.5	0.100001300044823	515	hunger	stimuli/foods\fruit_flan.jpg	1	4	1	fruit_flan	1	L	8	0	53	0		0	0	213.759556100005	213.85955740005
37185	0.099965900008101	516	hunger	stimuli/foods\celery.jpg	1	4	1	celery	1	M	9	0	21	0		0	0	213.909572000033	214.009537900041
37222.25	0.0999955000006594	517	hunger	stimuli/non_foods\non-food_animate_donkey.jpg	1	4	1	non-food_animate_donkey	0	T	14	0	107	0		0	0	214.05954430002	214.159539800021
37260	0.0999857999850065	518	hunger	stimuli/non_foods\non-food_inanimate_sun_flower.jpg	1	4	1	non-food_inanimate_sun_flower	0	H	5	0	216	0		0	0	214.209551600041	214.309537400026
37297.5	0.0999856000416912	519	hunger	stimuli/foods\capsicum.jpg	1	4	1	capsicum	1	C	1	0	18	0		0	0	214.359551000001	214.459536600043
37334.75	0.0999908000230789	520	hunger	stimuli/foods\chocolate_bar.jpg	1	4	1	chocolate_bar	1	N	10	0	26	0		0	0	214.509543900029	214.609534700052
37372.5	0.0999827000196092	521	hunger	stimuli/non_foods\non-food_inanimate_clover.jpg	1	4	1	non-food_inanimate_clover	0	G	4	0	174	0		0	0	214.659547100018	214.759529800038
37410	0.099985100037884	522	hunger	stimuli/foods\prawn.jpg	1	4	1	prawn	1	H	5	0	249	0		0	0	214.809543900017	214.909529000055
37447.25	0.100007399974857	523	hunger	stimuli/foods\cucumber.jpg	1	4	1	cucumber	1	M	9	0	41	0		0	0	214.959536800045	215.059544200019
37485	0.0999797999975272	524	hunger	stimuli/foods\mortadella.jpg	1	4	1	mortadella	1	Z	18	0	83	0		0	0	215.109552600014	215.209532400011
37522.5	0.100017399992794	525	hunger	stimuli/foods\watermelon.jpg	1	4	1	watermelon	1	V	15	0	279	0		0	0	215.259545100038	215.359562500031
37560	0.099985100037884	526	hunger	stimuli/non_foods\non-food_animate_Causasian_man.jpg	1	4	1	non-food_animate_Causasian_man	0	P	11	0	89	0		0	0	215.409545700008	215.509530800045
37597.5	0.0999980999622494	527	hunger	stimuli/foods\salami.jpg	1	4	1	salami	1	Z	18	0	263	0		0	0	215.559540900053	215.659539000015
37635	0.0999420000007376	528	hunger	stimuli/foods\baked_lamb_with_potatoes.jpg	1	4	1	baked_lamb_with_potatoes	1	D	2	0	8	0		0	0	215.709585100005	215.809527100006
37672.5	0.0999717999948189	529	hunger	stimuli/non_foods\non-food_animate_german_shepherd.jpg	1	4	1	non-food_animate_german_shepherd	0	A	19	1	114	0		0	0	215.859540300036	215.959512100031
37710	0.0999851999804378	530	hunger	stimuli/foods\cabbage.jpg	1	4	1	cabbage	1	X	17	0	16	0		0	0	216.009535600024	216.109520800004
37747.5	0.0999826999614015	531	hunger	stimuli/foods\pomegranate.jpg	1	4	1	pomegranate	1	V	15	0	244	0		0	0	216.159535700048	216.259518400009
37785	0.0999860999872908	532	hunger	stimuli/foods\grilled_chicken_breast.jpg	1	4	1	grilled_chicken_breast	1	R	12	0	63	1	a	0.443228300020564	1	216.309532000043	216.40951810003
37822.5	0.0999878000002354	533	hunger	stimuli/non_foods\non-food_inanimate_scissors.jpg	1	4	1	non-food_inanimate_scissors	0	J	6	0	205	0		0	0	216.459529500047	216.559517300047
37860	0.0999834000249393	534	hunger	stimuli/non_foods\non-food_animate_ram.jpg	1	4	1	non-food_animate_ram	0	L	8	0	140	0		0	0	216.609528800007	216.709512200032
37897.5	0.0999863999895751	535	hunger	stimuli/non_foods\non-food_animate_slug.jpg	1	4	1	non-food_animate_slug	0	N	10	0	148	0		0	0	216.75952610001	216.859512499999
37935	0.0999576000031084	536	hunger	stimuli/foods\pepperoni_pizza.jpg	1	4	1	pepperoni_pizza	1	C	1	0	241	0		0	0	216.909551700053	217.009509300056
37972.5	0.0999862999888137	537	hunger	stimuli/foods\croissant.jpg	1	4	1	croissant	1	S	13	0	40	0		0	0	217.059522900032	217.159509200021
38009.75	0.0999893000116572	538	hunger	stimuli/non_foods\non-food_animate_parrot.jpg	1	4	1	non-food_animate_parrot	0	V	15	0	133	0		0	0	217.209518100019	217.30950740003
38047.5	0.0999642999959178	539	hunger	stimuli/non_foods\non-food_inanimate_gloves.jpg	1	4	1	non-food_inanimate_gloves	0	J	6	0	183	0		0	0	217.359519600053	217.459483900049
38085	0.0999334999942221	540	hunger	stimuli/non_foods\non-food_animate_elephant.jpg	1	4	1	non-food_animate_elephant	0	M	9	0	111	0		0	0	217.509545600042	217.609479100036
38122.25	0.0999869999941438	541	hunger	stimuli/non_foods\non-food_animate_giraffe.jpg	1	4	1	non-food_animate_giraffe	0	B	0	0	115	0		0	0	217.659515300009	217.759502300003
38159.75	0.0999898000154644	542	hunger	stimuli/foods\risotto_with_zucchini.jpg	1	4	1	risotto_with_zucchini	1	S	13	0	260	0		0	0	217.809512500011	217.909502300026
38197.5	0.0999855999834836	543	hunger	stimuli/foods\linguine_with_clams.jpg	1	4	1	linguine_with_clams	1	V	15	0	77	0		0	0	217.959513600043	218.059499200026
38234.75	0.0999919999740086	544	hunger	stimuli/non_foods\non-food_animate_cow.jpg	1	4	1	non-food_animate_cow	0	Z	18	0	103	0		0	0	218.109509600035	218.209501600009
38272.25	0.0999832999659702	545	hunger	stimuli/foods\asparagus.jpg	1	4	1	asparagus	1	D	2	0	4	0		0	0	218.259507900046	218.359491200012
38309.75	0.0999782000435516	546	hunger	stimuli/foods\oyster.jpg	1	4	1	oyster	1	Z	18	0	233	0		0	0	218.409506700002	218.509484900045
38347.25	0.0999882000032812	547	hunger	stimuli/non_foods\non-food_inanimate_rack.jpg	1	4	1	non-food_inanimate_rack	0	P	11	0	202	0		0	0	218.559493500041	218.659481700044
38384.75	0.0999878000002354	548	hunger	stimuli/foods\hotdog.jpg	1	4	1	hotdog	1	D	2	0	67	0		0	0	218.709494200011	218.809482000011
38422.25	0.0999825000180863	549	hunger	stimuli/non_foods\non-food_inanimate_pine_cone.jpg	1	4	1	non-food_inanimate_pine_cone	0	L	8	0	200	0		0	0	218.859486400033	218.959468900051
38459.75	0.100011200003792	550	hunger	stimuli/non_foods\non-food_inanimate_button.jpg	1	4	1	non-food_inanimate_button	0	S	13	0	168	0		0	0	219.009470700053	219.109481900057
38497.25	0.100021000020206	551	hunger	stimuli/foods\spinach.jpg	1	4	1	spinach	1	X	17	0	268	0		0	0	219.159494600026	219.259515600046
38535	0.099938600033056	552	hunger	stimuli/non_foods\non-food_animate_seahorse.jpg	1	4	1	non-food_animate_seahorse	0	L	8	0	145	0		0	0	219.309544600022	219.409483200056
38572.25	0.099984799977392	553	hunger	stimuli/non_foods\non-food_inanimate_hammer.jpg	1	4	1	non-food_inanimate_hammer	0	X	17	0	186	0		0	0	219.459492400056	219.559477200033
38609.75	0.0999827000196092	554	hunger	stimuli/non_foods\non-food_inanimate_jeans.jpg	1	4	1	non-food_inanimate_jeans	0	N	10	0	191	0		0	0	219.60949230002	219.70947500004
38647.25	0.0999817000119947	555	hunger	stimuli/foods\fruit_pie.jpg	1	4	1	fruit_pie	1	W	16	0	54	0		0	0	219.759491200035	219.859472900047
38684.75	0.0999860999872908	556	hunger	stimuli/foods\risotto_with_peas_and_asparagus_tips.jpg	1	4	1	risotto_with_peas_and_asparagus_tips	1	X	17	0	259	0		0	0	219.909487100027	220.009473200014
38722.25	0.0999633999890648	557	hunger	stimuli/foods\brie.jpg	1	4	1	brie	1	J	6	0	12	0		0	0	220.059490500018	220.159453900007
38759.75	0.100006700027734	558	hunger	stimuli/foods\coconut.jpg	1	4	1	coconut	1	K	7	0	33	0		0	0	220.209464100015	220.309470800043
38797.5	0.0999851999804378	559	hunger	stimuli/foods\apple.jpg	1	4	1	apple	1	J	6	0	1	0		0	0	220.359485500026	220.459470700007
39947.25	0.099974500015378	560	hunger	stimuli/foods\nectarine.jpg	1	5	1	nectarine	1	V	15	0	87	0		0	0	224.959433900018	225.059408400033
39984.75	0.0999825999606401	561	hunger	stimuli/foods\pickles.jpg	1	5	1	pickles	1	P	11	0	242	0		0	0	225.109426700044	225.209409300005
40022.25	0.0999793999944814	562	hunger	stimuli/foods\potatoes.jpg	1	5	1	potatoes	1	F	3	0	248	0		0	0	225.259425000055	225.359404400049
40059.75	0.100016599986702	563	hunger	stimuli/non_foods\non-food_animate_cow.jpg	1	5	1	non-food_animate_cow	0	R	12	0	103	0		0	0	225.40941870003	225.509435300017
40097.25	0.0999894000124186	564	hunger	stimuli/non_foods\non-food_animate_seal.jpg	1	5	1	non-food_animate_seal	0	V	15	0	146	0		0	0	225.559413900017	225.659403300029
40134.75	0.0999782999861054	565	hunger	stimuli/foods\lemon.jpg	1	5	1	lemon	1	D	2	0	72	0		0	0	225.709418000013	225.809396299999
40172.25	0.0999926999793388	566	hunger	stimuli/non_foods\non-food_animate_gorilla.jpg	1	5	1	non-food_animate_gorilla	0	H	5	0	116	0		0	0	225.859411800047	225.959404500027
40209.75	0.0999796000542119	567	hunger	stimuli/foods\chestnut.jpg	1	5	1	chestnut	1	P	11	0	24	0		0	0	226.009418000001	226.109397600056
40247.25	0.0999854999827221	568	hunger	stimuli/foods\asparagus.jpg	1	5	1	asparagus	1	B	0	0	4	0		0	0	226.159409800021	226.259395300003
40284.75	0.0999880000017583	569	hunger	stimuli/non_foods\non-food_inanimate_alarm_clock.jpg	1	5	1	non-food_inanimate_alarm_clock	0	R	12	0	158	0		0	0	226.309407300025	226.409395300027
40322.25	0.0999823999591172	570	hunger	stimuli/non_foods\non-food_inanimate_chair.jpg	1	5	1	non-food_inanimate_chair	0	L	8	0	172	0		0	0	226.459407900053	226.559390300012
40359.75	0.0999621999799274	571	hunger	stimuli/foods\mussels.jpg	1	5	1	mussels	1	X	17	0	86	0		0	0	226.609426300041	226.709388500021
40397.25	0.0999844000325538	572	hunger	stimuli/non_foods\non-food_inanimate_padlock.jpg	1	5	1	non-food_inanimate_padlock	0	B	0	0	199	0		0	0	226.759405700024	226.859390100057
40434.75	0.0999884999473579	573	hunger	stimuli/non_foods\non-food_inanimate_fire_extinguisher.jpg	1	5	1	non-food_inanimate_fire_extinguisher	0	G	4	0	181	0		0	0	226.909398900054	227.009387400001
40472.25	0.0999862999888137	574	hunger	stimuli/non_foods\non-food_inanimate_drum_set.jpg	1	5	1	non-food_inanimate_drum_set	0	C	1	0	179	0		0	0	227.059397900011	227.1593842
40509.75	0.100008699984755	575	hunger	stimuli/non_foods\non-food_animate_slug.jpg	1	5	1	non-food_animate_slug	0	K	7	0	148	0		0	0	227.209399400046	227.309408100031
40547.25	0.0999613999738358	576	hunger	stimuli/non_foods\non-food_inanimate_toy_airplane.jpg	1	5	1	non-food_inanimate_toy_airplane	0	W	16	0	222	0		0	0	227.359409000026	227.4593704
40584.75	0.0999716999940574	577	hunger	stimuli/non_foods\non-food_inanimate_jeans.jpg	1	5	1	non-food_inanimate_jeans	0	J	6	0	191	0		0	0	227.509388300008	227.609360000002
40622.25	0.0999748000176623	578	hunger	stimuli/non_foods\non-food_inanimate_canoe.jpg	1	5	1	non-food_inanimate_canoe	0	M	9	0	170	0		0	0	227.659392300004	227.759367100021
40659.75	0.0999836000264622	579	hunger	stimuli/non_foods\non-food_animate_young_girl.jpg	1	5	1	non-food_animate_young_girl	0	L	8	0	157	0		0	0	227.809384100023	227.909367700049
40697.25	0.099986599991098	580	hunger	stimuli/non_foods\non-food_animate_baby_crawling.jpg	1	5	1	non-food_animate_baby_crawling	0	T	14	0	92	0		0	0	227.959384000045	228.059370600036
40734.75	0.0999808000051416	581	hunger	stimuli/non_foods\non-food_animate_runner.jpg	1	5	1	non-food_animate_runner	0	F	3	0	142	0		0	0	228.109380800044	228.209361600049
40772.25	0.099978199985344	582	hunger	stimuli/foods\salami.jpg	1	5	1	salami	1	V	15	0	263	0		0	0	228.259375800029	228.359354000015
40809.75	0.0999832999659702	583	hunger	stimuli/foods\carrot.jpg	1	5	1	carrot	1	G	4	0	19	0		0	0	228.409375100047	228.509358400013
40847.25	0.0999871999956667	584	hunger	stimuli/non_foods\non-food_inanimate_hay.jpg	1	5	1	non-food_inanimate_hay	0	M	9	0	187	0		0	0	228.559370000032	228.659357200027
40884.75	0.0999864999903366	585	hunger	stimuli/foods\risotto_with_peas_and_asparagus_tips.jpg	1	5	1	risotto_with_peas_and_asparagus_tips	1	I	21	1	259	0		0	0	228.709372600017	228.809359100007
40922.25	0.0999832000234164	586	hunger	stimuli/foods\smoked_ham.jpg	1	5	1	smoked_ham	1	P	11	0	266	0		0	0	228.859371200029	228.959354400053
40959.75	0.0999784999876283	587	hunger	stimuli/foods\rice_cake.jpg	1	5	1	rice_cake	1	J	6	0	258	0		0	0	229.009379400057	229.109357900044
40997.25	0.0999654000042938	588	hunger	stimuli/non_foods\non-food_animate_pigeon.jpg	1	5	1	non-food_animate_pigeon	0	H	5	0	136	1	a	0.541840700025205	1	229.159385400009	229.259350800014
41034.75	0.0999854999827221	589	hunger	stimuli/non_foods\non-food_inanimate_orchid.jpg	1	5	1	non-food_inanimate_orchid	0	S	13	0	198	0		0	0	229.309364200046	229.409349700029
41072.25	0.0999834999674931	590	hunger	stimuli/non_foods\non-food_animate_Asian_man.jpg	1	5	1	non-food_animate_Asian_man	0	D	2	0	88	0		0	0	229.459367800038	229.559351300006
41109.75	0.0999827000196092	591	hunger	stimuli/non_foods\non-food_animate_cat.jpg	1	5	1	non-food_animate_cat	0	B	0	0	98	0		0	0	229.609361200011	229.709343900031
41147.25	0.0999953999998979	592	hunger	stimuli/foods\brussel_sprouts.jpg	1	5	1	brussel_sprouts	1	D	2	0	15	0		0	0	229.759358700016	229.859354100015
41184.75	0.0999563000514172	593	hunger	stimuli/non_foods\non-food_inanimate_nailpolish.jpg	1	5	1	non-food_inanimate_nailpolish	0	C	1	0	195	0		0	0	229.909368799999	230.009325100051
41222.25	0.0999890000093728	594	hunger	stimuli/foods\pepperoni_pizza.jpg	1	5	1	pepperoni_pizza	1	Z	18	0	241	0		0	0	230.059360200015	230.159349200025
41259.75	0.0999875999987125	595	hunger	stimuli/non_foods\non-food_animate_millipede.jpg	1	5	1	non-food_animate_millipede	0	P	11	0	129	0		0	0	230.209359500033	230.309347100032
41297.25	0.0999868999933824	596	hunger	stimuli/foods\clams.jpg	1	5	1	clams	1	V	15	0	32	0		0	0	230.359358400048	230.459345300042
41334.75	0.0999780000420287	597	hunger	stimuli/foods\pea_pod.jpg	1	5	1	pea_pod	1	W	16	0	237	0		0	0	230.509357100003	230.609335100045
41372.25	0.0999862999888137	598	hunger	stimuli/foods\omelette.jpg	1	5	1	omelette	1	D	2	0	228	0		0	0	230.659355600015	230.759341900004
41409.75	0.099994299991522	599	hunger	stimuli/foods\potato_chips.jpg	1	5	1	potato_chips	1	S	13	0	247	0		0	0	230.809367900016	230.909362200007
41447.25	0.0999531999696046	600	hunger	stimuli/non_foods\non-food_animate_frog.jpg	1	5	1	non-food_animate_frog	0	F	3	0	113	0		0	0	230.959383100038	231.059336300008
41484.75	0.0999740000115708	601	hunger	stimuli/non_foods\non-food_animate_ram.jpg	1	5	1	non-food_animate_ram	0	D	2	0	140	0		0	0	231.109352700005	231.209326700016
41522.25	0.0999849999789149	602	hunger	stimuli/non_foods\non-food_animate_raccoon.jpg	1	5	1	non-food_animate_raccoon	0	M	9	0	139	0		0	0	231.259352300025	231.359337300004
41559.75	0.0999871999956667	603	hunger	stimuli/foods\cooked_ham.jpg	1	5	1	cooked_ham	1	P	11	0	35	0		0	0	231.409344200045	231.509331400041
41597.25	0.0999662999529392	604	hunger	stimuli/non_foods\non-food_animate_clown.jpg	1	5	1	non-food_animate_clown	0	K	7	0	102	0		0	0	231.559364300047	231.6593306
41634.75	0.0999848000355996	605	hunger	stimuli/foods\cannoli.jpg	1	5	1	cannoli	1	D	2	0	17	0		0	0	231.709340600006	231.809325400041
41672.25	0.0999984999652952	606	hunger	stimuli/non_foods\non-food_animate_llama.jpg	1	5	1	non-food_animate_llama	0	E	20	1	127	0		0	0	231.859343200049	231.959341700014
41709.75	0.0999828999629244	607	hunger	stimuli/non_foods\non-food_animate_horse.jpg	1	5	1	non-food_animate_horse	0	R	12	0	119	0		0	0	232.009340800054	232.109323700017
41747.25	0.0999918000306934	608	hunger	stimuli/non_foods\non-food_animate_giraffe.jpg	1	5	1	non-food_animate_giraffe	0	H	5	0	115	0		0	0	232.159330900002	232.259322700032
41784.75	0.0999828000203706	609	hunger	stimuli/foods\prawn.jpg	1	5	1	prawn	1	V	15	0	249	0		0	0	232.309338600026	232.409321400046
41822.25	0.0999763999716379	610	hunger	stimuli/non_foods\non-food_inanimate_teddy_bear.jpg	1	5	1	non-food_inanimate_teddy_bear	0	H	5	0	218	0		0	0	232.459331400052	232.559307800024
41859.75	0.0999595000175759	611	hunger	stimuli/foods\pear.jpg	1	5	1	pear	1	R	12	0	239	0		0	0	232.609361400013	232.70932090003
41897.25	0.0999803000013344	612	hunger	stimuli/non_foods\non-food_inanimate_fern.jpg	1	5	1	non-food_inanimate_fern	0	K	7	0	180	0		0	0	232.759336900024	232.859317200026
41934.75	0.100008699984755	613	hunger	stimuli/foods\apricot.jpg	1	5	1	apricot	1	L	8	0	2	0		0	0	232.909306800051	233.009315500036
41972.25	0.0999857999850065	614	hunger	stimuli/non_foods\non-food_inanimate_rope.jpg	1	5	1	non-food_inanimate_rope	0	H	5	0	204	0		0	0	233.059325400041	233.159311200026
42009.75	0.099988600006327	615	hunger	stimuli/non_foods\non-food_animate_fox.jpg	1	5	1	non-food_animate_fox	0	C	1	0	112	0		0	0	233.209317600005	233.309306200012
42047.25	0.099985100037884	616	hunger	stimuli/non_foods\non-food_inanimate_highlighter.jpg	1	5	1	non-food_inanimate_highlighter	0	M	9	0	189	0		0	0	233.359323200013	233.459308300051
42084.75	0.0999762000283226	617	hunger	stimuli/foods\risotto_with_zucchini.jpg	1	5	1	risotto_with_zucchini	1	R	12	0	260	0		0	0	233.509320600017	233.609296800045
42122.25	0.100003500003368	618	hunger	stimuli/foods\brownie.jpg	1	5	1	brownie	1	C	1	0	14	0		0	0	233.659319000028	233.759322500031
42159.75	0.0999921000329778	619	hunger	stimuli/non_foods\non-food_animate_polar_bear.jpg	1	5	1	non-food_animate_polar_bear	0	Z	18	0	137	0		0	0	233.809320600005	233.909312700038
42197.25	0.0999729000031948	620	hunger	stimuli/non_foods\non-food_inanimate_nest.jpg	1	5	1	non-food_inanimate_nest	0	B	0	0	196	0		0	0	233.959298200032	234.059271100035
42234.75	0.0999880000017583	621	hunger	stimuli/non_foods\non-food_animate_woman.jpg	1	5	1	non-food_animate_woman	0	D	2	0	154	0		0	0	234.109310800035	234.209298800037
42272.25	0.0999849000363611	622	hunger	stimuli/foods\fennel.jpg	1	5	1	fennel	1	M	9	0	47	0		0	0	234.259313200018	234.359298100055
42309.75	0.0999209000146948	623	hunger	stimuli/foods\beetroots.jpg	1	5	1	beetroots	1	X	17	0	10	0		0	0	234.40937020001	234.509291100025
42347.25	0.0999706999864429	624	hunger	stimuli/foods\grapefruits.jpg	1	5	1	grapefruits	1	V	15	0	59	0		0	0	234.559322100016	234.659292800003
42384.75	0.0999837999697775	625	hunger	stimuli/foods\fruit_salad.jpg	1	5	1	fruit_salad	1	C	1	0	55	0		0	0	234.709306500037	234.809290300007
42422.25	0.0999969000113197	626	hunger	stimuli/foods\figs.jpg	1	5	1	figs	1	G	4	0	48	0		0	0	234.859294700029	234.95929160004
42459.75	0.0999842000310309	627	hunger	stimuli/foods\peach.jpg	1	5	1	peach	1	H	5	0	238	0		0	0	235.009303800005	235.109288000036
42497.25	0.099987699999474	628	hunger	stimuli/non_foods\non-food_animate_monkey.jpg	1	5	1	non-food_animate_monkey	0	P	11	0	130	0		0	0	235.159297500039	235.259285200038
42534.75	0.10000489995582	629	hunger	stimuli/foods\green_beans.jpg	1	5	1	green_beans	1	B	0	0	61	0		0	0	235.309280300047	235.409285200003
42572.25	0.099968499969691	630	hunger	stimuli/foods\bagel.jpg	1	5	1	bagel	1	K	7	0	6	0		0	0	235.459298600035	235.559267100005
42609.75	0.100005000014789	631	hunger	stimuli/foods\spaghetti_with_meat_sauce.jpg	1	5	1	spaghetti_with_meat_sauce	1	N	10	0	267	0		0	0	235.609291000001	235.709296000015
42647.25	0.0999862000462599	632	hunger	stimuli/foods\salmon.jpg	1	5	1	salmon	1	V	15	0	264	0		0	0	235.759289100009	235.859275300056
42684.75	0.0999890000093728	633	hunger	stimuli/foods\cream_donuts.jpg	1	5	1	cream_donuts	1	F	3	0	39	0		0	0	235.909283200046	236.009272200055
42722.25	0.100001299986616	634	hunger	stimuli/non_foods\non-food_inanimate_cactus_pot_plant.jpg	1	5	1	non-food_inanimate_cactus_pot_plant	0	W	16	0	169	0		0	0	236.059280800051	236.159282100038
42759.75	0.0999721999978647	635	hunger	stimuli/foods\cereal.jpg	1	5	1	cereal	1	N	10	0	22	0		0	0	236.209302000003	236.309274200001
42797.25	0.0999851999804378	636	hunger	stimuli/non_foods\non-food_inanimate_buds.jpg	1	5	1	non-food_inanimate_buds	0	R	12	0	166	0		0	0	236.359278500022	236.459263700002
42834.75	0.0999861999880522	637	hunger	stimuli/non_foods\non-food_animate_german_shepherd.jpg	1	5	1	non-food_animate_german_shepherd	0	L	8	0	114	0		0	0	236.509276800032	236.60926300002
42872.25	0.0999844999751076	638	hunger	stimuli/foods\pomegranate.jpg	1	5	1	pomegranate	1	S	13	0	244	0		0	0	236.65927470004	236.759259200015
42909.75	0.099976199970115	639	hunger	stimuli/non_foods\non-food_inanimate_cap.jpg	1	5	1	non-food_inanimate_cap	0	F	3	0	171	0		0	0	236.809272600047	236.909248800017
42947.25	0.0999859999865294	640	hunger	stimuli/non_foods\non-food_animate_squirrel.jpg	1	5	1	non-food_animate_squirrel	0	R	12	0	150	0		0	0	236.959270700056	237.059256700042
42984.75	0.0999795999960043	641	hunger	stimuli/foods\taco.jpg	1	5	1	taco	1	W	16	0	274	0		0	0	237.109272600035	237.209252200031
43022.25	0.100004000007175	642	hunger	stimuli/non_foods\non-food_inanimate_rack.jpg	1	5	1	non-food_inanimate_rack	0	R	12	0	202	0		0	0	237.25925220002	237.359256200027
43059.75	0.0999859000439756	643	hunger	stimuli/foods\chilli.jpg	1	5	1	chilli	1	H	5	0	25	0		0	0	237.409271200013	237.509257100057
43097.25	0.0999909000238404	644	hunger	stimuli/non_foods\non-food_inanimate_hammer.jpg	1	5	1	non-food_inanimate_hammer	0	V	15	0	186	0		0	0	237.559267100005	237.659258000029
43134.75	0.0999859999865294	645	hunger	stimuli/non_foods\non-food_inanimate_chandelier.jpg	1	5	1	non-food_inanimate_chandelier	0	K	7	0	173	0		0	0	237.709269500047	237.809255500033
43172.25	0.0999822999583557	646	hunger	stimuli/foods\lollies.jpg	1	5	1	lollies	1	G	4	0	78	0		0	0	237.859266100044	237.959248400002
43209.75	0.0999429000075907	647	hunger	stimuli/foods\raw_sausage.jpg	1	5	1	raw_sausage	1	B	0	0	254	0		0	0	238.009308100038	238.109251000045
