onset	duration	eventnumber	hunger_condition	stimfilename	blockno	trialno	is_faststream	stim	food_idx	letter	letter_idx	istarget	image_number	response	keypressed	rt	correct	time_stimon	time_stimoff
37004	0.0999777000006361	0	satiated	stimuli/foods\garlic.jpg	1	1	1	garlic	1	B	0	0	56	0		0	0	123.4033928	123.503370500001
37041.5	0.100038699999459	1	satiated	stimuli/non_foods\non-food_inanimate_nest.jpg	1	1	1	non-food_inanimate_nest	0	Z	18	0	196	0		0	0	123.5533885	123.6534272
37079	0.0999771999995573	2	satiated	stimuli/foods\cabbage.jpg	1	1	1	cabbage	1	V	15	0	16	0		0	0	123.703394900001	123.8033721
37116.5	0.0999477000004845	3	satiated	stimuli/non_foods\non-food_inanimate_ring.jpg	1	1	1	non-food_inanimate_ring	0	T	14	0	203	0		0	0	123.8533931	123.953340800001
37154	0.0999708999997893	4	satiated	stimuli/foods\ice_cream.jpg	1	1	1	ice_cream	1	P	11	0	68	0		0	0	124.0033954	124.1033663
37191.5	0.0999825999997483	5	satiated	stimuli/foods\pancakes.jpg	1	1	1	pancakes	1	C	1	0	234	0		0	0	124.153380000001	124.2533626
37229	0.100022499999795	6	satiated	stimuli/non_foods\non-food_animate_yellow_bug.jpg	1	1	1	non-food_animate_yellow_bug	0	L	8	0	155	0		0	0	124.303365100001	124.4033876
37266.5	0.0999861999998757	7	satiated	stimuli/foods\baked_cod_with_carrots_and_green_beans.jpg	1	1	1	baked_cod_with_carrots_and_green_beans	1	Z	18	0	7	0		0	0	124.453375300001	124.5533615
37304	0.0999850999996852	8	satiated	stimuli/foods\honey.jpg	1	1	1	honey	1	B	0	0	66	0		0	0	124.603374	124.7033591
37341.5	0.0999878000002354	9	satiated	stimuli/foods\croissant.jpg	1	1	1	croissant	1	W	16	0	40	0		0	0	124.753369	124.8533568
37379	0.099960700000338	10	satiated	stimuli/non_foods\non-food_animate_porcupine.jpg	1	1	1	non-food_animate_porcupine	0	F	3	0	138	0		0	0	124.9033719	125.0033326
37416.5	0.0999517000000196	11	satiated	stimuli/non_foods\non-food_inanimate_hammer.jpg	1	1	1	non-food_inanimate_hammer	0	K	7	0	186	0		0	0	125.0533895	125.1533412
37454	0.0999721999996837	12	satiated	stimuli/non_foods\non-food_animate_iguana.jpg	1	1	1	non-food_animate_iguana	0	O	22	1	121	0		0	0	125.2033821	125.3033543
37491.5	0.0997683999994479	13	satiated	stimuli/foods\apple.jpg	1	1	1	apple	1	J	6	0	1	0		0	0	125.3535846	125.453353
37529	0.0999849999998332	14	satiated	stimuli/non_foods\non-food_animate_Asian_man.jpg	1	1	1	non-food_animate_Asian_man	0	X	17	0	88	1	a	0.309025499999734	1	125.5033626	125.6033476
37566.5	0.100007699999878	15	satiated	stimuli/non_foods\non-food_animate_deer.jpg	1	1	1	non-food_animate_deer	0	K	7	0	105	0		0	0	125.6533611	125.7533688
37604	0.0999504999999772	16	satiated	stimuli/non_foods\non-food_inanimate_pine_cone.jpg	1	1	1	non-food_inanimate_pine_cone	0	S	13	0	200	0		0	0	125.8033922	125.9033427
37641.5	0.099988700000722	17	satiated	stimuli/foods\lentils.jpg	1	1	1	lentils	1	F	3	0	74	0		0	0	125.953356	126.053344700001
37679	0.0999926000004052	18	satiated	stimuli/foods\cannoli.jpg	1	1	1	cannoli	1	S	13	0	17	0		0	0	126.1033459	126.2033385
37716.5	0.0999846999993679	19	satiated	stimuli/non_foods\non-food_animate_camel.jpg	1	1	1	non-food_animate_camel	0	T	14	0	97	0		0	0	126.2533521	126.3533368
37754	0.0999689000000217	20	satiated	stimuli/foods\pumpkin.jpg	1	1	1	pumpkin	1	K	7	0	250	0		0	0	126.403353000001	126.503321900001
37791.5	0.0999848999999813	21	satiated	stimuli/foods\gnocchi.jpg	1	1	1	gnocchi	1	M	9	0	58	0		0	0	126.553352	126.6533369
37829	0.0999663000002329	22	satiated	stimuli/foods\green_olives.jpg	1	1	1	green_olives	1	B	0	0	62	0		0	0	126.7033521	126.803318400001
37866.5	0.10000300000047	23	satiated	stimuli/non_foods\non-food_animate_monkey.jpg	1	1	1	non-food_animate_monkey	0	K	7	0	130	0		0	0	126.8533323	126.953335300001
37904	0.0999842999999601	24	satiated	stimuli/foods\raw_sausage.jpg	1	1	1	raw_sausage	1	L	8	0	254	0		0	0	127.0033432	127.1033275
37941.5	0.0999862999997276	25	satiated	stimuli/non_foods\non-food_inanimate_toy_airplane.jpg	1	1	1	non-food_inanimate_toy_airplane	0	D	2	0	222	0		0	0	127.153341300001	127.2533276
37979	0.0999848000001293	26	satiated	stimuli/foods\ginger_root.jpg	1	1	1	ginger_root	1	X	17	0	57	0		0	0	127.3033414	127.4033262
38016.5	0.0999909000001935	27	satiated	stimuli/non_foods\non-food_animate_penguin.jpg	1	1	1	non-food_animate_penguin	0	P	11	0	135	0		0	0	127.4533268	127.553317700001
38054	0.0999821000004886	28	satiated	stimuli/non_foods\non-food_inanimate_gloves.jpg	1	1	1	non-food_inanimate_gloves	0	T	14	0	183	0		0	0	127.6033399	127.703322
38091.5	0.0999852000004466	29	satiated	stimuli/non_foods\non-food_animate_lion.jpg	1	1	1	non-food_animate_lion	0	M	9	0	125	0		0	0	127.7533339	127.853319100001
38129	0.0999857000006159	30	satiated	stimuli/foods\egg.jpg	1	1	1	egg	1	K	7	0	45	0		0	0	127.9033331	128.003318800001
38166.5	0.0999848999999813	31	satiated	stimuli/non_foods\non-food_animate_giraffe.jpg	1	1	1	non-food_animate_giraffe	0	F	3	0	115	0		0	0	128.0533309	128.1533158
38204	0.0999826999996003	32	satiated	stimuli/foods\papaya.jpg	1	1	1	papaya	1	R	12	0	235	0		0	0	128.203332200001	128.3033149
38241.5	0.0999814999995579	33	satiated	stimuli/foods\risotto_with_peas_and_asparagus_tips.jpg	1	1	1	risotto_with_peas_and_asparagus_tips	1	Z	18	0	259	0		0	0	128.353326	128.4533075
38279	0.09997790000034	34	satiated	stimuli/non_foods\non-food_inanimate_guitar.jpg	1	1	1	non-food_inanimate_guitar	0	X	17	0	185	0		0	0	128.5033266	128.6033045
38316.5	0.0999861999998757	35	satiated	stimuli/non_foods\non-food_animate_squirrel.jpg	1	1	1	non-food_animate_squirrel	0	T	14	0	150	0		0	0	128.653326000001	128.7533122
38354	0.0999873999999181	36	satiated	stimuli/non_foods\non-food_animate_woman.jpg	1	1	1	non-food_animate_woman	0	C	1	0	154	0		0	0	128.8033231	128.9033105
38391.5	0.0999786000002132	37	satiated	stimuli/non_foods\non-food_animate_rhino.jpg	1	1	1	non-food_animate_rhino	0	M	9	0	141	0		0	0	128.9533271	129.0533057
38429	0.100003999999899	38	satiated	stimuli/non_foods\non-food_inanimate_broom.jpg	1	1	1	non-food_inanimate_broom	0	X	17	0	164	1	a	0	0	129.1033181	129.2033221
38466.5	0.0999824000000444	39	satiated	stimuli/non_foods\non-food_inanimate_cactus_pot_plant.jpg	1	1	1	non-food_inanimate_cactus_pot_plant	0	I	21	1	169	0		0	0	129.2533184	129.3533008
38504	0.0999870000005103	40	satiated	stimuli/non_foods\non-food_inanimate_bowling_ball.jpg	1	1	1	non-food_inanimate_bowling_ball	0	H	5	0	162	0		0	0	129.4033146	129.503301600001
38541.5	0.099986600000193	41	satiated	stimuli/foods\spring_onions.jpg	1	1	1	spring_onions	1	T	14	0	269	0		0	0	129.5533139	129.6533005
38579	0.0999824000000444	42	satiated	stimuli/foods\coconut.jpg	1	1	1	coconut	1	C	1	0	33	0		0	0	129.703324300001	129.803306700001
38616.5	0.0999559000001682	43	satiated	stimuli/foods\museli_bars.jpg	1	1	1	museli_bars	1	V	15	0	84	0		0	0	129.8533325	129.9532884
38654	0.0999803000004249	44	satiated	stimuli/non_foods\non-food_animate_baby_sitting.jpg	1	1	1	non-food_animate_baby_sitting	0	B	0	0	93	0		0	0	130.0033037	130.103284000001
38691.5	0.0999908000003416	45	satiated	stimuli/foods\hazelnuts.jpg	1	1	1	hazelnuts	1	K	7	0	65	0		0	0	130.1532976	130.2532884
38729	0.0999957000003633	46	satiated	stimuli/foods\asparagus.jpg	1	1	1	asparagus	1	J	6	0	4	0		0	0	130.3032996	130.403295300001
38766.5	0.099984399999812	47	satiated	stimuli/foods\eggplant.jpg	1	1	1	eggplant	1	F	3	0	46	0		0	0	130.4533043	130.5532887
38804	0.0999841000002561	48	satiated	stimuli/non_foods\non-food_animate_raccoon.jpg	1	1	1	non-food_animate_raccoon	0	J	6	0	139	0		0	0	130.6033047	130.7032888
38841.5	0.0999860000001718	49	satiated	stimuli/foods\donut.jpg	1	1	1	donut	1	V	15	0	44	0		0	0	130.7532925	130.853278500001
38879	0.0999855000000025	50	satiated	stimuli/non_foods\non-food_animate_polar_bear.jpg	1	1	1	non-food_animate_polar_bear	0	T	14	0	137	0		0	0	130.903290900001	131.003276400001
38916.5	0.0999805999999808	51	satiated	stimuli/non_foods\non-food_animate_caterpillar.jpg	1	1	1	non-food_animate_caterpillar	0	W	16	0	99	0		0	0	131.0532917	131.1532723
38954	0.099984399999812	52	satiated	stimuli/non_foods\non-food_inanimate_briefcase.jpg	1	1	1	non-food_inanimate_briefcase	0	V	15	0	163	0		0	0	131.2032877	131.3032721
38991.5	0.0999833999994735	53	satiated	stimuli/foods\grapefruits.jpg	1	1	1	grapefruits	1	M	9	0	59	0		0	0	131.353285900001	131.4532693
39029	0.0999962000005326	54	satiated	stimuli/foods\cauliflower.jpg	1	1	1	cauliflower	1	X	17	0	20	0		0	0	131.503304	131.6033002
39066.5	0.099930399999721	55	satiated	stimuli/non_foods\non-food_inanimate_scissors.jpg	1	1	1	non-food_inanimate_scissors	0	D	2	0	205	0		0	0	131.6533213	131.7532517
39104	0.0999854000001505	56	satiated	stimuli/non_foods\non-food_inanimate_bed.jpg	1	1	1	non-food_inanimate_bed	0	B	0	0	160	0		0	0	131.803286	131.9032714
39141.5	0.0999867000000449	57	satiated	stimuli/foods\blackberry.jpg	1	1	1	blackberry	1	V	15	0	11	0		0	0	131.9532871	132.0532738
39179	0.0999842999999601	58	satiated	stimuli/foods\lettuce.jpg	1	1	1	lettuce	1	J	6	0	75	0		0	0	132.1032832	132.2032675
39216.5	0.0999877000003835	59	satiated	stimuli/non_foods\non-food_animate_peacock.jpg	1	1	1	non-food_animate_peacock	0	B	0	0	134	0		0	0	132.253281	132.353268700001
39254	0.0999828999993042	60	satiated	stimuli/non_foods\non-food_inanimate_toilet.jpg	1	1	1	non-food_inanimate_toilet	0	V	15	0	220	0		0	0	132.403282900001	132.5032658
39291.5	0.0999867000000449	61	satiated	stimuli/non_foods\non-food_animate_seal.jpg	1	1	1	non-food_animate_seal	0	X	17	0	146	0		0	0	132.5532788	132.6532655
39329	0.0999880999997913	62	satiated	stimuli/foods\toasted_bread_with_tomatoes.jpg	1	1	1	toasted_bread_with_tomatoes	1	J	6	0	275	0		0	0	132.7032778	132.8032659
39366.5	0.0999825999997483	63	satiated	stimuli/foods\brownie.jpg	1	1	1	brownie	1	D	2	0	14	0		0	0	132.853281000001	132.9532636
39404	0.0999836999999388	64	satiated	stimuli/non_foods\non-food_animate_baby_crawling.jpg	1	1	1	non-food_animate_baby_crawling	0	P	11	0	92	0		0	0	133.0032662	133.1032499
39441.5	0.0999965000000884	65	satiated	stimuli/foods\waffle.jpg	1	1	1	waffle	1	J	6	0	278	0		0	0	133.1532612	133.2532577
39479	0.100025200000346	66	satiated	stimuli/foods\lasagna.jpg	1	1	1	lasagna	1	A	19	1	71	0		0	0	133.3032714	133.4032966
39516.5	0.0999362000002293	67	satiated	stimuli/non_foods\non-food_inanimate_speakers.jpg	1	1	1	non-food_inanimate_speakers	0	Z	18	0	212	0		0	0	133.4533192	133.5532554
39554	0.0999875000006796	68	satiated	stimuli/foods\cupcake.jpg	1	1	1	cupcake	1	P	11	0	42	1	a	0.400155299999824	1	133.603263	133.703250500001
39591.5	0.0999862999997276	69	satiated	stimuli/foods\beetroots.jpg	1	1	1	beetroots	1	D	2	0	10	0		0	0	133.7532651	133.8532514
39629	0.099984499999664	70	satiated	stimuli/foods\cooked_ham.jpg	1	1	1	cooked_ham	1	J	6	0	35	0		0	0	133.9032659	134.0032504
39666.5	0.0999844000007215	71	satiated	stimuli/foods\prawn.jpg	1	1	1	prawn	1	L	8	0	249	0		0	0	134.0532611	134.153245500001
39704	0.0999875000006796	72	satiated	stimuli/foods\cracker.jpg	1	1	1	cracker	1	S	13	0	38	0		0	0	134.203259	134.303246500001
39741.5	0.0999867999998969	73	satiated	stimuli/non_foods\non-food_animate_tortoise.jpg	1	1	1	non-food_animate_tortoise	0	B	0	0	153	0		0	0	134.3532567	134.4532435
39779	0.0999485000002096	74	satiated	stimuli/foods\raisins.jpg	1	1	1	raisins	1	D	2	0	252	0		0	0	134.5032933	134.6032418
39816.5	0.0999873999999181	75	satiated	stimuli/non_foods\non-food_animate_seahorse.jpg	1	1	1	non-food_animate_seahorse	0	T	14	0	145	0		0	0	134.653256000001	134.7532434
39854	0.099984399999812	76	satiated	stimuli/non_foods\non-food_animate_dragonfly.jpg	1	1	1	non-food_animate_dragonfly	0	C	1	0	108	0		0	0	134.8032524	134.9032368
39891.5	0.0999855000000025	77	satiated	stimuli/foods\chocolate_pudding.jpg	1	1	1	chocolate_pudding	1	N	10	0	29	0		0	0	134.9532521	135.0532376
39929	0.100040599999375	78	satiated	stimuli/foods\steak.jpg	1	1	1	steak	1	J	6	0	270	0		0	0	135.103244100001	135.2032847
39966.5	0.0999626000002536	79	satiated	stimuli/non_foods\non-food_inanimate_nailpolish.jpg	1	1	1	non-food_inanimate_nailpolish	0	S	13	0	195	0		0	0	135.253268	135.353230600001
40004	0.0999892999998337	80	satiated	stimuli/non_foods\non-food_inanimate_towel.jpg	1	1	1	non-food_inanimate_towel	0	R	12	0	221	0		0	0	135.403244200001	135.503233500001
40041.5	0.100000499999624	81	satiated	stimuli/non_foods\non-food_animate_elephant.jpg	1	1	1	non-food_animate_elephant	0	H	5	0	111	0		0	0	135.5532295	135.65323
40079	0.099969300000339	82	satiated	stimuli/non_foods\non-food_inanimate_skirt.jpg	1	1	1	non-food_inanimate_skirt	0	F	3	0	209	0		0	0	135.7032441	135.8032134
40116.5	0.10000140000011	83	satiated	stimuli/non_foods\non-food_animate_bat.jpg	1	1	1	non-food_animate_bat	0	S	13	0	94	0		0	0	135.853227000001	135.953228400001
40154	0.099975699999959	84	satiated	stimuli/non_foods\non-food_inanimate_desk.jpg	1	1	1	non-food_inanimate_desk	0	J	6	0	178	0		0	0	136.003241	136.1032167
40191.5	0.0999836000000869	85	satiated	stimuli/non_foods\non-food_inanimate_orchid.jpg	1	1	1	non-food_inanimate_orchid	0	K	7	0	198	0		0	0	136.1532421	136.2532257
40229	0.0999583000002531	86	satiated	stimuli/foods\chocolate_pralines.jpg	1	1	1	chocolate_pralines	1	G	4	0	28	0		0	0	136.3032645	136.403222800001
40266.5	0.0999705000003814	87	satiated	stimuli/non_foods\non-food_animate_duck.jpg	1	1	1	non-food_animate_duck	0	S	13	0	109	0		0	0	136.453235	136.5532055
40304	0.100001099999645	88	satiated	stimuli/non_foods\non-food_inanimate_cupboard.jpg	1	1	1	non-food_inanimate_cupboard	0	V	15	0	177	0		0	0	136.603219500001	136.7032206
40341.5	0.0999893000007432	89	satiated	stimuli/foods\mango.jpg	1	1	1	mango	1	G	4	0	80	0		0	0	136.7532272	136.853216500001
40379	0.100004500000068	90	satiated	stimuli/non_foods\non-food_animate_hummingbird.jpg	1	1	1	non-food_animate_hummingbird	0	T	14	0	120	0		0	0	136.9032321	137.0032366
40416.5	0.0999660999996195	91	satiated	stimuli/foods\celery.jpg	1	1	1	celery	1	B	0	0	21	0		0	0	137.0532461	137.1532122
40454	0.0999852000004466	92	satiated	stimuli/foods\taco.jpg	1	1	1	taco	1	M	9	0	274	0		0	0	137.2032244	137.303209600001
40491.5	0.0999827000005098	93	satiated	stimuli/non_foods\non-food_animate_fox.jpg	1	1	1	non-food_animate_fox	0	V	15	0	112	0		0	0	137.3532279	137.453210600001
40529	0.0999862999997276	94	satiated	stimuli/foods\coffee_beans.jpg	1	1	1	coffee_beans	1	X	17	0	34	0		0	0	137.5032213	137.6032076
40566.5	0.0999830000000657	95	satiated	stimuli/foods\cream_donuts.jpg	1	1	1	cream_donuts	1	J	6	0	39	0		0	0	137.6532206	137.7532036
40604	0.0999880000008488	96	satiated	stimuli/non_foods\non-food_inanimate_highlighter.jpg	1	1	1	non-food_inanimate_highlighter	0	M	9	0	189	0		0	0	137.8032169	137.903204900001
40641.5	0.0999517000000196	97	satiated	stimuli/foods\chocolate_chip_cookies.jpg	1	1	1	chocolate_chip_cookies	1	D	2	0	27	0		0	0	137.9532343	138.053186
40679	0.0999538000005487	98	satiated	stimuli/non_foods\non-food_inanimate_nettle.jpg	1	1	1	non-food_inanimate_nettle	0	L	8	0	197	0		0	0	138.1032471	138.2032009
40716.5	0.0999824999998964	99	satiated	stimuli/foods\cinnamon_sroll.jpg	1	1	1	cinnamon_sroll	1	T	14	0	31	0		0	0	138.2532142	138.3531967
40754	0.0999850999996852	100	satiated	stimuli/non_foods\non-food_inanimate_shell.jpg	1	1	1	non-food_inanimate_shell	0	S	13	0	206	0		0	0	138.4032125	138.5031976
40791.5	0.0999855999998545	101	satiated	stimuli/non_foods\non-food_animate_Causasian_man.jpg	1	1	1	non-food_animate_Causasian_man	0	Z	18	0	89	0		0	0	138.5532099	138.6531955
40829	0.0999955000006594	102	satiated	stimuli/foods\pomegranate.jpg	1	1	1	pomegranate	1	T	14	0	244	0		0	0	138.7032203	138.803215800001
40866.5	0.0999482000006537	103	satiated	stimuli/non_foods\non-food_animate_chicken.jpg	1	1	1	non-food_animate_chicken	0	J	6	0	101	0		0	0	138.8532434	138.953191600001
40904	0.0999807999996847	104	satiated	stimuli/foods\omelette.jpg	1	1	1	omelette	1	K	7	0	228	0		0	0	139.003206	139.1031868
40941.5	0.099986600000193	105	satiated	stimuli/non_foods\non-food_inanimate_fire_extinguisher.jpg	1	1	1	non-food_inanimate_fire_extinguisher	0	P	11	0	181	0		0	0	139.1531991	139.2531857
40979	0.0999855000000025	106	satiated	stimuli/foods\potatoes.jpg	1	1	1	potatoes	1	L	8	0	248	0		0	0	139.3032001	139.4031856
41016.5	0.0999867000000449	107	satiated	stimuli/foods\rice.jpg	1	1	1	rice	1	C	1	0	257	0		0	0	139.453197100001	139.553183800001
41054	0.0999856999997064	108	satiated	stimuli/non_foods\non-food_inanimate_lighter.jpg	1	1	1	non-food_inanimate_lighter	0	K	7	0	193	0		0	0	139.603197400001	139.7031831
41091.5	0.099986600000193	109	satiated	stimuli/non_foods\non-food_animate_millipede.jpg	1	1	1	non-food_animate_millipede	0	Z	18	0	129	0		0	0	139.753194200001	139.853180800001
41129	0.0999612999994497	110	satiated	stimuli/foods\mussels.jpg	1	1	1	mussels	1	H	5	0	86	0		0	0	139.903216600001	140.0031779
41166.5	0.0999857999995584	111	satiated	stimuli/non_foods\non-food_inanimate_folding_chair.jpg	1	1	1	non-food_inanimate_folding_chair	0	R	12	0	182	0		0	0	140.053190600001	140.1531764
41204	0.0999876000005315	112	satiated	stimuli/foods\hotdog.jpg	1	1	1	hotdog	1	F	3	0	67	0		0	0	140.2031901	140.303177700001
41241.5	0.0999856999997064	113	satiated	stimuli/non_foods\non-food_inanimate_suitcase.jpg	1	1	1	non-food_inanimate_suitcase	0	T	14	0	215	0		0	0	140.3531963	140.453182
41279	0.0999872000002142	114	satiated	stimuli/non_foods\non-food_animate_lizard.jpg	1	1	1	non-food_animate_lizard	0	P	11	0	126	0		0	0	140.5032017	140.603188900001
41316.5	0.0999630999995134	115	satiated	stimuli/non_foods\non-food_animate_frog.jpg	1	1	1	non-food_animate_frog	0	U	23	1	113	0		0	0	140.653209900001	140.753173
41354	0.0999853000002986	116	satiated	stimuli/non_foods\non-food_inanimate_stoplight.jpg	1	1	1	non-food_inanimate_stoplight	0	N	10	0	214	0		0	0	140.8031837	140.903169
41391.5	0.0999968999994962	117	satiated	stimuli/foods\frankfurter_and_provolone_salad.jpg	1	1	1	frankfurter_and_provolone_salad	1	H	5	0	49	1	a	0.391802199999802	1	140.9531825	141.0531794
41429	0.0999842000001081	118	satiated	stimuli/foods\mushroom.jpg	1	1	1	mushroom	1	B	0	0	85	0		0	0	141.1031836	141.2031678
41466.5	0.100009000000682	119	satiated	stimuli/non_foods\non-food_inanimate_drum_set.jpg	1	1	1	non-food_inanimate_drum_set	0	Z	18	0	179	0		0	0	141.2531571	141.353166100001
41504	0.0999846000004254	120	satiated	stimuli/non_foods\non-food_animate_llama.jpg	1	1	1	non-food_animate_llama	0	G	4	0	127	0		0	0	141.40318	141.503164600001
41541.5	0.099999499999285	121	satiated	stimuli/foods\fruit_pie.jpg	1	1	1	fruit_pie	1	T	14	0	54	0		0	0	141.553177100001	141.6531766
41579	0.0999674000004234	122	satiated	stimuli/foods\kiwi.jpg	1	1	1	kiwi	1	F	3	0	69	0		0	0	141.7031927	141.8031601
41616.5	0.0999855999998545	123	satiated	stimuli/non_foods\non-food_inanimate_cap.jpg	1	1	1	non-food_inanimate_cap	0	B	0	0	171	0		0	0	141.8531713	141.9531569
41654	0.099987599999622	124	satiated	stimuli/foods\salmon.jpg	1	1	1	salmon	1	Z	18	0	264	0		0	0	142.0031697	142.1031573
41691.5	0.100005300000703	125	satiated	stimuli/non_foods\non-food_inanimate_bamboo.jpg	1	1	1	non-food_inanimate_bamboo	0	T	14	0	159	0		0	0	142.1531489	142.253154200001
41729	0.0999604999997246	126	satiated	stimuli/foods\spaghetti_with_meat_sauce.jpg	1	1	1	spaghetti_with_meat_sauce	1	N	10	0	267	0		0	0	142.3031932	142.4031537
41766.5	0.0999723000004451	127	satiated	stimuli/foods\cinnamon.jpg	1	1	1	cinnamon	1	D	2	0	30	0		0	0	142.4531772	142.5531495
41804	0.0999857999995584	128	satiated	stimuli/non_foods\non-food_inanimate_clover.jpg	1	1	1	non-food_inanimate_clover	0	W	16	0	174	0		0	0	142.6031613	142.7031471
41841.5	0.0999852000004466	129	satiated	stimuli/non_foods\non-food_inanimate_construction_helment.jpg	1	1	1	non-food_inanimate_construction_helment	0	G	4	0	175	0		0	0	142.7531613	142.853146500001
41879	0.0999813999997059	130	satiated	stimuli/non_foods\non-food_inanimate_fern.jpg	1	1	1	non-food_inanimate_fern	0	R	12	0	180	0		0	0	142.9031639	143.0031453
41916.5	0.099953099999766	131	satiated	stimuli/non_foods\non-food_animate_slug.jpg	1	1	1	non-food_animate_slug	0	B	0	0	148	0		0	0	143.053158600001	143.1531117
41954	0.0999678999996831	132	satiated	stimuli/foods\lime.jpg	1	1	1	lime	1	D	2	0	76	0		0	0	143.2031542	143.3031221
41991.5	0.100009300000238	133	satiated	stimuli/non_foods\non-food_animate_cow.jpg	1	1	1	non-food_animate_cow	0	R	12	0	103	0		0	0	143.3531382	143.4531475
42029	0.0999987999994119	134	satiated	stimuli/non_foods\non-food_animate_runner.jpg	1	1	1	non-food_animate_runner	0	W	16	0	142	0		0	0	143.503152300001	143.6031511
42066.5	0.099984499999664	135	satiated	stimuli/foods\capsicum.jpg	1	1	1	capsicum	1	L	8	0	18	0		0	0	143.6531504	143.7531349
42104	0.0999907000004896	136	satiated	stimuli/non_foods\non-food_inanimate_rope.jpg	1	1	1	non-food_inanimate_rope	0	V	15	0	204	0		0	0	143.8031455	143.903136200001
42141.5	0.0999764999996842	137	satiated	stimuli/non_foods\non-food_inanimate_skateboard.jpg	1	1	1	non-food_inanimate_skateboard	0	N	10	0	208	0		0	0	143.953148000001	144.0531245
42179	0.0999583000002531	138	satiated	stimuli/foods\artichoke.jpg	1	1	1	artichoke	1	Z	18	0	3	0		0	0	144.1031627	144.203121
42216.5	0.0999850999996852	139	satiated	stimuli/foods\lollies.jpg	1	1	1	lollies	1	S	13	0	78	0		0	0	144.253133900001	144.353119
42941.5	0.099972500000149	140	satiated	stimuli/foods\pork_and_rice.jpg	1	2	1	pork_and_rice	1	D	2	0	245	0		0	0	147.1531198	147.2530923
42979	0.0999855000000025	141	satiated	stimuli/non_foods\non-food_inanimate_bicycle.jpg	1	2	1	non-food_inanimate_bicycle	0	Z	18	0	161	0		0	0	147.303108	147.4030935
43016.5	0.0999813000007634	142	satiated	stimuli/foods\cereal.jpg	1	2	1	cereal	1	V	15	0	22	0		0	0	147.4531103	147.553091600001
43054	0.099986600000193	143	satiated	stimuli/non_foods\non-food_animate_german_shepherd.jpg	1	2	1	non-food_animate_german_shepherd	0	K	7	0	114	0		0	0	147.6031039	147.7030905
43091.5	0.0999728000006144	144	satiated	stimuli/foods\carrot.jpg	1	2	1	carrot	1	D	2	0	19	0		0	0	147.7531141	147.853086900001
43129	0.0999779999992825	145	satiated	stimuli/non_foods\non-food_inanimate_socks.jpg	1	2	1	non-food_inanimate_socks	0	P	11	0	211	0		0	0	147.903102900001	148.0030809
43166.5	0.0999928999999611	146	satiated	stimuli/non_foods\non-food_animate_pigeon.jpg	1	2	1	non-food_animate_pigeon	0	F	3	0	136	0		0	0	148.0530973	148.1530902
43204	0.0999760999993669	147	satiated	stimuli/foods\fries.jpg	1	2	1	fries	1	D	2	0	52	0		0	0	148.203100700001	148.3030768
43241.5	0.100028200000452	148	satiated	stimuli/foods\swordfish.jpg	1	2	1	swordfish	1	P	11	0	273	0		0	0	148.3530994	148.453127600001
43279	0.0999808000005942	149	satiated	stimuli/non_foods\non-food_animate_gorilla.jpg	1	2	1	non-food_animate_gorilla	0	T	14	0	116	0		0	0	148.5030976	148.6030784
43316.5	0.0999962000005326	150	satiated	stimuli/foods\oven-roasted_tomatoes.jpg	1	2	1	oven-roasted_tomatoes	1	H	5	0	232	0		0	0	148.6530844	148.7530806
43354	0.0999862999997276	151	satiated	stimuli/foods\potato_and_green_bean_salad.jpg	1	2	1	potato_and_green_bean_salad	1	P	11	0	246	0		0	0	148.8030881	148.9030744
43391.5	0.0999826999996003	152	satiated	stimuli/foods\corncob.jpg	1	2	1	corncob	1	R	12	0	37	0		0	0	148.9530916	149.0530743
43429	0.0999737000001915	153	satiated	stimuli/non_foods\non-food_inanimate_stapler.jpg	1	2	1	non-food_inanimate_stapler	0	C	1	0	213	0		0	0	149.1030896	149.2030633
43466.5	0.0999871000003623	154	satiated	stimuli/non_foods\non-food_animate_swan.jpg	1	2	1	non-food_animate_swan	0	N	10	0	152	0		0	0	149.2530821	149.3530692
43504	0.0999891000001298	155	satiated	stimuli/non_foods\non-food_animate_alligator.jpg	1	2	1	non-food_animate_alligator	0	F	3	0	90	0		0	0	149.4030834	149.503072500001
43541.5	0.0999812999998539	156	satiated	stimuli/non_foods\non-food_animate_butterfly.jpg	1	2	1	non-food_animate_butterfly	0	X	17	0	96	0		0	0	149.5530834	149.6530647
43579	0.0999882999994952	157	satiated	stimuli/foods\red_beans.jpg	1	2	1	red_beans	1	D	2	0	255	0		0	0	149.703079200001	149.8030675
43616.5	0.0999842000001081	158	satiated	stimuli/non_foods\non-food_inanimate_buds.jpg	1	2	1	non-food_inanimate_buds	0	F	3	0	166	0		0	0	149.8530804	149.9530646
43654	0.0999770999997054	159	satiated	stimuli/foods\watermelon.jpg	1	2	1	watermelon	1	C	1	0	279	0		0	0	150.003076200001	150.1030533
43691.5	0.099949899999956	160	satiated	stimuli/non_foods\non-food_inanimate_jeans.jpg	1	2	1	non-food_inanimate_jeans	0	W	16	0	191	0		0	0	150.1531125	150.2530624
43729	0.0999744000000646	161	satiated	stimuli/foods\spinach.jpg	1	2	1	spinach	1	X	17	0	268	0		0	0	150.3030847	150.4030591
43766.5	0.0999872000002142	162	satiated	stimuli/foods\peach.jpg	1	2	1	peach	1	V	15	0	238	0		0	0	150.453072	150.5530592
43804	0.0999847999992198	163	satiated	stimuli/non_foods\non-food_animate_owl.jpg	1	2	1	non-food_animate_owl	0	J	6	0	132	0		0	0	150.603072700001	150.7030575
43841.5	0.0999566000000414	164	satiated	stimuli/foods\mandarin.jpg	1	2	1	mandarin	1	V	15	0	79	0		0	0	150.7530686	150.8530252
43879	0.0999845000005735	165	satiated	stimuli/non_foods\non-food_animate_dachshund.jpg	1	2	1	non-food_animate_dachshund	0	M	9	0	104	0		0	0	150.9030659	151.003050400001
43916.5	0.0999879000000874	166	satiated	stimuli/non_foods\non-food_inanimate_table.jpg	1	2	1	non-food_inanimate_table	0	G	4	0	217	0		0	0	151.053062200001	151.153050100001
43954	0.0999863000006371	167	satiated	stimuli/foods\meatballs.jpg	1	2	1	meatballs	1	T	14	0	81	0		0	0	151.2030623	151.303048600001
43991.5	0.0999658999999156	168	satiated	stimuli/foods\avocado.jpg	1	2	1	avocado	1	L	8	0	5	0		0	0	151.353082000001	151.4530479
44029	0.0999846000004254	169	satiated	stimuli/foods\pear.jpg	1	2	1	pear	1	U	23	1	239	0		0	0	151.50306	151.6030446
44066.5	0.0999865999992835	170	satiated	stimuli/foods\fennel.jpg	1	2	1	fennel	1	D	2	0	47	0		0	0	151.653058700001	151.7530453
44104	0.100000399999772	171	satiated	stimuli/non_foods\non-food_animate_student_female.jpg	1	2	1	non-food_animate_student_female	0	X	17	0	151	0		0	0	151.8030495	151.9030499
44141.5	0.0999683000000005	172	satiated	stimuli/non_foods\non-food_animate_cat.jpg	1	2	1	non-food_animate_cat	0	K	7	0	98	0		0	0	151.9530703	152.0530386
44179	0.0999828000003617	173	satiated	stimuli/non_foods\non-food_animate_clown.jpg	1	2	1	non-food_animate_clown	0	N	10	0	102	1	a	0.60730010000043	1	152.1030588	152.203041600001
44216.5	0.0999842000001081	174	satiated	stimuli/foods\stew_with_potatoes_and_carrots.jpg	1	2	1	stew_with_potatoes_and_carrots	1	D	2	0	271	0		0	0	152.2530519	152.3530361
44254	0.0999775000000227	175	satiated	stimuli/non_foods\non-food_inanimate_moss.jpg	1	2	1	non-food_inanimate_moss	0	N	10	0	194	0		0	0	152.4030499	152.5030274
44291.5	0.0999848000001293	176	satiated	stimuli/foods\apricot.jpg	1	2	1	apricot	1	D	2	0	2	0		0	0	152.5530408	152.653025600001
44329	0.0999805000001288	177	satiated	stimuli/non_foods\non-food_animate_ladybug.jpg	1	2	1	non-food_animate_ladybug	0	S	13	0	124	0		0	0	152.7030402	152.8030207
44366.5	0.0999852000004466	178	satiated	stimuli/foods\pasta_carbonara.jpg	1	2	1	pasta_carbonara	1	M	9	0	236	0		0	0	152.8530356	152.953020800001
44404	0.0999826999996003	179	satiated	stimuli/foods\fried_calamari.jpg	1	2	1	fried_calamari	1	T	14	0	50	0		0	0	153.003037500001	153.1030202
44441.5	0.099998499999856	180	satiated	stimuli/foods\cherry.jpg	1	2	1	cherry	1	F	3	0	23	0		0	0	153.153029300001	153.2530278
44479	0.0999879000000874	181	satiated	stimuli/non_foods\non-food_animate_donkey.jpg	1	2	1	non-food_animate_donkey	0	J	6	0	107	0		0	0	153.3030367	153.4030246
44516.5	0.0999857000006159	182	satiated	stimuli/non_foods\non-food_inanimate_leaf.jpg	1	2	1	non-food_inanimate_leaf	0	R	12	0	192	0		0	0	153.4530366	153.553022300001
44554	0.0999680000004446	183	satiated	stimuli/foods\risotto_with_zucchini.jpg	1	2	1	risotto_with_zucchini	1	T	14	0	260	0		0	0	153.6030516	153.703019600001
44591.5	0.0999743000002127	184	satiated	stimuli/non_foods\non-food_animate_kangaroo.jpg	1	2	1	non-food_animate_kangaroo	0	D	2	0	122	0		0	0	153.7530475	153.853021800001
44629	0.0999983000001521	185	satiated	stimuli/foods\rockmelon.jpg	1	2	1	rockmelon	1	P	11	0	262	0		0	0	153.9030229	154.0030212
44666.5	0.0999750000000859	186	satiated	stimuli/foods\minestrone_soup.jpg	1	2	1	minestrone_soup	1	J	6	0	82	0		0	0	154.0530294	154.1530044
44704	0.0999848999999813	187	satiated	stimuli/non_foods\non-food_inanimate_grass.jpg	1	2	1	non-food_inanimate_grass	0	R	12	0	184	0		0	0	154.203022000001	154.303006900001
44741.5	0.0999850999996852	188	satiated	stimuli/foods\lemon.jpg	1	2	1	lemon	1	F	3	0	72	0		0	0	154.353020500001	154.4530056
44779	0.0999982000003001	189	satiated	stimuli/non_foods\non-food_inanimate_tulip.jpg	1	2	1	non-food_inanimate_tulip	0	V	15	0	224	0		0	0	154.5030109	154.6030091
44816.5	0.0999848000001293	190	satiated	stimuli/foods\chilli.jpg	1	2	1	chilli	1	N	10	0	25	0		0	0	154.6530208	154.753005600001
44854	0.0999795000006998	191	satiated	stimuli/foods\pepperoni_pizza.jpg	1	2	1	pepperoni_pizza	1	F	3	0	241	0		0	0	154.8030233	154.903002800001
44891.5	0.0999846000004254	192	satiated	stimuli/non_foods\non-food_inanimate_padlock.jpg	1	2	1	non-food_inanimate_padlock	0	W	16	0	199	0		0	0	154.9530192	155.053003800001
44929	0.0999878000002354	193	satiated	stimuli/foods\chestnut.jpg	1	2	1	chestnut	1	N	10	0	24	0		0	0	155.1030177	155.2030055
44966.5	0.0999874999997701	194	satiated	stimuli/foods\banana.jpg	1	2	1	banana	1	C	1	0	9	0		0	0	155.2530167	155.3530042
45004	0.0999918000006801	195	satiated	stimuli/foods\pea_pod.jpg	1	2	1	pea_pod	1	V	15	0	237	0		0	0	155.4030119	155.503003700001
45041.5	0.0999664000000848	196	satiated	stimuli/non_foods\non-food_inanimate_horn.jpg	1	2	1	non-food_inanimate_horn	0	C	1	0	190	0		0	0	155.5530301	155.6529965
45079	0.0999749000002339	197	satiated	stimuli/non_foods\non-food_animate_young_girl.jpg	1	2	1	non-food_animate_young_girl	0	L	8	0	157	0		0	0	155.7030222	155.802997100001
45116.5	0.0999845999995159	198	satiated	stimuli/non_foods\non-food_animate_skunk.jpg	1	2	1	non-food_animate_skunk	0	N	10	0	147	0		0	0	155.8530096	155.9529942
45154	0.0999931000005745	199	satiated	stimuli/foods\cooked_prawn.jpg	1	2	1	cooked_prawn	1	M	9	0	36	0		0	0	156.002998	156.102991100001
45191.5	0.100006499999836	200	satiated	stimuli/foods\onion.jpg	1	2	1	onion	1	L	8	0	229	0		0	0	156.152995500001	156.253002
45229	0.0999970000002577	201	satiated	stimuli/foods\pickles.jpg	1	2	1	pickles	1	V	15	0	242	0		0	0	156.3029956	156.4029926
45266.5	0.0999906000006376	202	satiated	stimuli/foods\smoked_ham.jpg	1	2	1	smoked_ham	1	X	17	0	266	0		0	0	156.4529869	156.5529775
45304	0.0999858000004679	203	satiated	stimuli/non_foods\non-food_animate_dolphin.jpg	1	2	1	non-food_animate_dolphin	0	W	16	0	106	0		0	0	156.6029982	156.702984
45341.5	0.0999621000000843	204	satiated	stimuli/foods\brussel_sprouts.jpg	1	2	1	brussel_sprouts	1	P	11	0	15	0		0	0	156.7530126	156.8529747
45379	0.0999819999997271	205	satiated	stimuli/non_foods\non-food_inanimate_tent.jpg	1	2	1	non-food_inanimate_tent	0	O	22	1	219	0		0	0	156.9029968	157.0029788
45416.5	0.0999872000002142	206	satiated	stimuli/foods\grilled_chicken_breast.jpg	1	2	1	grilled_chicken_breast	1	W	16	0	63	0		0	0	157.0529913	157.1529785
45454	0.0999905999997281	207	satiated	stimuli/non_foods\non-food_inanimate_chair.jpg	1	2	1	non-food_inanimate_chair	0	D	2	0	172	1	a	0.40035859999989	1	157.202994	157.3029846
45491.5	0.0999633999999787	208	satiated	stimuli/foods\oyster.jpg	1	2	1	oyster	1	X	17	0	233	0		0	0	157.3530112	157.4529746
45529	0.099987699999474	209	satiated	stimuli/foods\green_beans.jpg	1	2	1	green_beans	1	T	14	0	61	0		0	0	157.502987100001	157.6029748
45566.5	0.0999849999998332	210	satiated	stimuli/non_foods\non-food_animate_snail.jpg	1	2	1	non-food_animate_snail	0	S	13	0	149	0		0	0	157.652986800001	157.752971800001
45604	0.0999854000001505	211	satiated	stimuli/non_foods\non-food_animate_ram.jpg	1	2	1	non-food_animate_ram	0	J	6	0	140	0		0	0	157.8029864	157.9029718
45641.5	0.0999878000002354	212	satiated	stimuli/non_foods\non-food_animate_sea_lion.jpg	1	2	1	non-food_animate_sea_lion	0	S	13	0	143	0		0	0	157.9529824	158.0529702
45679	0.099983400000383	213	satiated	stimuli/foods\oregano.jpg	1	2	1	oregano	1	T	14	0	231	0		0	0	158.1029811	158.2029645
45716.5	0.0999871000003623	214	satiated	stimuli/non_foods\non-food_inanimate_wrench.jpg	1	2	1	non-food_inanimate_wrench	0	F	3	0	227	0		0	0	158.2529771	158.3529642
45754	0.0999619999993229	215	satiated	stimuli/non_foods\non-food_animate_ant.jpg	1	2	1	non-food_animate_ant	0	H	5	0	91	0		0	0	158.403001000001	158.502963
45791.5	0.0999852999993891	216	satiated	stimuli/foods\linguine_with_clams.jpg	1	2	1	linguine_with_clams	1	D	2	0	77	0		0	0	158.552979300001	158.6529646
45829	0.0999848999999813	217	satiated	stimuli/non_foods\non-food_inanimate_button.jpg	1	2	1	non-food_inanimate_button	0	V	15	0	168	0		0	0	158.7029758	158.8029607
45866.5	0.0999798000002556	218	satiated	stimuli/non_foods\non-food_inanimate_alarm_clock.jpg	1	2	1	non-food_inanimate_alarm_clock	0	N	10	0	158	0		0	0	158.8529722	158.952952000001
45904	0.10001050000028	219	satiated	stimuli/foods\lamb_chops.jpg	1	2	1	lamb_chops	1	C	1	0	70	0		0	0	159.0029702	159.1029807
45941.5	0.0999463999996806	220	satiated	stimuli/foods\fried_zucchini.jpg	1	2	1	fried_zucchini	1	N	10	0	51	0		0	0	159.1530129	159.2529593
45979	0.0999628999998095	221	satiated	stimuli/foods\fruit_salad.jpg	1	2	1	fruit_salad	1	R	12	0	55	0		0	0	159.3029721	159.402935
46016.5	0.0999674999993658	222	satiated	stimuli/non_foods\non-food_inanimate_rack.jpg	1	2	1	non-food_inanimate_rack	0	T	14	0	202	0		0	0	159.452966700001	159.5529342
46054	0.0999799000001076	223	satiated	stimuli/foods\peas.jpg	1	2	1	peas	1	F	3	0	240	0		0	0	159.6029686	159.7029485
46091.5	0.099986600000193	224	satiated	stimuli/foods\orange.jpg	1	2	1	orange	1	J	6	0	230	0		0	0	159.752963	159.8529496
46129	0.0999847999992198	225	satiated	stimuli/non_foods\non-food_inanimate_chandelier.jpg	1	2	1	non-food_inanimate_chandelier	0	B	0	0	173	0		0	0	159.902962900001	160.0029477
46166.5	0.0999878999991779	226	satiated	stimuli/non_foods\non-food_animate_mammoth.jpg	1	2	1	non-food_animate_mammoth	0	V	15	0	128	0		0	0	160.052957100001	160.152945
46204	0.0999710999994932	227	satiated	stimuli/foods\salami.jpg	1	2	1	salami	1	G	4	0	263	0		0	0	160.2029724	160.3029435
46241.5	0.0999676999999792	228	satiated	stimuli/non_foods\non-food_inanimate_short_sleeved_shirt.jpg	1	2	1	non-food_inanimate_short_sleeved_shirt	0	A	19	1	207	0		0	0	160.352958	160.4529257
46279	0.0999879999999393	229	satiated	stimuli/non_foods\non-food_animate_bee.jpg	1	2	1	non-food_animate_bee	0	C	1	0	95	0		0	0	160.5029549	160.6029429
46316.5	0.0999719999999797	230	satiated	stimuli/non_foods\non-food_inanimate_waterlily.jpg	1	2	1	non-food_inanimate_waterlily	0	G	4	0	226	0		0	0	160.6529557	160.7529277
46354	0.0999776000007842	231	satiated	stimuli/non_foods\non-food_inanimate_headphones.jpg	1	2	1	non-food_inanimate_headphones	0	C	1	0	188	1	a	0.455397699999594	1	160.8029515	160.902929100001
46391.5	0.0999728999995568	232	satiated	stimuli/foods\fruit_flan.jpg	1	2	1	fruit_flan	1	F	3	0	53	0		0	0	160.952963700001	161.0529366
46429	0.0999850999996852	233	satiated	stimuli/foods\broccoli.jpg	1	2	1	broccoli	1	D	2	0	13	0		0	0	161.1029409	161.202926
46466.5	0.0999877000003835	234	satiated	stimuli/non_foods\non-food_animate_killer_whale.jpg	1	2	1	non-food_animate_killer_whale	0	N	10	0	123	0		0	0	161.252939	161.3529267
46504	0.0999849999998332	235	satiated	stimuli/foods\potato_chips.jpg	1	2	1	potato_chips	1	M	9	0	247	0		0	0	161.4029375	161.5029225
46541.5	0.0999878000002354	236	satiated	stimuli/non_foods\non-food_inanimate_bucket.jpg	1	2	1	non-food_inanimate_bucket	0	N	10	0	165	0		0	0	161.5529335	161.6529213
46579	0.0999947000000247	237	satiated	stimuli/non_foods\non-food_animate_young_boy.jpg	1	2	1	non-food_animate_young_boy	0	T	14	0	156	0		0	0	161.7029357	161.8029304
46616.5	0.099953099999766	238	satiated	stimuli/foods\clams.jpg	1	2	1	clams	1	K	7	0	32	0		0	0	161.8529624	161.9529155
46654	0.0999836000000869	239	satiated	stimuli/foods\chocolate_bar.jpg	1	2	1	chocolate_bar	1	C	1	0	26	0		0	0	162.0029315	162.1029151
46691.5	0.0999891999999818	240	satiated	stimuli/foods\almonds.jpg	1	2	1	almonds	1	T	14	0	0	0		0	0	162.1529251	162.2529143
46729	0.0999851999995371	241	satiated	stimuli/non_foods\non-food_inanimate_protractor.jpg	1	2	1	non-food_inanimate_protractor	0	V	15	0	201	0		0	0	162.3029272	162.4029124
46766.5	0.0999872000002142	242	satiated	stimuli/foods\savory_pie.jpg	1	2	1	savory_pie	1	M	9	0	265	0		0	0	162.4529251	162.552912300001
46804	0.0999686999994083	243	satiated	stimuli/foods\roasted_chicken.jpg	1	2	1	roasted_chicken	1	H	5	0	261	0		0	0	162.602938200001	162.7029069
46841.5	0.0999732999998741	244	satiated	stimuli/foods\tomato.jpg	1	2	1	tomato	1	P	11	0	276	0		0	0	162.7529332	162.8529065
46879	0.0999897000001511	245	satiated	stimuli/foods\cucumber.jpg	1	2	1	cucumber	1	X	17	0	41	0		0	0	162.9029173	163.002907
46916.5	0.0999928000001091	246	satiated	stimuli/non_foods\non-food_inanimate_hay.jpg	1	2	1	non-food_inanimate_hay	0	W	16	0	187	0		0	0	163.0529106	163.1529034
46954	0.0999822000003405	247	satiated	stimuli/non_foods\non-food_animate_horse.jpg	1	2	1	non-food_animate_horse	0	R	12	0	119	0		0	0	163.2029242	163.3029064
46991.5	0.099986600000193	248	satiated	stimuli/non_foods\non-food_animate_sea_turtle.jpg	1	2	1	non-food_animate_sea_turtle	0	V	15	0	144	0		0	0	163.3529209	163.4529075
47029	0.0999861000000237	249	satiated	stimuli/foods\brie.jpg	1	2	1	brie	1	T	14	0	12	0		0	0	163.502919	163.6029051
47066.5	0.0999781999998959	250	satiated	stimuli/foods\raw_ham.jpg	1	2	1	raw_ham	1	C	1	0	253	0		0	0	163.652917	163.7528952
47104	0.0999764999996842	251	satiated	stimuli/foods\dates.jpg	1	2	1	dates	1	J	6	0	43	0		0	0	163.8029169	163.9028934
47141.5	0.0999743000002127	252	satiated	stimuli/foods\radish.jpg	1	2	1	radish	1	R	12	0	251	0		0	0	163.9529158	164.052890100001
47179	0.0999899999997069	253	satiated	stimuli/non_foods\non-food_animate_cheetah.jpg	1	2	1	non-food_animate_cheetah	0	W	16	0	100	0		0	0	164.102904	164.202894
47216.5	0.099989899999855	254	satiated	stimuli/non_foods\non-food_inanimate_watering_can.jpg	1	2	1	non-food_inanimate_watering_can	0	N	10	0	225	0		0	0	164.2529043	164.3528942
47254	0.0999517000000196	255	satiated	stimuli/foods\red_cabbage.jpg	1	2	1	red_cabbage	1	D	2	0	256	0		0	0	164.4029362	164.5028879
47291.5	0.0999577000002319	256	satiated	stimuli/non_foods\non-food_inanimate_soccer_ball.jpg	1	2	1	non-food_inanimate_soccer_ball	0	G	4	0	210	0		0	0	164.5529284	164.652886100001
47329	0.0999841999991986	257	satiated	stimuli/non_foods\non-food_animate_eagle.jpg	1	2	1	non-food_animate_eagle	0	V	15	0	110	0		0	0	164.702896600001	164.8028808
47366.5	0.0999837999997908	258	satiated	stimuli/non_foods\non-food_animate_green_bug.jpg	1	2	1	non-food_animate_green_bug	0	L	8	0	118	0		0	0	164.852897600001	164.9528814
47404	0.0999879000000874	259	satiated	stimuli/foods\grapes.jpg	1	2	1	grapes	1	R	12	0	60	0		0	0	165.0028938	165.102881700001
47441.5	0.099986500000341	260	satiated	stimuli/non_foods\non-food_inanimate_tree.jpg	1	2	1	non-food_inanimate_tree	0	N	10	0	223	0		0	0	165.1528937	165.252880200001
47479	0.100002399999539	261	satiated	stimuli/non_foods\non-food_inanimate_canoe.jpg	1	2	1	non-food_inanimate_canoe	0	F	3	0	170	0		0	0	165.302885200001	165.4028876
47516.5	0.100004799999624	262	satiated	stimuli/non_foods\non-food_inanimate_couch.jpg	1	2	1	non-food_inanimate_couch	0	S	13	0	176	0		0	0	165.452897900001	165.5529027
47554	0.0999917000008281	263	satiated	stimuli/foods\lemon_meringue_pie.jpg	1	2	1	lemon_meringue_pie	1	R	12	0	73	0		0	0	165.602892	165.702883700001
47591.5	0.0999856999997064	264	satiated	stimuli/foods\nectarine.jpg	1	2	1	nectarine	1	V	15	0	87	0		0	0	165.7528938	165.8528795
47629	0.0999575999994704	265	satiated	stimuli/foods\wafer.jpg	1	2	1	wafer	1	L	8	0	277	0		0	0	165.902892200001	166.0028498
47666.5	0.0999928999999611	266	satiated	stimuli/foods\figs.jpg	1	2	1	figs	1	I	21	1	48	0		0	0	166.0528829	166.1528758
47704	0.0999608000001899	267	satiated	stimuli/non_foods\non-food_inanimate_sun_flower.jpg	1	2	1	non-food_inanimate_sun_flower	0	H	5	0	216	0		0	0	166.2029062	166.302867
47741.5	0.099986600000193	268	satiated	stimuli/foods\mortadella.jpg	1	2	1	mortadella	1	Z	18	0	83	0		0	0	166.3528791	166.4528657
47779	0.0999838999996427	269	satiated	stimuli/foods\bagel.jpg	1	2	1	bagel	1	T	14	0	6	0		0	0	166.502889400001	166.6028733
47816.5	0.0999759000005724	270	satiated	stimuli/non_foods\non-food_animate_mouse.jpg	1	2	1	non-food_animate_mouse	0	P	11	0	131	0		0	0	166.6528854	166.7528613
47854	0.0999897000001511	271	satiated	stimuli/non_foods\non-food_animate_grasshopper.jpg	1	2	1	non-food_animate_grasshopper	0	L	8	0	117	0		0	0	166.802873000001	166.902862700001
47891.5	0.0999967000007018	272	satiated	stimuli/foods\pineapple.jpg	1	2	1	pineapple	1	H	5	0	243	0		0	0	166.9528677	167.052864400001
47929	0.0999846999993679	273	satiated	stimuli/non_foods\non-food_animate_parrot.jpg	1	2	1	non-food_animate_parrot	0	J	6	0	133	0		0	0	167.102876800001	167.2028615
47966.5	0.100000399999772	274	satiated	stimuli/foods\hamburger.jpg	1	2	1	hamburger	1	T	14	0	64	0		0	0	167.252876	167.3528764
48004	0.0999849999998332	275	satiated	stimuli/non_foods\non-food_inanimate_bush.jpg	1	2	1	non-food_inanimate_bush	0	B	0	0	167	0		0	0	167.402875100001	167.5028601
48041.5	0.0999827999994523	276	satiated	stimuli/non_foods\non-food_inanimate_teddy_bear.jpg	1	2	1	non-food_inanimate_teddy_bear	0	S	13	0	218	0		0	0	167.552876700001	167.6528595
48079	0.0999862999997276	277	satiated	stimuli/foods\rice_cake.jpg	1	2	1	rice_cake	1	N	10	0	258	0		0	0	167.7028712	167.8028575
48116.5	0.0999897000001511	278	satiated	stimuli/foods\baked_lamb_with_potatoes.jpg	1	2	1	baked_lamb_with_potatoes	1	L	8	0	8	0		0	0	167.8528698	167.9528595
48154	0.0999394000000393	279	satiated	stimuli/foods\strawberry.jpg	1	2	1	strawberry	1	J	6	0	272	0		0	0	168.002913	168.1028524
48962.25	0.0999775000000227	280	satiated	stimuli/non_foods\non-food_animate_porcupine.jpg	1	3	1	non-food_animate_porcupine	0	R	12	0	138	0		0	0	171.236172700001	171.336150200001
48999.75	0.0999823000001925	281	satiated	stimuli/non_foods\non-food_inanimate_chandelier.jpg	1	3	1	non-food_inanimate_chandelier	0	C	1	0	173	0		0	0	171.386168	171.4861503
49037.25	0.0999851999995371	282	satiated	stimuli/non_foods\non-food_inanimate_fire_extinguisher.jpg	1	3	1	non-food_inanimate_fire_extinguisher	0	K	7	0	181	0		0	0	171.5361657	171.6361509
49074.75	0.0999701999999161	283	satiated	stimuli/foods\rice_cake.jpg	1	3	1	rice_cake	1	J	6	0	258	0		0	0	171.6861833	171.7861535
49112.25	0.0999978999998348	284	satiated	stimuli/non_foods\non-food_inanimate_wrench.jpg	1	3	1	non-food_inanimate_wrench	0	S	13	0	227	0		0	0	171.8361425	171.9361404
49149.75	0.0999829000002137	285	satiated	stimuli/non_foods\non-food_animate_cheetah.jpg	1	3	1	non-food_animate_cheetah	0	K	7	0	100	0		0	0	171.9861577	172.0861406
49187.25	0.0999824000000444	286	satiated	stimuli/non_foods\non-food_inanimate_orchid.jpg	1	3	1	non-food_inanimate_orchid	0	W	16	0	198	0		0	0	172.1361562	172.2361386
49224.75	0.100007600000026	287	satiated	stimuli/foods\fries.jpg	1	3	1	fries	1	X	17	0	52	0		0	0	172.2861583	172.3861659
49262.25	0.0999458999995113	288	satiated	stimuli/foods\hazelnuts.jpg	1	3	1	hazelnuts	1	B	0	0	65	0		0	0	172.4361888	172.5361347
49299.75	0.0999808000005942	289	satiated	stimuli/non_foods\non-food_inanimate_alarm_clock.jpg	1	3	1	non-food_inanimate_alarm_clock	0	G	4	0	158	0		0	0	172.5861531	172.686133900001
49337.25	0.0999826999996003	290	satiated	stimuli/non_foods\non-food_animate_baby_sitting.jpg	1	3	1	non-food_animate_baby_sitting	0	Z	18	0	93	0		0	0	172.736141	172.8361237
49374.75	0.099984399999812	291	satiated	stimuli/foods\chilli.jpg	1	3	1	chilli	1	M	9	0	25	0		0	0	172.8861403	172.9861247
49412.25	0.0999836999999388	292	satiated	stimuli/non_foods\non-food_inanimate_gloves.jpg	1	3	1	non-food_inanimate_gloves	0	F	3	0	183	0		0	0	173.0361419	173.1361256
49449.75	0.099986500000341	293	satiated	stimuli/non_foods\non-food_animate_german_shepherd.jpg	1	3	1	non-food_animate_german_shepherd	0	I	21	1	114	0		0	0	173.186136	173.286122500001
49487.25	0.0999750000000859	294	satiated	stimuli/non_foods\non-food_animate_dragonfly.jpg	1	3	1	non-food_animate_dragonfly	0	N	10	0	108	0		0	0	173.336137400001	173.436112400001
49524.75	0.0999646000000212	295	satiated	stimuli/non_foods\non-food_animate_alligator.jpg	1	3	1	non-food_animate_alligator	0	R	12	0	90	0		0	0	173.4861615	173.5861261
49562.25	0.0999737000001915	296	satiated	stimuli/non_foods\non-food_inanimate_clover.jpg	1	3	1	non-food_inanimate_clover	0	H	5	0	174	0		0	0	173.6361414	173.7361151
49599.75	0.0999827000005098	297	satiated	stimuli/non_foods\non-food_inanimate_nailpolish.jpg	1	3	1	non-food_inanimate_nailpolish	0	B	0	0	195	0		0	0	173.7861302	173.886112900001
49637.25	0.0999889999993684	298	satiated	stimuli/non_foods\non-food_animate_young_boy.jpg	1	3	1	non-food_animate_young_boy	0	D	2	0	156	0		0	0	173.936127800001	174.0361168
49674.75	0.0999629999996614	299	satiated	stimuli/non_foods\non-food_animate_cow.jpg	1	3	1	non-food_animate_cow	0	K	7	0	103	0		0	0	174.086154500001	174.1861175
49712.25	0.0999781999998959	300	satiated	stimuli/non_foods\non-food_animate_parrot.jpg	1	3	1	non-food_animate_parrot	0	W	16	0	133	0		0	0	174.236137100001	174.336115300001
49749.75	0.0999824000000444	301	satiated	stimuli/non_foods\non-food_animate_giraffe.jpg	1	3	1	non-food_animate_giraffe	0	C	1	0	115	0		0	0	174.386126400001	174.486108800001
49787.25	0.0999835000002349	302	satiated	stimuli/foods\taco.jpg	1	3	1	taco	1	M	9	0	274	0		0	0	174.536131	174.6361145
49824.75	0.0999852000004466	303	satiated	stimuli/non_foods\non-food_animate_iguana.jpg	1	3	1	non-food_animate_iguana	0	W	16	0	121	0		0	0	174.6861262	174.786111400001
49862.25	0.0999739999997473	304	satiated	stimuli/non_foods\non-food_inanimate_scissors.jpg	1	3	1	non-food_inanimate_scissors	0	X	17	0	205	0		0	0	174.8361241	174.9360981
49899.75	0.0999840000004042	305	satiated	stimuli/foods\lime.jpg	1	3	1	lime	1	J	6	0	76	0		0	0	174.9861155	175.0860995
49937.25	0.099987599999622	306	satiated	stimuli/non_foods\non-food_animate_ladybug.jpg	1	3	1	non-food_animate_ladybug	0	C	1	0	124	0		0	0	175.136111000001	175.2360986
49974.75	0.0999529000000621	307	satiated	stimuli/foods\pickles.jpg	1	3	1	pickles	1	L	8	0	242	0		0	0	175.2861463	175.3860992
50012.25	0.0999822000003405	308	satiated	stimuli/foods\savory_pie.jpg	1	3	1	savory_pie	1	P	11	0	265	0		0	0	175.4361114	175.536093600001
50049.75	0.0999893999996857	309	satiated	stimuli/foods\beetroots.jpg	1	3	1	beetroots	1	N	10	0	10	0		0	0	175.586105400001	175.6860948
50087.25	0.0999989000001733	310	satiated	stimuli/non_foods\non-food_animate_baby_crawling.jpg	1	3	1	non-food_animate_baby_crawling	0	K	7	0	92	0		0	0	175.7361073	175.8361062
50124.75	0.0999675000002753	311	satiated	stimuli/non_foods\non-food_animate_bee.jpg	1	3	1	non-food_animate_bee	0	R	12	0	95	0		0	0	175.8861217	175.986089200001
50162.25	0.0999776999997266	312	satiated	stimuli/foods\grilled_chicken_breast.jpg	1	3	1	grilled_chicken_breast	1	V	15	0	63	0		0	0	176.036099800001	176.1360775
50199.75	0.100001600000724	313	satiated	stimuli/foods\red_cabbage.jpg	1	3	1	red_cabbage	1	B	0	0	256	0		0	0	176.1860889	176.286090500001
50237.25	0.0999824999998964	314	satiated	stimuli/foods\mortadella.jpg	1	3	1	mortadella	1	D	2	0	83	0		0	0	176.3361069	176.4360894
50274.75	0.0999658000000636	315	satiated	stimuli/non_foods\non-food_animate_runner.jpg	1	3	1	non-food_animate_runner	0	E	20	1	142	0		0	0	176.486125	176.5860908
50312.25	0.0999864999994315	316	satiated	stimuli/non_foods\non-food_animate_Asian_man.jpg	1	3	1	non-food_animate_Asian_man	0	K	7	0	88	0		0	0	176.6361001	176.7360866
50349.75	0.0999873000000662	317	satiated	stimuli/non_foods\non-food_animate_horse.jpg	1	3	1	non-food_animate_horse	0	F	3	0	119	1	a	0.400144100000034	1	176.7861002	176.8860875
50387.25	0.0999958000002152	318	satiated	stimuli/non_foods\non-food_inanimate_stoplight.jpg	1	3	1	non-food_inanimate_stoplight	0	N	10	0	214	0		0	0	176.9361	177.0360958
50424.75	0.0999803000004249	319	satiated	stimuli/non_foods\non-food_inanimate_couch.jpg	1	3	1	non-food_inanimate_couch	0	F	3	0	176	0		0	0	177.0860995	177.186079800001
50462.25	0.0999867000000449	320	satiated	stimuli/foods\gnocchi.jpg	1	3	1	gnocchi	1	L	8	0	58	0		0	0	177.236095	177.3360817
50499.75	0.0999824000000444	321	satiated	stimuli/non_foods\non-food_animate_kangaroo.jpg	1	3	1	non-food_animate_kangaroo	0	D	2	0	122	0		0	0	177.386096	177.4860784
50537.25	0.10000349999973	322	satiated	stimuli/non_foods\non-food_inanimate_grass.jpg	1	3	1	non-food_inanimate_grass	0	G	4	0	184	0		0	0	177.5360921	177.6360956
50574.75	0.0999455000001035	323	satiated	stimuli/non_foods\non-food_animate_deer.jpg	1	3	1	non-food_animate_deer	0	R	12	0	105	0		0	0	177.686132	177.7860775
50612.25	0.0999868000008064	324	satiated	stimuli/non_foods\non-food_animate_dachshund.jpg	1	3	1	non-food_animate_dachshund	0	N	10	0	104	0		0	0	177.8360869	177.936073700001
50649.75	0.0999867000000449	325	satiated	stimuli/foods\mango.jpg	1	3	1	mango	1	L	8	0	80	0		0	0	177.986087	178.0860737
50687.25	0.0999817000001713	326	satiated	stimuli/foods\cereal.jpg	1	3	1	cereal	1	T	14	0	22	0		0	0	178.136086	178.236067700001
50724.75	0.0999884000002567	327	satiated	stimuli/foods\omelette.jpg	1	3	1	omelette	1	H	5	0	228	0		0	0	178.286081	178.3860694
50762.25	0.0999862999997276	328	satiated	stimuli/non_foods\non-food_inanimate_suitcase.jpg	1	3	1	non-food_inanimate_suitcase	0	M	9	0	215	0		0	0	178.436081100001	178.5360674
50799.75	0.0999858000004679	329	satiated	stimuli/foods\chocolate_bar.jpg	1	3	1	chocolate_bar	1	N	10	0	26	0		0	0	178.58608	178.686065800001
50837.25	0.100003100000322	330	satiated	stimuli/non_foods\non-food_inanimate_construction_helment.jpg	1	3	1	non-food_inanimate_construction_helment	0	D	2	0	175	0		0	0	178.7360774	178.8360805
50874.75	0.0999864999994315	331	satiated	stimuli/non_foods\non-food_animate_snail.jpg	1	3	1	non-food_animate_snail	0	S	13	0	149	0		0	0	178.8860749	178.9860614
50912.25	0.0999885999999606	332	satiated	stimuli/foods\watermelon.jpg	1	3	1	watermelon	1	H	5	0	279	0		0	0	179.0360742	179.1360628
50949.75	0.0999856999997064	333	satiated	stimuli/foods\clams.jpg	1	3	1	clams	1	L	8	0	32	0		0	0	179.186072	179.2860577
50987.25	0.0999879000000874	334	satiated	stimuli/non_foods\non-food_animate_mammoth.jpg	1	3	1	non-food_animate_mammoth	0	W	16	0	128	0		0	0	179.3360668	179.436054700001
51024.75	0.0999504000001252	335	satiated	stimuli/non_foods\non-food_inanimate_guitar.jpg	1	3	1	non-food_inanimate_guitar	0	B	0	0	185	0		0	0	179.4861041	179.586054500001
51062.25	0.0999706000002334	336	satiated	stimuli/foods\museli_bars.jpg	1	3	1	museli_bars	1	N	10	0	84	0		0	0	179.636082	179.7360526
51099.75	0.099986600000193	337	satiated	stimuli/non_foods\non-food_animate_camel.jpg	1	3	1	non-food_animate_camel	0	W	16	0	97	0		0	0	179.7860662	179.8860528
51137.25	0.0999879999999393	338	satiated	stimuli/foods\potato_and_green_bean_salad.jpg	1	3	1	potato_and_green_bean_salad	1	K	7	0	246	0		0	0	179.9360619	180.0360499
51174.75	0.0999867000000449	339	satiated	stimuli/non_foods\non-food_animate_lion.jpg	1	3	1	non-food_animate_lion	0	C	1	0	125	0		0	0	180.0860627	180.1860494
51212.25	0.0999854000001505	340	satiated	stimuli/foods\tomato.jpg	1	3	1	tomato	1	Z	18	0	276	0		0	0	180.236059	180.3360444
51249.75	0.0999849999998332	341	satiated	stimuli/foods\chocolate_pralines.jpg	1	3	1	chocolate_pralines	1	J	6	0	28	0		0	0	180.386059	180.486044
51287.25	0.0999560999998721	342	satiated	stimuli/foods\cucumber.jpg	1	3	1	cucumber	1	S	13	0	41	0		0	0	180.5360845	180.6360406
51324.75	0.0999884000002567	343	satiated	stimuli/non_foods\non-food_animate_mouse.jpg	1	3	1	non-food_animate_mouse	0	F	3	0	131	0		0	0	180.6860543	180.786042700001
51362.25	0.0999838000007003	344	satiated	stimuli/foods\swordfish.jpg	1	3	1	swordfish	1	N	10	0	273	0		0	0	180.8360537	180.936037500001
51399.75	0.0999857999995584	345	satiated	stimuli/foods\lettuce.jpg	1	3	1	lettuce	1	W	16	0	75	0		0	0	180.986051100001	181.0860369
51437.25	0.10000459999992	346	satiated	stimuli/non_foods\non-food_animate_elephant.jpg	1	3	1	non-food_animate_elephant	0	C	1	0	111	0		0	0	181.136050900001	181.2360555
51474.75	0.0999425999998493	347	satiated	stimuli/foods\mandarin.jpg	1	3	1	mandarin	1	M	9	0	79	0		0	0	181.286089900001	181.386032500001
51512.25	0.0999853999992411	348	satiated	stimuli/non_foods\non-food_animate_duck.jpg	1	3	1	non-food_animate_duck	0	B	0	0	109	0		0	0	181.436046100001	181.5360315
51549.75	0.0999855000000025	349	satiated	stimuli/non_foods\non-food_inanimate_tree.jpg	1	3	1	non-food_inanimate_tree	0	V	15	0	223	0		0	0	181.586049	181.6860345
51587.25	0.099986500000341	350	satiated	stimuli/foods\raisins.jpg	1	3	1	raisins	1	G	4	0	252	0		0	0	181.7360418	181.8360283
51624.75	0.0999956999994538	351	satiated	stimuli/foods\brussel_sprouts.jpg	1	3	1	brussel_sprouts	1	F	3	0	15	0		0	0	181.8860399	181.9860356
51662.25	0.0999855999998545	352	satiated	stimuli/non_foods\non-food_inanimate_bed.jpg	1	3	1	non-food_inanimate_bed	0	D	2	0	160	0		0	0	182.036043900001	182.1360295
51699.75	0.0999842999999601	353	satiated	stimuli/foods\ginger_root.jpg	1	3	1	ginger_root	1	L	8	0	57	0		0	0	182.1860379	182.2860222
51737.25	0.0999785000003612	354	satiated	stimuli/non_foods\non-food_animate_penguin.jpg	1	3	1	non-food_animate_penguin	0	P	11	0	135	0		0	0	182.3360462	182.4360247
51774.75	0.09997790000034	355	satiated	stimuli/non_foods\non-food_animate_swan.jpg	1	3	1	non-food_animate_swan	0	R	12	0	152	0		0	0	182.4860397	182.586017600001
51812.25	0.0999846000004254	356	satiated	stimuli/foods\roasted_chicken.jpg	1	3	1	roasted_chicken	1	K	7	0	261	0		0	0	182.6360341	182.7360187
51849.75	0.0999887999996645	357	satiated	stimuli/foods\pineapple.jpg	1	3	1	pineapple	1	W	16	0	243	0		0	0	182.786033	182.8860218
51887.25	0.100017599999774	358	satiated	stimuli/foods\donut.jpg	1	3	1	donut	1	B	0	0	44	0		0	0	182.9360421	183.0360597
51924.75	0.0999666999996407	359	satiated	stimuli/foods\pear.jpg	1	3	1	pear	1	I	21	1	239	0		0	0	183.086049	183.1860157
51962.25	0.0999827999994523	360	satiated	stimuli/non_foods\non-food_animate_bat.jpg	1	3	1	non-food_animate_bat	0	P	11	0	94	0		0	0	183.2360279	183.3360107
51999.75	0.0999856999997064	361	satiated	stimuli/non_foods\non-food_inanimate_skirt.jpg	1	3	1	non-food_inanimate_skirt	0	X	17	0	209	0		0	0	183.3860221	183.4860078
52037.25	0.0999896000002991	362	satiated	stimuli/foods\nectarine.jpg	1	3	1	nectarine	1	R	12	0	87	0		0	0	183.5360219	183.636011500001
52074.75	0.0999858000004679	363	satiated	stimuli/non_foods\non-food_animate_peacock.jpg	1	3	1	non-food_animate_peacock	0	P	11	0	134	0		0	0	183.686022	183.7860078
52112.25	0.100006499999836	364	satiated	stimuli/foods\cream_donuts.jpg	1	3	1	cream_donuts	1	N	10	0	39	0		0	0	183.8359995	183.936006
52149.75	0.0999842000001081	365	satiated	stimuli/non_foods\non-food_animate_pigeon.jpg	1	3	1	non-food_animate_pigeon	0	L	8	0	136	0		0	0	183.9860208	184.086005
52187.25	0.099960700000338	366	satiated	stimuli/foods\lollies.jpg	1	3	1	lollies	1	J	6	0	78	0		0	0	184.1360409	184.2360016
52224.75	0.0999840000004042	367	satiated	stimuli/non_foods\non-food_inanimate_bicycle.jpg	1	3	1	non-food_inanimate_bicycle	0	N	10	0	161	0		0	0	184.2860198	184.3860038
52262.25	0.0999861999998757	368	satiated	stimuli/foods\chocolate_pudding.jpg	1	3	1	chocolate_pudding	1	V	15	0	29	0		0	0	184.4360143	184.5360005
52299.75	0.0999850000007427	369	satiated	stimuli/foods\fruit_flan.jpg	1	3	1	fruit_flan	1	G	4	0	53	0		0	0	184.5860131	184.685998100001
52337.25	0.100021199999901	370	satiated	stimuli/foods\chocolate_chip_cookies.jpg	1	3	1	chocolate_chip_cookies	1	B	0	0	27	0		0	0	184.7360017	184.8360229
52374.75	0.0999547000001257	371	satiated	stimuli/non_foods\non-food_inanimate_table.jpg	1	3	1	non-food_inanimate_table	0	K	7	0	217	0		0	0	184.886041100001	184.985995800001
52412.25	0.0999882999994952	372	satiated	stimuli/foods\pepperoni_pizza.jpg	1	3	1	pepperoni_pizza	1	L	8	0	241	0		0	0	185.036005200001	185.1359935
52449.75	0.0999836999999388	373	satiated	stimuli/foods\wafer.jpg	1	3	1	wafer	1	B	0	0	277	0		0	0	185.1860039	185.2859876
52487.25	0.0999847000002774	374	satiated	stimuli/foods\orange.jpg	1	3	1	orange	1	N	10	0	230	0		0	0	185.3360021	185.4359868
52524.75	0.0999897000001511	375	satiated	stimuli/foods\spring_onions.jpg	1	3	1	spring_onions	1	D	2	0	269	0		0	0	185.4859999	185.5859896
52562.25	0.0999855000000025	376	satiated	stimuli/non_foods\non-food_animate_polar_bear.jpg	1	3	1	non-food_animate_polar_bear	0	L	8	0	137	0		0	0	185.6359991	185.7359846
52599.75	0.0999721000007412	377	satiated	stimuli/non_foods\non-food_animate_fox.jpg	1	3	1	non-food_animate_fox	0	K	7	0	112	0		0	0	185.785997	185.885969100001
52637.25	0.0999847000002774	378	satiated	stimuli/non_foods\non-food_animate_lizard.jpg	1	3	1	non-food_animate_lizard	0	J	6	0	126	0		0	0	185.935994	186.035978700001
52674.75	0.0999853999992411	379	satiated	stimuli/non_foods\non-food_animate_tortoise.jpg	1	3	1	non-food_animate_tortoise	0	S	13	0	153	0		0	0	186.085994200001	186.1859796
52712.25	0.0999850000007427	380	satiated	stimuli/non_foods\non-food_inanimate_fern.jpg	1	3	1	non-food_inanimate_fern	0	J	6	0	180	0		0	0	186.2359939	186.335978900001
52749.75	0.0999883999993472	381	satiated	stimuli/non_foods\non-food_inanimate_cactus_pot_plant.jpg	1	3	1	non-food_inanimate_cactus_pot_plant	0	N	10	0	169	0		0	0	186.385989400001	186.4859778
52787.25	0.100014300000112	382	satiated	stimuli/non_foods\non-food_inanimate_pine_cone.jpg	1	3	1	non-food_inanimate_pine_cone	0	G	4	0	200	0		0	0	186.5360032	186.6360175
52824.75	0.0999597999998514	383	satiated	stimuli/non_foods\non-food_inanimate_waterlily.jpg	1	3	1	non-food_inanimate_waterlily	0	K	7	0	226	0		0	0	186.686012900001	186.7859727
52862.25	0.0999864999994315	384	satiated	stimuli/foods\stew_with_potatoes_and_carrots.jpg	1	3	1	stew_with_potatoes_and_carrots	1	H	5	0	271	0		0	0	186.835988100001	186.9359746
52899.75	0.0999909000001935	385	satiated	stimuli/foods\cannoli.jpg	1	3	1	cannoli	1	F	3	0	17	0		0	0	186.9859781	187.085969000001
52937.25	0.0999816000003193	386	satiated	stimuli/non_foods\non-food_inanimate_skateboard.jpg	1	3	1	non-food_inanimate_skateboard	0	W	16	0	208	0		0	0	187.1359831	187.2359647
52974.75	0.0999855000000025	387	satiated	stimuli/foods\cinnamon.jpg	1	3	1	cinnamon	1	K	7	0	30	0		0	0	187.285979	187.3859645
53012.25	0.0999824000000444	388	satiated	stimuli/non_foods\non-food_inanimate_moss.jpg	1	3	1	non-food_inanimate_moss	0	V	15	0	194	0		0	0	187.435982	187.5359644
53049.75	0.10000189999937	389	satiated	stimuli/foods\lentils.jpg	1	3	1	lentils	1	M	9	0	74	0		0	0	187.5859759	187.6859778
53087.25	0.0999486999999135	390	satiated	stimuli/foods\lamb_chops.jpg	1	3	1	lamb_chops	1	L	8	0	70	0		0	0	187.7359892	187.8359379
53124.75	0.0999840999993467	391	satiated	stimuli/foods\green_beans.jpg	1	3	1	green_beans	1	D	2	0	61	0		0	0	187.885968000001	187.9859521
53162.25	0.0999855000000025	392	satiated	stimuli/foods\salami.jpg	1	3	1	salami	1	J	6	0	263	0		0	0	188.0359632	188.1359487
53199.75	0.099992999999813	393	satiated	stimuli/foods\spaghetti_with_meat_sauce.jpg	1	3	1	spaghetti_with_meat_sauce	1	V	15	0	267	0		0	0	188.185972	188.285965
53237.25	0.0999554999998509	394	satiated	stimuli/foods\toasted_bread_with_tomatoes.jpg	1	3	1	toasted_bread_with_tomatoes	1	Z	18	0	275	0		0	0	188.335999100001	188.435954600001
53274.75	0.0999673000005714	395	satiated	stimuli/foods\fried_zucchini.jpg	1	3	1	fried_zucchini	1	F	3	0	51	0		0	0	188.4859692	188.585936500001
53312.25	0.100011100000302	396	satiated	stimuli/foods\minestrone_soup.jpg	1	3	1	minestrone_soup	1	R	12	0	82	0		0	0	188.6359387	188.735949800001
53349.75	0.0999824000000444	397	satiated	stimuli/non_foods\non-food_animate_rhino.jpg	1	3	1	non-food_animate_rhino	0	W	16	0	141	0		0	0	188.7859632	188.8859456
53387.25	0.099987599999622	398	satiated	stimuli/foods\brownie.jpg	1	3	1	brownie	1	X	17	0	14	0		0	0	188.935962	189.0359496
53424.75	0.0999855000000025	399	satiated	stimuli/non_foods\non-food_inanimate_buds.jpg	1	3	1	non-food_inanimate_buds	0	B	0	0	166	0		0	0	189.0859601	189.1859456
53462.25	0.0999895999993896	400	satiated	stimuli/foods\blackberry.jpg	1	3	1	blackberry	1	N	10	0	11	0		0	0	189.235955900001	189.3359455
53499.75	0.0999209999999948	401	satiated	stimuli/non_foods\non-food_animate_skunk.jpg	1	3	1	non-food_animate_skunk	0	B	0	0	147	0		0	0	189.3860216	189.4859426
53537.25	0.0999708999997893	402	satiated	stimuli/foods\onion.jpg	1	3	1	onion	1	Z	18	0	229	0		0	0	189.535970700001	189.6359416
53574.75	0.0999712000002546	403	satiated	stimuli/foods\salmon.jpg	1	3	1	salmon	1	H	5	0	264	0		0	0	189.6859586	189.7859298
53612.25	0.0999814999995579	404	satiated	stimuli/foods\raw_sausage.jpg	1	3	1	raw_sausage	1	J	6	0	254	0		0	0	189.8359477	189.9359292
53649.75	0.100005899999815	405	satiated	stimuli/foods\honey.jpg	1	3	1	honey	1	N	10	0	66	0		0	0	189.9859397	190.0859456
53687.25	0.0999722000005931	406	satiated	stimuli/non_foods\non-food_animate_hummingbird.jpg	1	3	1	non-food_animate_hummingbird	0	S	13	0	120	0		0	0	190.1359623	190.2359345
53724.75	0.099984399999812	407	satiated	stimuli/non_foods\non-food_inanimate_short_sleeved_shirt.jpg	1	3	1	non-food_inanimate_short_sleeved_shirt	0	L	8	0	207	0		0	0	190.285945500001	190.385929900001
53762.25	0.0999891000001298	408	satiated	stimuli/foods\fruit_pie.jpg	1	3	1	fruit_pie	1	W	16	0	54	0		0	0	190.4359439	190.535933
53799.75	0.0999846999993679	409	satiated	stimuli/foods\mushroom.jpg	1	3	1	mushroom	1	N	10	0	85	0		0	0	190.585943900001	190.6859286
53837.25	0.0999836999999388	410	satiated	stimuli/foods\papaya.jpg	1	3	1	papaya	1	G	4	0	235	0		0	0	190.735941	190.8359247
53874.75	0.099984499999664	411	satiated	stimuli/non_foods\non-food_inanimate_chair.jpg	1	3	1	non-food_inanimate_chair	0	K	7	0	172	0		0	0	190.8859411	190.9859256
53912.25	0.0999862999997276	412	satiated	stimuli/foods\ice_cream.jpg	1	3	1	ice_cream	1	V	15	0	68	0		0	0	191.0359371	191.1359234
53949.75	0.0999895000004472	413	satiated	stimuli/non_foods\non-food_animate_slug.jpg	1	3	1	non-food_animate_slug	0	Z	18	0	148	0		0	0	191.1859353	191.2859248
53987.25	0.0999940000001516	414	satiated	stimuli/foods\prawn.jpg	1	3	1	prawn	1	X	17	0	249	0		0	0	191.3359284	191.4359224
54024.75	0.100002600000153	415	satiated	stimuli/foods\fennel.jpg	1	3	1	fennel	1	J	6	0	47	0		0	0	191.4859365	191.5859391
54062.25	0.0999860000001718	416	satiated	stimuli/non_foods\non-food_animate_seahorse.jpg	1	3	1	non-food_animate_seahorse	0	F	3	0	145	0		0	0	191.6359322	191.7359182
54099.75	0.100015600000006	417	satiated	stimuli/foods\baked_cod_with_carrots_and_green_beans.jpg	1	3	1	baked_cod_with_carrots_and_green_beans	1	B	0	0	7	0		0	0	191.7859307	191.8859463
54137.25	0.0999283999999534	418	satiated	stimuli/non_foods\non-food_animate_donkey.jpg	1	3	1	non-food_animate_donkey	0	W	16	0	107	0		0	0	191.935985300001	192.0359137
54174.75	0.100001099999645	419	satiated	stimuli/non_foods\non-food_animate_seal.jpg	1	3	1	non-food_animate_seal	0	H	5	0	146	0		0	0	192.0859128	192.1859139
54633.25	0.0999786000002132	420	satiated	stimuli/non_foods\non-food_inanimate_leaf.jpg	1	4	1	non-food_inanimate_leaf	0	R	12	0	192	0		0	0	193.9192462	194.0192248
54670.5	0.0999767000002976	421	satiated	stimuli/foods\risotto_with_peas_and_asparagus_tips.jpg	1	4	1	risotto_with_peas_and_asparagus_tips	1	L	8	0	259	0		0	0	194.0692421	194.169218800001
54708.25	0.10001370000009	422	satiated	stimuli/foods\coffee_beans.jpg	1	4	1	coffee_beans	1	D	2	0	34	0		0	0	194.2192501	194.3192638
54745.75	0.0999689999998736	423	satiated	stimuli/non_foods\non-food_animate_clown.jpg	1	4	1	non-food_animate_clown	0	R	12	0	102	0		0	0	194.369251800001	194.469220800001
54783	0.0999909000001935	424	satiated	stimuli/foods\meatballs.jpg	1	4	1	meatballs	1	M	9	0	81	0		0	0	194.5192248	194.6192157
54820.5	0.0999855000000025	425	satiated	stimuli/foods\smoked_ham.jpg	1	4	1	smoked_ham	1	F	3	0	266	0		0	0	194.669229900001	194.769215400001
54858	0.0999826999996003	426	satiated	stimuli/non_foods\non-food_inanimate_briefcase.jpg	1	4	1	non-food_inanimate_briefcase	0	L	8	0	163	0		0	0	194.819231	194.9192137
54895.5	0.0999878000002354	427	satiated	stimuli/foods\fried_calamari.jpg	1	4	1	fried_calamari	1	B	0	0	50	0		0	0	194.9692273	195.0692151
54933	0.0999835000002349	428	satiated	stimuli/foods\cracker.jpg	1	4	1	cracker	1	L	8	0	38	0		0	0	195.119228	195.219211500001
54970.5	0.0999863000006371	429	satiated	stimuli/non_foods\non-food_inanimate_rack.jpg	1	4	1	non-food_inanimate_rack	0	M	9	0	202	0		0	0	195.2692232	195.369209500001
55008.25	0.0999761999992188	430	satiated	stimuli/non_foods\non-food_animate_monkey.jpg	1	4	1	non-food_animate_monkey	0	I	21	1	130	0		0	0	195.419236600001	195.5192128
55045.5	0.0999858999994103	431	satiated	stimuli/foods\pea_pod.jpg	1	4	1	pea_pod	1	V	15	0	237	0		0	0	195.569221100001	195.669207
55083	0.0999857000006159	432	satiated	stimuli/non_foods\non-food_inanimate_headphones.jpg	1	4	1	non-food_inanimate_headphones	0	L	8	0	188	0		0	0	195.71922	195.819205700001
55120.5	0.0999859000003198	433	satiated	stimuli/non_foods\non-food_animate_gorilla.jpg	1	4	1	non-food_animate_gorilla	0	D	2	0	116	0		0	0	195.8692185	195.9692044
55158	0.100003800000195	434	satiated	stimuli/non_foods\non-food_inanimate_bamboo.jpg	1	4	1	non-food_inanimate_bamboo	0	W	16	0	159	0		0	0	196.0192292	196.119233
55195.5	0.0999769000000015	435	satiated	stimuli/foods\dates.jpg	1	4	1	dates	1	R	12	0	43	0		0	0	196.1692295	196.2692064
55233	0.0999887999996645	436	satiated	stimuli/foods\cinnamon_sroll.jpg	1	4	1	cinnamon_sroll	1	W	16	0	31	0		0	0	196.3192121	196.4192009
55270.5	0.0999856999997064	437	satiated	stimuli/foods\almonds.jpg	1	4	1	almonds	1	G	4	0	0	0		0	0	196.4692111	196.5691968
55308	0.100005700000111	438	satiated	stimuli/foods\lemon_meringue_pie.jpg	1	4	1	lemon_meringue_pie	1	S	13	0	73	0		0	0	196.6191915	196.7191972
55345.5	0.0999848000001293	439	satiated	stimuli/foods\oyster.jpg	1	4	1	oyster	1	W	16	0	233	0		0	0	196.7692084	196.8691932
55383	0.099986600000193	440	satiated	stimuli/non_foods\non-food_inanimate_cupboard.jpg	1	4	1	non-food_inanimate_cupboard	0	Z	18	0	177	0		0	0	196.9192063	197.0191929
55420.5	0.0999729000004663	441	satiated	stimuli/foods\cooked_ham.jpg	1	4	1	cooked_ham	1	C	1	0	35	0		0	0	197.0692183	197.169191200001
55458	0.0999653999997463	442	satiated	stimuli/non_foods\non-food_inanimate_hammer.jpg	1	4	1	non-food_inanimate_hammer	0	S	13	0	186	0		0	0	197.2192247	197.3191901
55495.5	0.0999848999999813	443	satiated	stimuli/non_foods\non-food_inanimate_horn.jpg	1	4	1	non-food_inanimate_horn	0	C	1	0	190	0		0	0	197.3692035	197.4691884
55533	0.099983400000383	444	satiated	stimuli/non_foods\non-food_animate_llama.jpg	1	4	1	non-food_animate_llama	0	K	7	0	127	0		0	0	197.5192021	197.619185500001
55570.5	0.100021599999309	445	satiated	stimuli/non_foods\non-food_inanimate_tulip.jpg	1	4	1	non-food_inanimate_tulip	0	X	17	0	224	0		0	0	197.669198500001	197.7692201
55608	0.0999693999992814	446	satiated	stimuli/non_foods\non-food_inanimate_speakers.jpg	1	4	1	non-food_inanimate_speakers	0	L	8	0	212	0		0	0	197.819213700001	197.9191831
55645.5	0.0999645000001692	447	satiated	stimuli/foods\pancakes.jpg	1	4	1	pancakes	1	P	11	0	234	0		0	0	197.9692051	198.0691696
55683	0.0999977000001309	448	satiated	stimuli/foods\carrot.jpg	1	4	1	carrot	1	X	17	0	19	0		0	0	198.119182	198.2191797
55720.5	0.0999862999997276	449	satiated	stimuli/foods\potatoes.jpg	1	4	1	potatoes	1	H	5	0	248	0		0	0	198.2691818	198.3691681
55758	0.0999836000000869	450	satiated	stimuli/foods\figs.jpg	1	4	1	figs	1	R	12	0	48	0		0	0	198.4191811	198.5191647
55795.5	0.0999768000001495	451	satiated	stimuli/foods\linguine_with_clams.jpg	1	4	1	linguine_with_clams	1	T	14	0	77	0		0	0	198.5691816	198.6691584
55833	0.0999908000003416	452	satiated	stimuli/non_foods\non-food_inanimate_hay.jpg	1	4	1	non-food_inanimate_hay	0	H	5	0	187	0		0	0	198.7191714	198.8191622
55870.5	0.0999881999996433	453	satiated	stimuli/non_foods\non-food_inanimate_towel.jpg	1	4	1	non-food_inanimate_towel	0	S	13	0	221	0		0	0	198.8691741	198.9691623
55908	0.0999767000002976	454	satiated	stimuli/foods\cupcake.jpg	1	4	1	cupcake	1	K	7	0	42	0		0	0	199.0191898	199.119166500001
55945.5	0.100012500000048	455	satiated	stimuli/non_foods\non-food_animate_student_female.jpg	1	4	1	non-food_animate_student_female	0	C	1	0	151	0		0	0	199.1691541	199.2691666
55983	0.0999861999998757	456	satiated	stimuli/foods\pasta_carbonara.jpg	1	4	1	pasta_carbonara	1	N	10	0	236	0		0	0	199.319179800001	199.419166000001
56020.5	0.100003300000026	457	satiated	stimuli/non_foods\non-food_inanimate_folding_chair.jpg	1	4	1	non-food_inanimate_folding_chair	0	K	7	0	182	0		0	0	199.4691665	199.5691698
56058	0.0999707000000853	458	satiated	stimuli/foods\pork_and_rice.jpg	1	4	1	pork_and_rice	1	T	14	0	245	0		0	0	199.619180600001	199.719151300001
56095.5	0.0999665999997887	459	satiated	stimuli/non_foods\non-food_inanimate_stapler.jpg	1	4	1	non-food_inanimate_stapler	0	W	16	0	213	0		0	0	199.7691946	199.8691612
56133	0.0999854000001505	460	satiated	stimuli/foods\bagel.jpg	1	4	1	bagel	1	V	15	0	6	0		0	0	199.919173	200.0191584
56170.5	0.099983300000531	461	satiated	stimuli/non_foods\non-food_animate_woman.jpg	1	4	1	non-food_animate_woman	0	X	17	0	154	0		0	0	200.0691767	200.16916
56208	0.100014500000725	462	satiated	stimuli/foods\banana.jpg	1	4	1	banana	1	H	5	0	9	0		0	0	200.2191727	200.319187200001
56245.5	0.0999837999997908	463	satiated	stimuli/non_foods\non-food_animate_cat.jpg	1	4	1	non-food_animate_cat	0	V	15	0	98	0		0	0	200.369169600001	200.4691534
56283	0.0999866999991355	464	satiated	stimuli/non_foods\non-food_animate_eagle.jpg	1	4	1	non-food_animate_eagle	0	W	16	0	110	0		0	0	200.519167400001	200.6191541
56320.5	0.0999853000002986	465	satiated	stimuli/non_foods\non-food_animate_dolphin.jpg	1	4	1	non-food_animate_dolphin	0	V	15	0	106	0		0	0	200.6691671	200.7691524
56358	0.0999728000006144	466	satiated	stimuli/non_foods\non-food_animate_frog.jpg	1	4	1	non-food_animate_frog	0	T	14	0	113	0		0	0	200.8191779	200.919150700001
56395.5	0.100003100000322	467	satiated	stimuli/non_foods\non-food_animate_grasshopper.jpg	1	4	1	non-food_animate_grasshopper	0	K	7	0	117	0		0	0	200.9691516	201.069154700001
56433	0.0999848000001293	468	satiated	stimuli/non_foods\non-food_inanimate_shell.jpg	1	4	1	non-food_inanimate_shell	0	L	8	0	206	0		0	0	201.11916	201.2191448
56470.5	0.0999913999994533	469	satiated	stimuli/foods\radish.jpg	1	4	1	radish	1	P	11	0	251	0		0	0	201.269156400001	201.3691478
56508.25	0.0999344000001656	470	satiated	stimuli/foods\spinach.jpg	1	4	1	spinach	1	U	23	1	268	0		0	0	201.4192043	201.5191387
56545.5	0.0999842999999601	471	satiated	stimuli/non_foods\non-food_inanimate_socks.jpg	1	4	1	non-food_inanimate_socks	0	G	4	0	211	0		0	0	201.569152200001	201.669136500001
56583	0.0999835000002349	472	satiated	stimuli/foods\croissant.jpg	1	4	1	croissant	1	D	2	0	40	0		0	0	201.7191531	201.8191366
56620.5	0.0999873999999181	473	satiated	stimuli/non_foods\non-food_inanimate_drum_set.jpg	1	4	1	non-food_inanimate_drum_set	0	G	4	0	179	1	a	0.541771600000175	1	201.869149300001	201.9691367
56658	0.0999864000004891	474	satiated	stimuli/non_foods\non-food_inanimate_bowling_ball.jpg	1	4	1	non-food_inanimate_bowling_ball	0	V	15	0	162	0		0	0	202.0191482	202.119134600001
56695.5	0.0999852999993891	475	satiated	stimuli/foods\steak.jpg	1	4	1	steak	1	T	14	0	270	0		0	0	202.1691464	202.2691317
56733	0.099981200000002	476	satiated	stimuli/non_foods\non-food_animate_squirrel.jpg	1	4	1	non-food_animate_squirrel	0	Z	18	0	150	0		0	0	202.3191452	202.4191264
56770.5	0.100004099999751	477	satiated	stimuli/non_foods\non-food_inanimate_soccer_ball.jpg	1	4	1	non-food_inanimate_soccer_ball	0	B	0	0	210	0		0	0	202.4691404	202.5691445
56808	0.0999791000003825	478	satiated	stimuli/non_foods\non-food_animate_chicken.jpg	1	4	1	non-food_animate_chicken	0	H	5	0	101	0		0	0	202.6191446	202.719123700001
56845.5	0.0999853999992411	479	satiated	stimuli/foods\lasagna.jpg	1	4	1	lasagna	1	B	0	0	71	0		0	0	202.769139200001	202.8691246
56883	0.0999865999992835	480	satiated	stimuli/non_foods\non-food_inanimate_canoe.jpg	1	4	1	non-food_inanimate_canoe	0	W	16	0	170	0		0	0	202.919139000001	203.0191256
56920.5	0.100036699999691	481	satiated	stimuli/non_foods\non-food_inanimate_button.jpg	1	4	1	non-food_inanimate_button	0	G	4	0	168	0		0	0	203.069119000001	203.1691557
56958	0.0999490000003789	482	satiated	stimuli/foods\risotto_with_zucchini.jpg	1	4	1	risotto_with_zucchini	1	F	3	0	260	0		0	0	203.2191561	203.3191051
56995.5	0.0999730000003183	483	satiated	stimuli/foods\artichoke.jpg	1	4	1	artichoke	1	C	1	0	3	0		0	0	203.3691386	203.4691116
57033	0.0999881999996433	484	satiated	stimuli/foods\raw_ham.jpg	1	4	1	raw_ham	1	F	3	0	253	0		0	0	203.5191203	203.6191085
57070.5	0.0999846999993679	485	satiated	stimuli/foods\frankfurter_and_provolone_salad.jpg	1	4	1	frankfurter_and_provolone_salad	1	T	14	0	49	0		0	0	203.6691237	203.7691084
57108	0.0999853000002986	486	satiated	stimuli/foods\fruit_salad.jpg	1	4	1	fruit_salad	1	V	15	0	55	0		0	0	203.8191297	203.919115000001
57145.5	0.0999767000002976	487	satiated	stimuli/foods\broccoli.jpg	1	4	1	broccoli	1	H	5	0	13	0		0	0	203.9691296	204.0691063
57183	0.10000029999992	488	satiated	stimuli/foods\cauliflower.jpg	1	4	1	cauliflower	1	F	3	0	20	1	a	0	0	204.119109300001	204.219109600001
57220.5	0.0999848000001293	489	satiated	stimuli/non_foods\non-food_inanimate_nettle.jpg	1	4	1	non-food_inanimate_nettle	0	B	0	0	197	0		0	0	204.2691223	204.3691071
57258	0.0999837999997908	490	satiated	stimuli/non_foods\non-food_inanimate_desk.jpg	1	4	1	non-food_inanimate_desk	0	P	11	0	178	0		0	0	204.4191206	204.5191044
57295.5	0.0999879999999393	491	satiated	stimuli/foods\rice.jpg	1	4	1	rice	1	T	14	0	257	0		0	0	204.569119700001	204.6691077
57333	0.0999855999998545	492	satiated	stimuli/non_foods\non-food_animate_ant.jpg	1	4	1	non-food_animate_ant	0	Z	18	0	91	0		0	0	204.7191171	204.8191027
57370.5	0.100007600000026	493	satiated	stimuli/foods\hamburger.jpg	1	4	1	hamburger	1	W	16	0	64	0		0	0	204.869117	204.9691246
57408	0.0999416999993628	494	satiated	stimuli/foods\avocado.jpg	1	4	1	avocado	1	N	10	0	5	0		0	0	205.0191571	205.1190988
57445.5	0.0999877000003835	495	satiated	stimuli/foods\asparagus.jpg	1	4	1	asparagus	1	K	7	0	4	0		0	0	205.1691111	205.2690988
57483	0.0999947000000247	496	satiated	stimuli/non_foods\non-food_inanimate_cap.jpg	1	4	1	non-food_inanimate_cap	0	H	5	0	171	0		0	0	205.319112	205.4191067
57520.5	0.099983400000383	497	satiated	stimuli/foods\oven-roasted_tomatoes.jpg	1	4	1	oven-roasted_tomatoes	1	W	16	0	232	0		0	0	205.4691082	205.5690916
57558	0.0999892999998337	498	satiated	stimuli/non_foods\non-food_inanimate_teddy_bear.jpg	1	4	1	non-food_inanimate_teddy_bear	0	X	17	0	218	0		0	0	205.619106300001	205.7190956
57595.5	0.0999834999993254	499	satiated	stimuli/non_foods\non-food_animate_sea_turtle.jpg	1	4	1	non-food_animate_sea_turtle	0	V	15	0	144	0		0	0	205.7691061	205.8690896
57633	0.0999823000001925	500	satiated	stimuli/non_foods\non-food_animate_young_girl.jpg	1	4	1	non-food_animate_young_girl	0	Z	18	0	157	0		0	0	205.9191042	206.0190865
57670.5	0.0999720999998317	501	satiated	stimuli/non_foods\non-food_inanimate_toy_airplane.jpg	1	4	1	non-food_inanimate_toy_airplane	0	N	10	0	222	0		0	0	206.0691175	206.1690896
57708	0.0999852999993891	502	satiated	stimuli/foods\celery.jpg	1	4	1	celery	1	C	1	0	21	0		0	0	206.219099200001	206.3190845
57745.5	0.0999906000006376	503	satiated	stimuli/non_foods\non-food_animate_yellow_bug.jpg	1	4	1	non-food_animate_yellow_bug	0	P	11	0	155	0		0	0	206.3690962	206.469086800001
57783	0.0999855000000025	504	satiated	stimuli/foods\coconut.jpg	1	4	1	coconut	1	B	0	0	33	0		0	0	206.5190979	206.6190834
57820.5	0.100013799999942	505	satiated	stimuli/foods\oregano.jpg	1	4	1	oregano	1	W	16	0	231	0		0	0	206.6691099	206.7691237
57858	0.0999794999997903	506	satiated	stimuli/foods\red_beans.jpg	1	4	1	red_beans	1	C	1	0	255	0		0	0	206.819090800001	206.9190703
57895.5	0.0999818999998752	507	satiated	stimuli/foods\cherry.jpg	1	4	1	cherry	1	K	7	0	23	0		0	0	206.9690894	207.0690713
57933	0.0999871000003623	508	satiated	stimuli/foods\green_olives.jpg	1	4	1	green_olives	1	J	6	0	62	0		0	0	207.1190825	207.219069600001
57970.5	0.0999851000005947	509	satiated	stimuli/non_foods\non-food_inanimate_bush.jpg	1	4	1	non-food_inanimate_bush	0	Z	18	0	167	0		0	0	207.2690832	207.3690683
58008	0.0999847000002774	510	satiated	stimuli/foods\peach.jpg	1	4	1	peach	1	L	8	0	238	0		0	0	207.4190795	207.519064200001
58045.5	0.0999855000000025	511	satiated	stimuli/non_foods\non-food_inanimate_broom.jpg	1	4	1	non-food_inanimate_broom	0	M	9	0	164	0		0	0	207.569079700001	207.669065200001
58083	0.0999842000001081	512	satiated	stimuli/foods\waffle.jpg	1	4	1	waffle	1	N	10	0	278	0		0	0	207.7190865	207.8190707
58120.5	0.0999618000005285	513	satiated	stimuli/foods\eggplant.jpg	1	4	1	eggplant	1	K	7	0	46	0		0	0	207.8691074	207.9690692
58158	0.0999864999994315	514	satiated	stimuli/non_foods\non-food_inanimate_nest.jpg	1	4	1	non-food_inanimate_nest	0	L	8	0	196	0		0	0	208.019073500001	208.11906
58195.5	0.0999853000002986	515	satiated	stimuli/foods\rockmelon.jpg	1	4	1	rockmelon	1	V	15	0	262	0		0	0	208.1690699	208.2690552
58233	0.100018799999816	516	satiated	stimuli/non_foods\non-food_animate_Causasian_man.jpg	1	4	1	non-food_animate_Causasian_man	0	D	2	0	89	0		0	0	208.3190709	208.4190897
58270.5	0.0999762000001283	517	satiated	stimuli/foods\chestnut.jpg	1	4	1	chestnut	1	W	16	0	24	0		0	0	208.469088	208.5690642
58308	0.0999704000005295	518	satiated	stimuli/non_foods\non-food_inanimate_jeans.jpg	1	4	1	non-food_inanimate_jeans	0	V	15	0	191	0		0	0	208.6190913	208.719061700001
58345.5	0.0999859999992623	519	satiated	stimuli/foods\corncob.jpg	1	4	1	corncob	1	K	7	0	37	0		0	0	208.769074100001	208.8690601
58383	0.0999861000000237	520	satiated	stimuli/foods\capsicum.jpg	1	4	1	capsicum	1	P	11	0	18	0		0	0	208.9190718	209.0190579
58420.5	0.0999868999997489	521	satiated	stimuli/non_foods\non-food_animate_owl.jpg	1	4	1	non-food_animate_owl	0	T	14	0	132	0		0	0	209.0690696	209.1690565
58458	0.0999861000000237	522	satiated	stimuli/non_foods\non-food_animate_green_bug.jpg	1	4	1	non-food_animate_green_bug	0	L	8	0	118	0		0	0	209.2190694	209.3190555
58495.5	0.0999857999995584	523	satiated	stimuli/foods\kiwi.jpg	1	4	1	kiwi	1	J	6	0	69	0		0	0	209.3690652	209.469051
58533	0.0999666999996407	524	satiated	stimuli/non_foods\non-food_inanimate_watering_can.jpg	1	4	1	non-food_inanimate_watering_can	0	R	12	0	225	0		0	0	209.5190854	209.6190521
58570.5	0.0999601000003167	525	satiated	stimuli/foods\potato_chips.jpg	1	4	1	potato_chips	1	T	14	0	247	0		0	0	209.6690884	209.7690485
58608	0.0999881999996433	526	satiated	stimuli/non_foods\non-food_inanimate_rope.jpg	1	4	1	non-food_inanimate_rope	0	B	0	0	204	0		0	0	209.8190608	209.919049
58645.5	0.0999701000000641	527	satiated	stimuli/foods\brie.jpg	1	4	1	brie	1	P	11	0	12	0		0	0	209.9690595	210.0690296
58683	0.0999856999997064	528	satiated	stimuli/foods\pumpkin.jpg	1	4	1	pumpkin	1	F	3	0	250	0		0	0	210.119058	210.2190437
58720.5	0.0999857000006159	529	satiated	stimuli/foods\strawberry.jpg	1	4	1	strawberry	1	H	5	0	272	0		0	0	210.2690709	210.3690566
58758	0.0999535000000833	530	satiated	stimuli/foods\cabbage.jpg	1	4	1	cabbage	1	L	8	0	16	0		0	0	210.4190851	210.5190386
58795.5	0.0999847000002774	531	satiated	stimuli/non_foods\non-food_inanimate_bucket.jpg	1	4	1	non-food_inanimate_bucket	0	P	11	0	165	0		0	0	210.5690519	210.6690366
58833	0.0999892999998337	532	satiated	stimuli/non_foods\non-food_inanimate_highlighter.jpg	1	4	1	non-food_inanimate_highlighter	0	M	9	0	189	0		0	0	210.719048200001	210.8190375
58870.5	0.0999836000000869	533	satiated	stimuli/foods\mussels.jpg	1	4	1	mussels	1	K	7	0	86	0		0	0	210.869049	210.9690326
58908	0.0999646999998731	534	satiated	stimuli/foods\pomegranate.jpg	1	4	1	pomegranate	1	R	12	0	244	0		0	0	211.0190669	211.1190316
58945.5	0.0999896000002991	535	satiated	stimuli/non_foods\non-food_inanimate_sun_flower.jpg	1	4	1	non-food_inanimate_sun_flower	0	K	7	0	216	0		0	0	211.1690429	211.2690325
58983	0.100001300000258	536	satiated	stimuli/foods\garlic.jpg	1	4	1	garlic	1	N	10	0	56	0		0	0	211.3190449	211.419046200001
59020.5	0.0999773000003188	537	satiated	stimuli/foods\egg.jpg	1	4	1	egg	1	F	3	0	45	0		0	0	211.4690583	211.5690356
59058	0.0999860000001718	538	satiated	stimuli/non_foods\non-food_inanimate_ring.jpg	1	4	1	non-food_inanimate_ring	0	Z	18	0	203	0		0	0	211.6190401	211.719026100001
59095.5	0.0999870999994528	539	satiated	stimuli/non_foods\non-food_animate_butterfly.jpg	1	4	1	non-food_animate_butterfly	0	V	15	0	96	0		0	0	211.769040300001	211.8690274
59133	0.0999938000004477	540	satiated	stimuli/foods\lemon.jpg	1	4	1	lemon	1	L	8	0	72	0		0	0	211.9190373	212.019031100001
59170.5	0.099957300000824	541	satiated	stimuli/non_foods\non-food_inanimate_toilet.jpg	1	4	1	non-food_inanimate_toilet	0	F	3	0	220	0		0	0	212.0690649	212.169022200001
59208	0.0999878000002354	542	satiated	stimuli/non_foods\non-food_inanimate_tent.jpg	1	4	1	non-food_inanimate_tent	0	Z	18	0	219	0		0	0	212.2190331	212.3190209
59245.5	0.100001100000554	543	satiated	stimuli/foods\peas.jpg	1	4	1	peas	1	W	16	0	240	0		0	0	212.3690157	212.469016800001
59283	0.0999864999994315	544	satiated	stimuli/non_foods\non-food_animate_millipede.jpg	1	4	1	non-food_animate_millipede	0	L	8	0	129	0		0	0	212.519029200001	212.6190157
59320.5	0.0999914000003628	545	satiated	stimuli/non_foods\non-food_inanimate_lighter.jpg	1	4	1	non-food_inanimate_lighter	0	C	1	0	193	0		0	0	212.6690251	212.7690165
59358	0.0999885999999606	546	satiated	stimuli/foods\grapefruits.jpg	1	4	1	grapefruits	1	H	5	0	59	0		0	0	212.8190271	212.9190157
59395.5	0.0999853000002986	547	satiated	stimuli/foods\baked_lamb_with_potatoes.jpg	1	4	1	baked_lamb_with_potatoes	1	F	3	0	8	0		0	0	212.969024	213.0690093
59433	0.0999960999997711	548	satiated	stimuli/non_foods\non-food_animate_caterpillar.jpg	1	4	1	non-food_animate_caterpillar	0	G	4	0	99	0		0	0	213.1190222	213.2190183
59470.5	0.0999818999998752	549	satiated	stimuli/non_foods\non-food_inanimate_padlock.jpg	1	4	1	non-food_inanimate_padlock	0	V	15	0	199	0		0	0	213.2690266	213.3690085
59508	0.0999873000000662	550	satiated	stimuli/foods\cooked_prawn.jpg	1	4	1	cooked_prawn	1	M	9	0	36	0		0	0	213.4190183	213.5190056
59545.5	0.0999831999997696	551	satiated	stimuli/non_foods\non-food_animate_killer_whale.jpg	1	4	1	non-food_animate_killer_whale	0	G	4	0	123	0		0	0	213.5690233	213.6690065
59583	0.099986600000193	552	satiated	stimuli/non_foods\non-food_animate_sea_lion.jpg	1	4	1	non-food_animate_sea_lion	0	Z	18	0	143	0		0	0	213.719017	213.819003600001
59620.5	0.0999744999999166	553	satiated	stimuli/non_foods\non-food_inanimate_protractor.jpg	1	4	1	non-food_inanimate_protractor	0	K	7	0	201	0		0	0	213.869025	213.9689995
59658	0.0999857999995584	554	satiated	stimuli/foods\apple.jpg	1	4	1	apple	1	P	11	0	1	0		0	0	214.019014	214.1189998
59695.5	0.0999874999997701	555	satiated	stimuli/foods\hotdog.jpg	1	4	1	hotdog	1	N	10	0	67	0		0	0	214.1690091	214.2689966
59733	0.0999834999993254	556	satiated	stimuli/non_foods\non-food_animate_raccoon.jpg	1	4	1	non-food_animate_raccoon	0	H	5	0	139	0		0	0	214.319012100001	214.4189956
59770.5	0.0999835000002349	557	satiated	stimuli/foods\grapes.jpg	1	4	1	grapes	1	C	1	0	60	0		0	0	214.4690091	214.5689926
59808	0.0999836000000869	558	satiated	stimuli/foods\apricot.jpg	1	4	1	apricot	1	T	14	0	2	0		0	0	214.619007	214.7189906
59845.5	0.0999833999994735	559	satiated	stimuli/non_foods\non-food_animate_ram.jpg	1	4	1	non-food_animate_ram	0	S	13	0	140	0		0	0	214.769006	214.8689894
60233	0.0999688000001697	560	satiated	stimuli/foods\apricot.jpg	1	5	1	apricot	1	T	14	0	2	0		0	0	216.3189983	216.4189671
60270.5	0.0999915000002147	561	satiated	stimuli/non_foods\non-food_inanimate_bed.jpg	1	5	1	non-food_inanimate_bed	0	G	4	0	160	0		0	0	216.4689821	216.5689736
60308	0.0999814000006154	562	satiated	stimuli/non_foods\non-food_animate_kangaroo.jpg	1	5	1	non-food_animate_kangaroo	0	H	5	0	122	0		0	0	216.6189882	216.7189696
60345.5	0.100003600000491	563	satiated	stimuli/foods\roasted_chicken.jpg	1	5	1	roasted_chicken	1	R	12	0	261	0		0	0	216.7689829	216.868986500001
60383	0.099980100000721	564	satiated	stimuli/non_foods\non-food_animate_Asian_man.jpg	1	5	1	non-food_animate_Asian_man	0	Z	18	0	88	0		0	0	216.9189865	217.018966600001
60420.5	0.0999861000000237	565	satiated	stimuli/non_foods\non-food_animate_peacock.jpg	1	5	1	non-food_animate_peacock	0	M	9	0	134	0		0	0	217.068981400001	217.168967500001
60458	0.0999836999999388	566	satiated	stimuli/non_foods\non-food_animate_monkey.jpg	1	5	1	non-food_animate_monkey	0	L	8	0	130	0		0	0	217.218982	217.3189657
60495.5	0.0999922999999399	567	satiated	stimuli/non_foods\non-food_animate_student_female.jpg	1	5	1	non-food_animate_student_female	0	D	2	0	151	0		0	0	217.3689691	217.4689614
60533	0.0999862999997276	568	satiated	stimuli/foods\fruit_flan.jpg	1	5	1	fruit_flan	1	T	14	0	53	0		0	0	217.518971500001	217.6189578
60570.5	0.0999667000005502	569	satiated	stimuli/foods\grilled_chicken_breast.jpg	1	5	1	grilled_chicken_breast	1	S	13	0	63	0		0	0	217.6689907	217.768957400001
60608	0.0999794999997903	570	satiated	stimuli/non_foods\non-food_inanimate_padlock.jpg	1	5	1	non-food_inanimate_padlock	0	X	17	0	199	0		0	0	217.8189749	217.9189544
60645.5	0.099986600000193	571	satiated	stimuli/non_foods\non-food_animate_young_girl.jpg	1	5	1	non-food_animate_young_girl	0	B	0	0	157	0		0	0	217.968969	218.068955600001
60683	0.0999871000003623	572	satiated	stimuli/non_foods\non-food_animate_seahorse.jpg	1	5	1	non-food_animate_seahorse	0	V	15	0	145	0		0	0	218.118969	218.2189561
60720.5	0.0999922000000879	573	satiated	stimuli/foods\risotto_with_zucchini.jpg	1	5	1	risotto_with_zucchini	1	W	16	0	260	0		0	0	218.2689584	218.3689506
60758	0.0999868999997489	574	satiated	stimuli/non_foods\non-food_inanimate_nest.jpg	1	5	1	non-food_inanimate_nest	0	M	9	0	196	0		0	0	218.418963800001	218.5189507
60795.5	0.0999842999999601	575	satiated	stimuli/foods\lasagna.jpg	1	5	1	lasagna	1	W	16	0	71	0		0	0	218.5689633	218.6689476
60833	0.0999870000005103	576	satiated	stimuli/non_foods\non-food_animate_butterfly.jpg	1	5	1	non-food_animate_butterfly	0	F	3	0	96	0		0	0	218.7189534	218.8189404
60870.5	0.0999941999998555	577	satiated	stimuli/non_foods\non-food_inanimate_short_sleeved_shirt.jpg	1	5	1	non-food_inanimate_short_sleeved_shirt	0	N	10	0	207	0		0	0	218.8689519	218.9689461
60908	0.0999838999996427	578	satiated	stimuli/non_foods\non-food_inanimate_horn.jpg	1	5	1	non-food_inanimate_horn	0	X	17	0	190	0		0	0	219.018960400001	219.1189443
60945.5	0.0999669000002541	579	satiated	stimuli/non_foods\non-food_inanimate_teddy_bear.jpg	1	5	1	non-food_inanimate_teddy_bear	0	D	2	0	218	0		0	0	219.1689567	219.268923600001
60983	0.0999647999997251	580	satiated	stimuli/foods\brussel_sprouts.jpg	1	5	1	brussel_sprouts	1	L	8	0	15	0		0	0	219.3189768	219.4189416
61020.5	0.0999806999998327	581	satiated	stimuli/non_foods\non-food_inanimate_waterlily.jpg	1	5	1	non-food_inanimate_waterlily	0	T	14	0	226	0		0	0	219.4689558	219.5689365
61058	0.0999821000004886	582	satiated	stimuli/non_foods\non-food_inanimate_suitcase.jpg	1	5	1	non-food_inanimate_suitcase	0	F	3	0	215	0		0	0	219.6189556	219.7189377
61095.5	0.0999842000001081	583	satiated	stimuli/non_foods\non-food_animate_baby_sitting.jpg	1	5	1	non-food_animate_baby_sitting	0	G	4	0	93	0		0	0	219.768951900001	219.868936100001
61133	0.099986600000193	584	satiated	stimuli/non_foods\non-food_inanimate_bush.jpg	1	5	1	non-food_inanimate_bush	0	L	8	0	167	0		0	0	219.9189488	220.0189354
61170.5	0.100002000000131	585	satiated	stimuli/foods\onion.jpg	1	5	1	onion	1	X	17	0	229	0		0	0	220.0689307	220.1689327
61208	0.0999805000001288	586	satiated	stimuli/foods\peas.jpg	1	5	1	peas	1	R	12	0	240	0		0	0	220.2189482	220.3189287
61245.5	0.0999713999999585	587	satiated	stimuli/non_foods\non-food_inanimate_bowling_ball.jpg	1	5	1	non-food_inanimate_bowling_ball	0	X	17	0	162	0		0	0	220.3689432	220.4689146
61283	0.0999830000000657	588	satiated	stimuli/foods\red_beans.jpg	1	5	1	red_beans	1	J	6	0	255	0		0	0	220.518944	220.618927
61320.5	0.0999876000005315	589	satiated	stimuli/non_foods\non-food_inanimate_towel.jpg	1	5	1	non-food_inanimate_towel	0	W	16	0	221	0		0	0	220.6689397	220.768927300001
61358	0.0999850999996852	590	satiated	stimuli/foods\frankfurter_and_provolone_salad.jpg	1	5	1	frankfurter_and_provolone_salad	1	X	17	0	49	0		0	0	220.818932	220.9189171
61395.5	0.100009900000259	591	satiated	stimuli/non_foods\non-food_inanimate_fire_extinguisher.jpg	1	5	1	non-food_inanimate_fire_extinguisher	0	W	16	0	181	0		0	0	220.9689282	221.0689381
61433	0.0999493999997867	592	satiated	stimuli/non_foods\non-food_inanimate_cupboard.jpg	1	5	1	non-food_inanimate_cupboard	0	P	11	0	177	0		0	0	221.118963700001	221.2189131
61470.5	0.0999835000002349	593	satiated	stimuli/foods\cupcake.jpg	1	5	1	cupcake	1	J	6	0	42	0		0	0	221.2689281	221.368911600001
61508	0.0999853000002986	594	satiated	stimuli/foods\baked_lamb_with_potatoes.jpg	1	5	1	baked_lamb_with_potatoes	1	G	4	0	8	0		0	0	221.4189232	221.5189085
61545.5	0.0999824000000444	595	satiated	stimuli/foods\pancakes.jpg	1	5	1	pancakes	1	B	0	0	234	0		0	0	221.568927400001	221.668909800001
61583	0.0999797000004037	596	satiated	stimuli/non_foods\non-food_inanimate_bucket.jpg	1	5	1	non-food_inanimate_bucket	0	C	1	0	165	0		0	0	221.7189232	221.8189029
61620.5	0.0999816999992618	597	satiated	stimuli/non_foods\non-food_inanimate_guitar.jpg	1	5	1	non-food_inanimate_guitar	0	G	4	0	185	0		0	0	221.868921300001	221.968903
61658	0.0999925000005533	598	satiated	stimuli/non_foods\non-food_inanimate_tree.jpg	1	5	1	non-food_inanimate_tree	0	S	13	0	223	0		0	0	222.0189284	222.1189209
61695.5	0.0999825999997483	599	satiated	stimuli/non_foods\non-food_inanimate_folding_chair.jpg	1	5	1	non-food_inanimate_folding_chair	0	T	14	0	182	0		0	0	222.168925200001	222.2689078
61733	0.0999842999999601	600	satiated	stimuli/foods\coconut.jpg	1	5	1	coconut	1	B	0	0	33	0		0	0	222.318926200001	222.4189105
61770.5	0.0999836999999388	601	satiated	stimuli/foods\toasted_bread_with_tomatoes.jpg	1	5	1	toasted_bread_with_tomatoes	1	V	15	0	275	0		0	0	222.468923	222.5689067
61808	0.0999861999998757	602	satiated	stimuli/non_foods\non-food_inanimate_chandelier.jpg	1	5	1	non-food_inanimate_chandelier	0	N	10	0	173	0		0	0	222.6189191	222.7189053
61845.5	0.100005700000111	603	satiated	stimuli/foods\cinnamon.jpg	1	5	1	cinnamon	1	Z	18	0	30	0		0	0	222.7689184	222.8689241
61883	0.0999298999995517	604	satiated	stimuli/foods\pasta_carbonara.jpg	1	5	1	pasta_carbonara	1	K	7	0	236	0		0	0	222.918943000001	223.0188729
61920.5	0.0999855000000025	605	satiated	stimuli/foods\nectarine.jpg	1	5	1	nectarine	1	P	11	0	87	0		0	0	223.0689153	223.1689008
61958	0.0999753999994937	606	satiated	stimuli/foods\salami.jpg	1	5	1	salami	1	W	16	0	263	0		0	0	223.2189156	223.318891
61995.5	0.0999826000006578	607	satiated	stimuli/foods\apple.jpg	1	5	1	apple	1	L	8	0	1	0		0	0	223.3689107	223.468893300001
62033	0.099987699999474	608	satiated	stimuli/foods\prawn.jpg	1	5	1	prawn	1	J	6	0	249	0		0	0	223.518907600001	223.6188953
62070.5	0.0999873999999181	609	satiated	stimuli/non_foods\non-food_animate_hummingbird.jpg	1	5	1	non-food_animate_hummingbird	0	L	8	0	120	0		0	0	223.668904300001	223.7688917
62108	0.0999855000000025	610	satiated	stimuli/foods\baked_cod_with_carrots_and_green_beans.jpg	1	5	1	baked_cod_with_carrots_and_green_beans	1	W	16	0	7	0		0	0	223.8189048	223.9188903
62145.5	0.0999675000002753	611	satiated	stimuli/non_foods\non-food_inanimate_canoe.jpg	1	5	1	non-food_inanimate_canoe	0	V	15	0	170	0		0	0	223.9689212	224.068888700001
62183	0.0999858000004679	612	satiated	stimuli/non_foods\non-food_inanimate_ring.jpg	1	5	1	non-food_inanimate_ring	0	L	8	0	203	0		0	0	224.1189021	224.2188879
62220.5	0.0999854000001505	613	satiated	stimuli/foods\swordfish.jpg	1	5	1	swordfish	1	D	2	0	273	0		0	0	224.2689034	224.368888800001
62258	0.0999855000000025	614	satiated	stimuli/foods\artichoke.jpg	1	5	1	artichoke	1	M	9	0	3	0		0	0	224.4188959	224.5188814
62295.5	0.0999939000002996	615	satiated	stimuli/non_foods\non-food_animate_green_bug.jpg	1	5	1	non-food_animate_green_bug	0	D	2	0	118	0		0	0	224.5689093	224.6689032
62333	0.099961699999767	616	satiated	stimuli/non_foods\non-food_animate_owl.jpg	1	5	1	non-food_animate_owl	0	Z	18	0	132	0		0	0	224.718919800001	224.8188815
62370.5	0.0999554999998509	617	satiated	stimuli/foods\croissant.jpg	1	5	1	croissant	1	M	9	0	40	0		0	0	224.8688932	224.9688487
62408	0.0999975999993694	618	satiated	stimuli/non_foods\non-food_inanimate_socks.jpg	1	5	1	non-food_inanimate_socks	0	T	14	0	211	0		0	0	225.0188825	225.1188801
62445.5	0.0999873000000662	619	satiated	stimuli/foods\pickles.jpg	1	5	1	pickles	1	C	1	0	242	0		0	0	225.16888	225.2688673
62483	0.0999858000004679	620	satiated	stimuli/non_foods\non-food_inanimate_bicycle.jpg	1	5	1	non-food_inanimate_bicycle	0	V	15	0	161	0		0	0	225.3188817	225.4188675
62520.5	0.0999858000004679	621	satiated	stimuli/foods\taco.jpg	1	5	1	taco	1	C	1	0	274	0		0	0	225.4688887	225.568874500001
62558	0.0999836999999388	622	satiated	stimuli/non_foods\non-food_animate_porcupine.jpg	1	5	1	non-food_animate_porcupine	0	J	6	0	138	0		0	0	225.6188862	225.7188699
62595.5	0.0999695999998949	623	satiated	stimuli/non_foods\non-food_animate_swan.jpg	1	5	1	non-food_animate_swan	0	C	1	0	152	0		0	0	225.7688856	225.8688552
62633	0.0999861000000237	624	satiated	stimuli/non_foods\non-food_inanimate_rope.jpg	1	5	1	non-food_inanimate_rope	0	L	8	0	204	0		0	0	225.9188734	226.0188595
62670.5	0.0999867999998969	625	satiated	stimuli/foods\papaya.jpg	1	5	1	papaya	1	T	14	0	235	0		0	0	226.06887	226.1688568
62708	0.0999577000002319	626	satiated	stimuli/non_foods\non-food_animate_ram.jpg	1	5	1	non-food_animate_ram	0	X	17	0	140	0		0	0	226.2188994	226.3188571
62745.5	0.0999949999995806	627	satiated	stimuli/non_foods\non-food_animate_ant.jpg	1	5	1	non-food_animate_ant	0	G	4	0	91	0		0	0	226.3688631	226.4688581
62783	0.0999614000002111	628	satiated	stimuli/foods\blackberry.jpg	1	5	1	blackberry	1	I	21	1	11	0		0	0	226.5188871	226.6188485
62820.5	0.0999825999997483	629	satiated	stimuli/non_foods\non-food_inanimate_couch.jpg	1	5	1	non-food_inanimate_couch	0	R	12	0	176	0		0	0	226.6688751	226.7688577
62858	0.0999767000002976	630	satiated	stimuli/foods\cinnamon_sroll.jpg	1	5	1	cinnamon_sroll	1	K	7	0	31	0		0	0	226.8188613	226.918838000001
62895.5	0.099958499999957	631	satiated	stimuli/foods\lollies.jpg	1	5	1	lollies	1	D	2	0	78	0		0	0	226.968871900001	227.0688304
62933	0.0999818999998752	632	satiated	stimuli/non_foods\non-food_animate_young_boy.jpg	1	5	1	non-food_animate_young_boy	0	X	17	0	156	0		0	0	227.118872800001	227.218854700001
62970.5	0.0999860000001718	633	satiated	stimuli/foods\oyster.jpg	1	5	1	oyster	1	S	13	0	233	0		0	0	227.2688636	227.3688496
63008	0.0999873000000662	634	satiated	stimuli/non_foods\non-food_inanimate_tulip.jpg	1	5	1	non-food_inanimate_tulip	0	H	5	0	224	1	a	0.893124900000657	1	227.4188622	227.5188495
63045.5	0.0999884000002567	635	satiated	stimuli/non_foods\non-food_inanimate_cactus_pot_plant.jpg	1	5	1	non-food_inanimate_cactus_pot_plant	0	L	8	0	169	0		0	0	227.5688618	227.668850200001
63083	0.0999770000007629	636	satiated	stimuli/non_foods\non-food_inanimate_toilet.jpg	1	5	1	non-food_inanimate_toilet	0	V	15	0	220	0		0	0	227.7188613	227.818838300001
63120.5	0.0999918000006801	637	satiated	stimuli/non_foods\non-food_inanimate_rack.jpg	1	5	1	non-food_inanimate_rack	0	W	16	0	202	0		0	0	227.8688444	227.968836200001
63158	0.0999855000000025	638	satiated	stimuli/foods\pear.jpg	1	5	1	pear	1	G	4	0	239	0		0	0	228.0188562	228.1188417
63195.5	0.0999974999995175	639	satiated	stimuli/non_foods\non-food_animate_iguana.jpg	1	5	1	non-food_animate_iguana	0	V	15	0	121	0		0	0	228.1688602	228.2688577
63233	0.0999577000002319	640	satiated	stimuli/non_foods\non-food_animate_clown.jpg	1	5	1	non-food_animate_clown	0	H	5	0	102	0		0	0	228.3188809	228.418838600001
63270.5	0.099986500000341	641	satiated	stimuli/foods\fried_zucchini.jpg	1	5	1	fried_zucchini	1	R	12	0	51	0		0	0	228.4688512	228.568837700001
63308	0.0999836999999388	642	satiated	stimuli/non_foods\non-food_inanimate_toy_airplane.jpg	1	5	1	non-food_inanimate_toy_airplane	0	W	16	0	222	0		0	0	228.618855000001	228.718838700001
63345.5	0.0999862999997276	643	satiated	stimuli/foods\red_cabbage.jpg	1	5	1	red_cabbage	1	F	3	0	256	0		0	0	228.768849300001	228.8688356
63383	0.0999860000001718	644	satiated	stimuli/non_foods\non-food_inanimate_briefcase.jpg	1	5	1	non-food_inanimate_briefcase	0	V	15	0	163	0		0	0	228.9188462	229.0188322
63420.5	0.0999826999996003	645	satiated	stimuli/non_foods\non-food_animate_seal.jpg	1	5	1	non-food_animate_seal	0	M	9	0	146	0		0	0	229.068847	229.1688297
63458	0.100006599999688	646	satiated	stimuli/non_foods\non-food_inanimate_stoplight.jpg	1	5	1	non-food_inanimate_stoplight	0	D	2	0	214	0		0	0	229.2188432	229.3188498
63495.5	0.0999766000004456	647	satiated	stimuli/foods\cooked_prawn.jpg	1	5	1	cooked_prawn	1	V	15	0	36	0		0	0	229.3688529	229.468829500001
63533	0.0999848999999813	648	satiated	stimuli/non_foods\non-food_inanimate_sun_flower.jpg	1	5	1	non-food_inanimate_sun_flower	0	N	10	0	216	0		0	0	229.5188395	229.6188244
63570.5	0.0999853000002986	649	satiated	stimuli/non_foods\non-food_animate_skunk.jpg	1	5	1	non-food_animate_skunk	0	R	12	0	147	0		0	0	229.6688393	229.768824600001
63608	0.0999897000001511	650	satiated	stimuli/non_foods\non-food_animate_tortoise.jpg	1	5	1	non-food_animate_tortoise	0	K	7	0	153	0		0	0	229.8188399	229.9188296
63645.5	0.0999781000000439	651	satiated	stimuli/foods\lemon_meringue_pie.jpg	1	5	1	lemon_meringue_pie	1	D	2	0	73	0		0	0	229.9688351	230.0688132
63683	0.0999668000004021	652	satiated	stimuli/non_foods\non-food_inanimate_grass.jpg	1	5	1	non-food_inanimate_grass	0	X	17	0	184	0		0	0	230.1188328	230.2187996
63720.5	0.0999817000001713	653	satiated	stimuli/non_foods\non-food_inanimate_table.jpg	1	5	1	non-food_inanimate_table	0	L	8	0	217	0		0	0	230.2688338	230.3688155
63758	0.0999783000006573	654	satiated	stimuli/non_foods\non-food_animate_horse.jpg	1	5	1	non-food_animate_horse	0	R	12	0	119	0		0	0	230.4188292	230.518807500001
63795.5	0.0999867000000449	655	satiated	stimuli/foods\grapefruits.jpg	1	5	1	grapefruits	1	M	9	0	59	0		0	0	230.5688289	230.6688156
63833	0.0999861999998757	656	satiated	stimuli/foods\tomato.jpg	1	5	1	tomato	1	X	17	0	276	0		0	0	230.7188273	230.8188135
63870.5	0.0999861999998757	657	satiated	stimuli/non_foods\non-food_animate_slug.jpg	1	5	1	non-food_animate_slug	0	C	1	0	148	0		0	0	230.8688263	230.9688125
63908	0.0999959999999191	658	satiated	stimuli/non_foods\non-food_inanimate_broom.jpg	1	5	1	non-food_inanimate_broom	0	R	12	0	164	0		0	0	231.018823400001	231.118819400001
63945.5	0.0999878000002354	659	satiated	stimuli/foods\pumpkin.jpg	1	5	1	pumpkin	1	P	11	0	250	0		0	0	231.1688216	231.2688094
63983	0.0999880999997913	660	satiated	stimuli/foods\banana.jpg	1	5	1	banana	1	R	12	0	9	0		0	0	231.318820500001	231.4188086
64020.5	0.0999841000002561	661	satiated	stimuli/non_foods\non-food_animate_polar_bear.jpg	1	5	1	non-food_animate_polar_bear	0	H	5	0	137	0		0	0	231.4688188	231.5688029
64058	0.0999963000003845	662	satiated	stimuli/non_foods\non-food_animate_raccoon.jpg	1	5	1	non-food_animate_raccoon	0	L	8	0	139	0		0	0	231.6188105	231.7188068
64095.5	0.0999762999999803	663	satiated	stimuli/foods\pineapple.jpg	1	5	1	pineapple	1	S	13	0	243	0		0	0	231.7688261	231.8688024
64133	0.0999825999997483	664	satiated	stimuli/foods\cucumber.jpg	1	5	1	cucumber	1	X	17	0	41	0		0	0	231.918814000001	232.0187966
64170.5	0.0999873999999181	665	satiated	stimuli/non_foods\non-food_inanimate_moss.jpg	1	5	1	non-food_inanimate_moss	0	S	13	0	194	0		0	0	232.0688122	232.1687996
64208	0.0999812999998539	666	satiated	stimuli/foods\cherry.jpg	1	5	1	cherry	1	E	20	1	23	0		0	0	232.218813500001	232.3187948
64245.5	0.099983400000383	667	satiated	stimuli/foods\meatballs.jpg	1	5	1	meatballs	1	L	8	0	81	0		0	0	232.3688123	232.468795700001
64283	0.0999904000000242	668	satiated	stimuli/non_foods\non-food_animate_pigeon.jpg	1	5	1	non-food_animate_pigeon	0	T	14	0	136	0		0	0	232.5188052	232.6187956
64320.5	0.0999807999996847	669	satiated	stimuli/foods\rockmelon.jpg	1	5	1	rockmelon	1	S	13	0	262	1	a	0.541817199999969	1	232.668808	232.7687888
64358	0.100026800000705	670	satiated	stimuli/non_foods\non-food_animate_chicken.jpg	1	5	1	non-food_animate_chicken	0	K	7	0	101	0		0	0	232.8188043	232.918831100001
64395.5	0.0999855999998545	671	satiated	stimuli/foods\hazelnuts.jpg	1	5	1	hazelnuts	1	H	5	0	65	0		0	0	232.968803100001	233.0687887
