onset	duration	eventnumber	hunger_condition	stimfilename	blockno	trialno	is_faststream	stim	food_idx	letter	letter_idx	istarget	image_number	response	keypressed	rt	correct	time_stimon	time_stimoff
7605.75	0.0999962999485433	0	satiated	stimuli/foods\croissant.jpg	1	1	1	croissant	1	X	17	0	40	0		0	0	77.4098918000236	77.5098880999722
7643.25	0.100026099942625	1	satiated	stimuli/non_foods\non-food_animate_gorilla.jpg	1	1	1	non-food_animate_gorilla	0	N	10	0	116	0		0	0	77.5598896997981	77.6599157997407
7680.75	0.0999838998541236	2	satiated	stimuli/foods\blackberry.jpg	1	1	1	blackberry	1	D	2	0	11	0		0	0	77.7098755999468	77.809859499801
7718.25	0.0999835999682546	3	satiated	stimuli/non_foods\non-food_animate_green_bug.jpg	1	1	1	non-food_animate_green_bug	0	V	15	0	118	0		0	0	77.8598706000485	77.9598542000167
7755.75	0.0999859003350139	4	satiated	stimuli/foods\museli_bars.jpg	1	1	1	museli_bars	1	S	13	0	84	0		0	0	78.0098683997057	78.1098543000408
7793.25	0.0999858002178371	5	satiated	stimuli/foods\minestrone_soup.jpg	1	1	1	minestrone_soup	1	W	16	0	82	0		0	0	78.159868599847	78.2598544000648
7830.75	0.0999838002026081	6	satiated	stimuli/foods\apricot.jpg	1	1	1	apricot	1	F	3	0	2	0		0	0	78.3098677997477	78.4098515999503
7868.25	0.0999870002269745	7	satiated	stimuli/non_foods\non-food_inanimate_teddy_bear.jpg	1	1	1	non-food_inanimate_teddy_bear	0	J	6	0	218	0		0	0	78.4598642997444	78.5598512999713
7905.75	0.0999707002192736	8	satiated	stimuli/non_foods\non-food_inanimate_waterlily.jpg	1	1	1	non-food_inanimate_waterlily	0	L	8	0	226	0		0	0	78.6098743998446	78.7098451000638
7943.25	0.0999795002862811	9	satiated	stimuli/foods\fried_zucchini.jpg	1	1	1	fried_zucchini	1	M	9	0	51	0		0	0	78.759860899765	78.8598404000513
7980.75	0.0999859999865294	10	satiated	stimuli/non_foods\non-food_inanimate_tent.jpg	1	1	1	non-food_inanimate_tent	0	P	11	0	219	0		0	0	78.9098593001254	79.0098453001119
8018.25	0.0999842998571694	11	satiated	stimuli/foods\pork_and_rice.jpg	1	1	1	pork_and_rice	1	W	16	0	245	0		0	0	79.0598566001281	79.1598408999853
8055.75	0.0999501999467611	12	satiated	stimuli/non_foods\non-food_inanimate_bicycle.jpg	1	1	1	non-food_inanimate_bicycle	0	S	13	0	161	0		0	0	79.2098815999925	79.3098317999393
8093.25	0.0997047000564635	13	satiated	stimuli/foods\waffle.jpg	1	1	1	waffle	1	T	14	0	278	0		0	0	79.3601322998293	79.4598369998857
8130.75	0.100000099744648	14	satiated	stimuli/non_foods\non-food_inanimate_highlighter.jpg	1	1	1	non-food_inanimate_highlighter	0	D	2	0	189	0		0	0	79.509827400092	79.6098274998367
8168.25	0.0999758997932076	15	satiated	stimuli/non_foods\non-food_inanimate_moss.jpg	1	1	1	non-food_inanimate_moss	0	H	5	0	194	0		0	0	79.6598402000964	79.7598160998896
8205.75	0.100005900021642	16	satiated	stimuli/foods\lentils.jpg	1	1	1	lentils	1	D	2	0	74	0		0	0	79.8098264997825	79.9098323998041
8243.25	0.0999865997582674	17	satiated	stimuli/non_foods\non-food_animate_dolphin.jpg	1	1	1	non-food_animate_dolphin	0	L	8	0	106	0		0	0	79.9598445999436	80.0598311997019
8280.75	0.0999838002026081	18	satiated	stimuli/foods\coffee_beans.jpg	1	1	1	coffee_beans	1	R	12	0	34	0		0	0	80.1098441998474	80.20982800005
8318.25	0.100022600032389	19	satiated	stimuli/foods\toasted_bread_with_tomatoes.jpg	1	1	1	toasted_bread_with_tomatoes	1	V	15	0	275	0		0	0	80.2598410998471	80.3598636998795
8355.75	0.0999544998630881	20	satiated	stimuli/foods\pepperoni_pizza.jpg	1	1	1	pepperoni_pizza	1	S	13	0	241	0		0	0	80.4098697998561	80.5098242997192
8393.25	0.09998709987849	21	satiated	stimuli/non_foods\non-food_inanimate_guitar.jpg	1	1	1	non-food_inanimate_guitar	0	B	0	0	185	0		0	0	80.5598372998647	80.6598243997432
8430.75	0.0999885001219809	22	satiated	stimuli/foods\baked_lamb_with_potatoes.jpg	1	1	1	baked_lamb_with_potatoes	1	N	10	0	8	0		0	0	80.7098328997381	80.8098213998601
8468.25	0.099950899835676	23	satiated	stimuli/non_foods\non-food_inanimate_drum_set.jpg	1	1	1	non-food_inanimate_drum_set	0	K	7	0	179	0		0	0	80.8598394999281	80.9597903997637
8505.75	0.0999646997079253	24	satiated	stimuli/non_foods\non-food_animate_ant.jpg	1	1	1	non-food_animate_ant	0	P	11	0	91	0		0	0	81.0098468000069	81.1098114997149
8543.25	0.0999666000716388	25	satiated	stimuli/foods\taco.jpg	1	1	1	taco	1	W	16	0	274	0		0	0	81.1598445000127	81.2598111000843
8580.75	0.0999889001250267	26	satiated	stimuli/foods\chocolate_bar.jpg	1	1	1	chocolate_bar	1	K	7	0	26	0		0	0	81.3098233998753	81.4098123000003
8618.25	0.0999938999302685	27	satiated	stimuli/foods\mango.jpg	1	1	1	mango	1	V	15	0	80	0		0	0	81.4598183999769	81.5598122999072
8655.75	0.0999841000884771	28	satiated	stimuli/non_foods\non-food_inanimate_clover.jpg	1	1	1	non-food_inanimate_clover	0	Z	18	0	174	0		0	0	81.609818900004	81.7098030000925
8693.25	0.0999864996410906	29	satiated	stimuli/foods\pea_pod.jpg	1	1	1	pea_pod	1	B	0	0	237	0		0	0	81.7598143001087	81.8598007997498
8730.75	0.0999850002117455	30	satiated	stimuli/non_foods\non-food_animate_seal.jpg	1	1	1	non-food_animate_seal	0	J	6	0	146	0		0	0	81.9098141998984	82.0097992001101
8768.25	0.0999779002740979	31	satiated	stimuli/foods\omelette.jpg	1	1	1	omelette	1	S	13	0	228	0		0	0	82.0598228997551	82.1598008000292
8805.75	0.0999753996729851	32	satiated	stimuli/non_foods\non-food_animate_baby_crawling.jpg	1	1	1	non-food_animate_baby_crawling	0	X	17	0	92	0		0	0	82.2098181000911	82.3097934997641
8843.25	0.0999920996837318	33	satiated	stimuli/non_foods\non-food_animate_butterfly.jpg	1	1	1	non-food_animate_butterfly	0	K	7	0	96	0		0	0	82.3598083001561	82.4598003998399
8880.75	0.100001899991184	34	satiated	stimuli/non_foods\non-food_animate_kangaroo.jpg	1	1	1	non-food_animate_kangaroo	0	D	2	0	122	0		0	0	82.5097988001071	82.6098007000983
8918.25	0.0999898998998106	35	satiated	stimuli/foods\celery.jpg	1	1	1	celery	1	P	11	0	21	0		0	0	82.6598141998984	82.7598040997982
8955.75	0.0999557999894023	36	satiated	stimuli/foods\baked_cod_with_carrots_and_green_beans.jpg	1	1	1	baked_cod_with_carrots_and_green_beans	1	J	6	0	7	0		0	0	82.8098343997262	82.9097901997156
8993.25	0.0999815003015101	37	satiated	stimuli/non_foods\non-food_inanimate_canoe.jpg	1	1	1	non-food_inanimate_canoe	0	H	5	0	170	0		0	0	82.9598042997532	83.0597858000547
9030.75	0.0999834998510778	38	satiated	stimuli/foods\peas.jpg	1	1	1	peas	1	J	6	0	240	0		0	0	83.1098000998609	83.209783599712
9068.25	0.0999889001250267	39	satiated	stimuli/foods\risotto_with_zucchini.jpg	1	1	1	risotto_with_zucchini	1	G	4	0	260	0		0	0	83.2598103997298	83.3597992998548
9105.75	0.0999750001356006	40	satiated	stimuli/foods\raw_sausage.jpg	1	1	1	raw_sausage	1	R	12	0	254	0		0	0	83.4098048997112	83.5097798998468
9143.25	0.0999822998419404	41	satiated	stimuli/foods\prawn.jpg	1	1	1	prawn	1	X	17	0	249	0		0	0	83.5597864999436	83.6597687997855
9180.75	0.0999782998114824	42	satiated	stimuli/non_foods\non-food_inanimate_pine_cone.jpg	1	1	1	non-food_inanimate_pine_cone	0	K	7	0	200	0		0	0	83.7097962000407	83.8097744998522
9218.25	0.100004300009459	43	satiated	stimuli/foods\pear.jpg	1	1	1	pear	1	S	13	0	239	0		0	0	83.8597892997786	83.9597935997881
9255.75	0.0999729000031948	44	satiated	stimuli/non_foods\non-food_inanimate_buds.jpg	1	1	1	non-food_inanimate_buds	0	F	3	0	166	0		0	0	84.0097996997647	84.1097725997679
9293.25	0.0999836004339159	45	satiated	stimuli/foods\green_beans.jpg	1	1	1	green_beans	1	Z	18	0	61	0		0	0	84.1597877996974	84.2597714001313
9330.75	0.0999892000108957	46	satiated	stimuli/foods\cupcake.jpg	1	1	1	cupcake	1	G	4	0	42	0		0	0	84.3097862997092	84.4097754997201
9368.25	0.0999799002893269	47	satiated	stimuli/non_foods\non-food_animate_young_girl.jpg	1	1	1	non-food_animate_young_girl	0	T	14	0	157	1	a	0	0	84.4598177997395	84.5597977000289
9405.75	0.0999838002026081	48	satiated	stimuli/foods\mussels.jpg	1	1	1	mussels	1	S	13	0	86	0		0	0	84.6098190997727	84.7098028999753
9443.25	0.0999881001189351	49	satiated	stimuli/non_foods\non-food_animate_donkey.jpg	1	1	1	non-food_animate_donkey	0	R	12	0	107	0		0	0	84.7597782998346	84.8597663999535
9480.75	0.0999833000823855	50	satiated	stimuli/non_foods\non-food_inanimate_chair.jpg	1	1	1	non-food_inanimate_chair	0	D	2	0	172	0		0	0	84.9097759998403	85.0097592999227
9518.25	0.0999847003258765	51	satiated	stimuli/non_foods\non-food_animate_horse.jpg	1	1	1	non-food_animate_horse	0	V	15	0	119	0		0	0	85.0597795997746	85.1597643001005
9555.75	0.0999994999729097	52	satiated	stimuli/foods\cream_donuts.jpg	1	1	1	cream_donuts	1	X	17	0	39	0		0	0	85.2097669998184	85.3097664997913
9593.25	0.0999996000900865	53	satiated	stimuli/foods\linguine_with_clams.jpg	1	1	1	linguine_with_clams	1	L	8	0	77	0		0	0	85.3597667999566	85.4597664000466
9630.75	0.0999861001037061	54	satiated	stimuli/non_foods\non-food_inanimate_fern.jpg	1	1	1	non-food_inanimate_fern	0	F	3	0	180	0		0	0	85.5097790998407	85.6097651999444
9668.25	0.0999565999954939	55	satiated	stimuli/foods\figs.jpg	1	1	1	figs	1	J	6	0	48	0		0	0	85.6597758000717	85.7597324000672
9705.75	0.099974500015378	56	satiated	stimuli/non_foods\non-food_animate_snail.jpg	1	1	1	non-food_animate_snail	0	T	14	0	149	0		0	0	85.809778700117	85.9097532001324
9743.25	0.0999954999424517	57	satiated	stimuli/foods\cinnamon_sroll.jpg	1	1	1	cinnamon_sroll	1	Z	18	0	31	0		0	0	85.9597650999203	86.0597605998628
9780.75	0.0999811999499798	58	satiated	stimuli/non_foods\non-food_inanimate_folding_chair.jpg	1	1	1	non-food_inanimate_folding_chair	0	R	12	0	182	0		0	0	86.1097741001286	86.2097553000785
9818.25	0.100021400023252	59	satiated	stimuli/non_foods\non-food_inanimate_socks.jpg	1	1	1	non-food_inanimate_socks	0	S	13	0	211	0		0	0	86.2597664999776	86.3597879000008
9855.75	0.0999353001825511	60	satiated	stimuli/foods\fried_calamari.jpg	1	1	1	fried_calamari	1	G	4	0	50	0		0	0	86.4098168998025	86.5097521999851
9893.25	0.099984799977392	61	satiated	stimuli/non_foods\non-food_animate_polar_bear.jpg	1	1	1	non-food_animate_polar_bear	0	P	11	0	137	0		0	0	86.5597667000256	86.659751500003
9930.75	0.0999658000655472	62	satiated	stimuli/foods\cracker.jpg	1	1	1	cracker	1	K	7	0	38	0		0	0	86.7097669998184	86.8097327998839
9968.25	0.0999806001782417	63	satiated	stimuli/non_foods\non-food_animate_killer_whale.jpg	1	1	1	non-food_animate_killer_whale	0	R	12	0	123	0		0	0	86.8597582997754	86.9597388999537
10005.75	0.0999828996136785	64	satiated	stimuli/foods\cereal.jpg	1	1	1	cereal	1	V	15	0	22	0		0	0	87.0097539001144	87.1097367997281
10043.25	0.0999794001691043	65	satiated	stimuli/non_foods\non-food_animate_sea_turtle.jpg	1	1	1	non-food_animate_sea_turtle	0	Z	18	0	144	0		0	0	87.159752999898	87.2597324000672
10080.75	0.0999892000108957	66	satiated	stimuli/foods\egg.jpg	1	1	1	egg	1	V	15	0	45	0		0	0	87.3097490998916	87.4097382999025
10118.25	0.099983399733901	67	satiated	stimuli/non_foods\non-food_animate_ladybug.jpg	1	1	1	non-food_animate_ladybug	0	Z	18	0	124	0		0	0	87.4597497000359	87.5597330997698
10155.75	0.0999844996258616	68	satiated	stimuli/non_foods\non-food_inanimate_construction_helment.jpg	1	1	1	non-food_inanimate_construction_helment	0	H	5	0	175	0		0	0	87.6097467001528	87.7097311997786
10193.25	0.0999880000017583	69	satiated	stimuli/foods\ginger_root.jpg	1	1	1	ginger_root	1	M	9	0	57	0		0	0	87.759742999915	87.8597309999168
10230.75	0.100001099985093	70	satiated	stimuli/foods\mortadella.jpg	1	1	1	mortadella	1	W	16	0	83	0		0	0	87.9097339999862	88.0097350999713
10268.25	0.100001899991184	71	satiated	stimuli/foods\capsicum.jpg	1	1	1	capsicum	1	H	5	0	18	0		0	0	88.0597532000393	88.1597551000305
10305.75	0.0999334002844989	72	satiated	stimuli/non_foods\non-food_animate_alligator.jpg	1	1	1	non-food_animate_alligator	0	L	8	0	90	0		0	0	88.2097978997044	88.3097312999889
10343.25	0.0999809000641108	73	satiated	stimuli/foods\raisins.jpg	1	1	1	raisins	1	N	10	0	252	0		0	0	88.3597492999397	88.4597302000038
10380.75	0.0999887003563344	74	satiated	stimuli/foods\pumpkin.jpg	1	1	1	pumpkin	1	W	16	0	250	0		0	0	88.5097404997796	88.6097292001359
10418.25	0.0999888000078499	75	satiated	stimuli/non_foods\non-food_inanimate_watering_can.jpg	1	1	1	non-food_inanimate_watering_can	0	G	4	0	225	0		0	0	88.6597396000288	88.7597284000367
10455.75	0.0999847003258765	76	satiated	stimuli/foods\roasted_chicken.jpg	1	1	1	roasted_chicken	1	B	0	0	261	0		0	0	88.8097385996953	88.9097233000211
10493.25	0.0999863999895751	77	satiated	stimuli/non_foods\non-food_inanimate_alarm_clock.jpg	1	1	1	non-food_inanimate_alarm_clock	0	N	10	0	158	0		0	0	88.9597359998152	89.0597223998047
10530.75	0.0999815999530256	78	satiated	stimuli/non_foods\non-food_inanimate_towel.jpg	1	1	1	non-food_inanimate_towel	0	F	3	0	221	0		0	0	89.1097356998362	89.2097172997892
10568.25	0.0999786001630127	79	satiated	stimuli/non_foods\non-food_inanimate_wrench.jpg	1	1	1	non-food_inanimate_wrench	0	X	17	0	227	0		0	0	89.2597467997111	89.3597253998742
10605.75	0.0999898998998106	80	satiated	stimuli/foods\chocolate_pralines.jpg	1	1	1	chocolate_pralines	1	J	6	0	28	0		0	0	89.4097274998203	89.5097173997201
10643.25	0.099979099817574	81	satiated	stimuli/foods\lettuce.jpg	1	1	1	lettuce	1	S	13	0	75	0		0	0	89.5597341000102	89.6597131998278
10680.75	0.0999904000200331	82	satiated	stimuli/foods\pomegranate.jpg	1	1	1	pomegranate	1	L	8	0	244	0		0	0	89.7097259000875	89.8097163001075
10718.25	0.100002499762923	83	satiated	stimuli/foods\green_olives.jpg	1	1	1	green_olives	1	H	5	0	62	0		0	0	89.8597320001572	89.9597344999202
10755.75	0.0999640002846718	84	satiated	stimuli/non_foods\non-food_animate_young_boy.jpg	1	1	1	non-food_animate_young_boy	0	B	0	0	156	0		0	0	90.009745199699	90.1097091999836
10793.25	0.0999857001006603	85	satiated	stimuli/non_foods\non-food_inanimate_button.jpg	1	1	1	non-food_inanimate_button	0	S	13	0	168	0		0	0	90.1597203998826	90.2597060999833
10830.75	0.0999720999971032	86	satiated	stimuli/non_foods\non-food_animate_owl.jpg	1	1	1	non-food_animate_owl	0	X	17	0	132	0		0	0	90.3097270000726	90.4096991000697
10868.25	0.0999775999225676	87	satiated	stimuli/foods\spaghetti_with_meat_sauce.jpg	1	1	1	spaghetti_with_meat_sauce	1	G	4	0	267	0		0	0	90.4597129998729	90.5596905997954
10905.75	0.100002400111407	88	satiated	stimuli/non_foods\non-food_animate_llama.jpg	1	1	1	non-food_animate_llama	0	T	14	0	127	0		0	0	90.6097011999227	90.7097036000341
10943.25	0.0999867999926209	89	satiated	stimuli/non_foods\non-food_inanimate_shell.jpg	1	1	1	non-food_inanimate_shell	0	K	7	0	206	0		0	0	90.7597151999362	90.8597019999288
10980.75	0.0999854002147913	90	satiated	stimuli/non_foods\non-food_animate_penguin.jpg	1	1	1	non-food_animate_penguin	0	F	3	0	135	0		0	0	90.90971479984	91.0097002000548
11018.25	0.0999757996760309	91	satiated	stimuli/foods\swordfish.jpg	1	1	1	swordfish	1	N	10	0	273	0		0	0	91.0597206000239	91.1596963996999
11055.75	0.0999823999591172	92	satiated	stimuli/foods\potato_chips.jpg	1	1	1	potato_chips	1	K	7	0	247	0		0	0	91.2097105998546	91.3096929998137
11093.25	0.0999777996912599	93	satiated	stimuli/non_foods\non-food_inanimate_bowling_ball.jpg	1	1	1	non-food_inanimate_bowling_ball	0	I	21	1	162	0		0	0	91.3597176000476	91.4596953997388
11130.75	0.0999846002086997	94	satiated	stimuli/non_foods\non-food_animate_cat.jpg	1	1	1	non-food_animate_cat	0	K	7	0	98	0		0	0	91.5097063998692	91.6096910000779
11168.25	0.100032099988312	95	satiated	stimuli/non_foods\non-food_animate_frog.jpg	1	1	1	non-food_animate_frog	0	W	16	0	113	0		0	0	91.6597083001398	91.7597404001281
11205.75	0.0999655998311937	96	satiated	stimuli/foods\brie.jpg	1	1	1	brie	1	F	3	0	12	0		0	0	91.8097310001031	91.9096965999343
11243.25	0.0999890002422035	97	satiated	stimuli/non_foods\non-food_animate_squirrel.jpg	1	1	1	non-food_animate_squirrel	0	J	6	0	150	0		0	0	91.9596929997206	92.0596819999628
11280.75	0.0999886002391577	98	satiated	stimuli/non_foods\non-food_animate_mouse.jpg	1	1	1	non-food_animate_mouse	0	G	4	0	131	1	a	0.841795799788088	1	92.1096883998252	92.2096770000644
11318.25	0.0999829997308552	99	satiated	stimuli/non_foods\non-food_inanimate_bucket.jpg	1	1	1	non-food_inanimate_bucket	0	D	2	0	165	0		0	0	92.2596927001141	92.359675699845
11355.75	0.0999825997278094	100	satiated	stimuli/foods\corncob.jpg	1	1	1	corncob	1	F	3	0	37	0		0	0	92.4096911000088	92.5096736997366
11393.25	0.0999854998663068	101	satiated	stimuli/foods\clams.jpg	1	1	1	clams	1	D	2	0	32	0		0	0	92.5596865001135	92.6596719999798
11430.75	0.0999823999591172	102	satiated	stimuli/non_foods\non-food_inanimate_padlock.jpg	1	1	1	non-food_inanimate_padlock	0	M	9	0	199	0		0	0	92.7096893000416	92.8096717000008
11468.25	0.0999789000488818	103	satiated	stimuli/non_foods\non-food_animate_camel.jpg	1	1	1	non-food_animate_camel	0	H	5	0	97	0		0	0	92.8597001000308	92.9596790000796
11505.75	0.0999608999118209	104	satiated	stimuli/non_foods\non-food_inanimate_nest.jpg	1	1	1	non-food_inanimate_nest	0	G	4	0	196	0		0	0	93.0096904998645	93.1096513997763
11543.25	0.0999869001097977	105	satiated	stimuli/non_foods\non-food_animate_cow.jpg	1	1	1	non-food_animate_cow	0	S	13	0	103	0		0	0	93.1596833998337	93.2596702999435
11580.75	0.0999819999560714	106	satiated	stimuli/non_foods\non-food_inanimate_speakers.jpg	1	1	1	non-food_inanimate_speakers	0	Z	18	0	212	0		0	0	93.3096878998913	93.4096698998474
11618.25	0.0999479000456631	107	satiated	stimuli/foods\smoked_ham.jpg	1	1	1	smoked_ham	1	S	13	0	266	0		0	0	93.4597088997252	93.5596567997709
11655.75	0.0999783999286592	108	satiated	stimuli/non_foods\non-food_inanimate_chandelier.jpg	1	1	1	non-food_inanimate_chandelier	0	B	0	0	173	0		0	0	93.6096801999956	93.7096585999243
11693.25	0.0999817000702024	109	satiated	stimuli/non_foods\non-food_animate_giraffe.jpg	1	1	1	non-food_animate_giraffe	0	X	17	0	115	0		0	0	93.7596726999618	93.859654400032
11730.75	0.099985099863261	110	satiated	stimuli/foods\lollies.jpg	1	1	1	lollies	1	J	6	0	78	0		0	0	93.9096705000848	94.009655599948
11768.25	0.0999965001828969	111	satiated	stimuli/foods\cinnamon.jpg	1	1	1	cinnamon	1	C	1	0	30	0		0	0	94.059668299742	94.1596647999249
11805.75	0.100004899781197	112	satiated	stimuli/foods\papaya.jpg	1	1	1	papaya	1	W	16	0	235	0		0	0	94.2096555000171	94.3096603997983
11843.25	0.0999778001569211	113	satiated	stimuli/non_foods\non-food_inanimate_nettle.jpg	1	1	1	non-food_inanimate_nettle	0	R	12	0	197	0		0	0	94.3596780998632	94.4596559000202
11880.75	0.100027400068939	114	satiated	stimuli/non_foods\non-food_inanimate_rope.jpg	1	1	1	non-food_inanimate_rope	0	L	8	0	204	0		0	0	94.5096712000668	94.6096986001357
11918.25	0.0999410003423691	115	satiated	stimuli/non_foods\non-food_animate_rhino.jpg	1	1	1	non-food_animate_rhino	0	S	13	0	141	0		0	0	94.6596836997196	94.759624700062
11955.75	0.0999719998799264	116	satiated	stimuli/foods\pasta_carbonara.jpg	1	1	1	pasta_carbonara	1	T	14	0	236	0		0	0	94.8096672999673	94.9096392998472
11993.25	0.0999774998053908	117	satiated	stimuli/foods\hotdog.jpg	1	1	1	hotdog	1	F	3	0	67	0		0	0	94.9596669999883	95.0596444997936
12030.75	0.0999977998435497	118	satiated	stimuli/non_foods\non-food_inanimate_hammer.jpg	1	1	1	non-food_inanimate_hammer	0	D	2	0	186	0		0	0	95.1096586999483	95.2096564997919
12068.25	0.0999941998161376	119	satiated	stimuli/non_foods\non-food_animate_Causasian_man.jpg	1	1	1	non-food_animate_Causasian_man	0	S	13	0	89	0		0	0	95.2596708000638	95.3596649998799
12105.75	0.0999694000929594	120	satiated	stimuli/foods\pineapple.jpg	1	1	1	pineapple	1	O	22	1	243	0		0	0	95.4096727999859	95.5096422000788
12143.25	0.0999888996593654	121	satiated	stimuli/foods\nectarine.jpg	1	1	1	nectarine	1	R	12	0	87	0		0	0	95.5596547001041	95.6596435997635
12180.75	0.0999833000823855	122	satiated	stimuli/foods\salmon.jpg	1	1	1	salmon	1	Z	18	0	264	0		0	0	95.7096579000354	95.8096412001178
12218.25	0.099983099848032	123	satiated	stimuli/non_foods\non-food_inanimate_skirt.jpg	1	1	1	non-food_inanimate_skirt	0	K	7	0	209	0		0	0	95.8596532000229	95.9596362998709
12255.75	0.0999890002422035	124	satiated	stimuli/non_foods\non-food_animate_deer.jpg	1	1	1	non-food_animate_deer	0	G	4	0	105	1	a	0.691798099782318	1	96.0096483998932	96.1096374001354
12293.25	0.0999858002178371	125	satiated	stimuli/non_foods\non-food_inanimate_nailpolish.jpg	1	1	1	non-food_inanimate_nailpolish	0	L	8	0	195	0		0	0	96.1596483998001	96.2596342000179
12330.75	0.100003600120544	126	satiated	stimuli/non_foods\non-food_animate_cheetah.jpg	1	1	1	non-food_animate_cheetah	0	W	16	0	100	0		0	0	96.3096453999169	96.4096490000375
12368.25	0.0999811999499798	127	satiated	stimuli/non_foods\non-food_animate_runner.jpg	1	1	1	non-food_animate_runner	0	F	3	0	142	0		0	0	96.4596510999836	96.5596322999336
12405.75	0.0999745996668935	128	satiated	stimuli/non_foods\non-food_animate_tortoise.jpg	1	1	1	non-food_animate_tortoise	0	T	14	0	153	0		0	0	96.609623900149	96.7095984998159
12443.25	0.0999873001128435	129	satiated	stimuli/non_foods\non-food_inanimate_sun_flower.jpg	1	1	1	non-food_inanimate_sun_flower	0	C	1	0	216	0		0	0	96.7596408999525	96.8596282000653
12480.75	0.0999871003441513	130	satiated	stimuli/non_foods\non-food_animate_bee.jpg	1	1	1	non-food_animate_bee	0	T	14	0	95	0		0	0	96.9096419997513	97.0096291000955
12518.25	0.0999778998084366	131	satiated	stimuli/foods\wafer.jpg	1	1	1	wafer	1	R	12	0	277	0		0	0	97.0596464001574	97.1596242999658
12555.75	0.0999934002757072	132	satiated	stimuli/non_foods\non-food_animate_grasshopper.jpg	1	1	1	non-food_animate_grasshopper	0	K	7	0	117	0		0	0	97.2096401997842	97.3096336000599
12593.25	0.0999789000488818	133	satiated	stimuli/foods\fruit_pie.jpg	1	1	1	fruit_pie	1	H	5	0	54	0		0	0	97.3596401000395	97.4596190000884
12630.75	0.0999839999713004	134	satiated	stimuli/foods\oregano.jpg	1	1	1	oregano	1	X	17	0	231	0		0	0	97.509625100065	97.6096091000363
12668.25	0.0999839999713004	135	satiated	stimuli/foods\broccoli.jpg	1	1	1	broccoli	1	T	14	0	13	0		0	0	97.659636599943	97.7596205999143
12705.75	0.0999819999560714	136	satiated	stimuli/foods\fruit_salad.jpg	1	1	1	fruit_salad	1	Z	18	0	55	0		0	0	97.8096314999275	97.9096134998836
12743.25	0.0999888996593654	137	satiated	stimuli/foods\frankfurter_and_provolone_salad.jpg	1	1	1	frankfurter_and_provolone_salad	1	V	15	0	49	0		0	0	97.9596258001402	98.0596146997996
12780.75	0.0999842998571694	138	satiated	stimuli/non_foods\non-food_inanimate_bush.jpg	1	1	1	non-food_inanimate_bush	0	M	9	0	167	0		0	0	98.109626499936	98.2096107997932
12818.25	0.0999882998876274	139	satiated	stimuli/non_foods\non-food_animate_hummingbird.jpg	1	1	1	non-food_animate_hummingbird	0	J	6	0	120	0		0	0	98.2596228998154	98.3596111997031
14130.75	0.0999770001508296	140	satiated	stimuli/foods\oyster.jpg	1	2	1	oyster	1	S	13	0	233	0		0	0	103.509571699891	103.609548700042
14168.25	0.0999314999207854	141	satiated	stimuli/foods\tomato.jpg	1	2	1	tomato	1	V	15	0	276	0		0	0	103.659604399931	103.759535899851
14205.75	0.0999548998661339	142	satiated	stimuli/foods\chocolate_pudding.jpg	1	2	1	chocolate_pudding	1	B	0	0	29	0		0	0	103.809577399865	103.909532299731
14243.25	0.0999818998388946	143	satiated	stimuli/non_foods\non-food_animate_lizard.jpg	1	2	1	non-food_animate_lizard	0	X	17	0	126	0		0	0	103.959546499886	104.059528399725
14280.75	0.0999727002345026	144	satiated	stimuli/foods\risotto_with_peas_and_asparagus_tips.jpg	1	2	1	risotto_with_peas_and_asparagus_tips	1	S	13	0	259	0		0	0	104.109566699713	104.209539399948
14318.25	0.0999832996167243	145	satiated	stimuli/foods\red_beans.jpg	1	2	1	red_beans	1	K	7	0	255	0		0	0	104.25956990011	104.359553199727
14355.75	0.0999622000381351	146	satiated	stimuli/non_foods\non-food_inanimate_toy_airplane.jpg	1	2	1	non-food_inanimate_toy_airplane	0	N	10	0	222	0		0	0	104.409574399702	104.50953659974
14393.25	0.0999818001873791	147	satiated	stimuli/foods\brownie.jpg	1	2	1	brownie	1	H	5	0	14	0		0	0	104.559553199913	104.659535000101
14430.75	0.0999900996685028	148	satiated	stimuli/non_foods\non-food_animate_student_female.jpg	1	2	1	non-food_animate_student_female	0	K	7	0	151	0		0	0	104.709538300056	104.809528399725
14468.25	0.0999821000732481	149	satiated	stimuli/foods\almonds.jpg	1	2	1	almonds	1	B	0	0	0	0		0	0	104.859547399916	104.959529499989
14505.75	0.0999897001311183	150	satiated	stimuli/foods\grilled_chicken_breast.jpg	1	2	1	grilled_chicken_breast	1	S	13	0	63	0		0	0	105.009543899912	105.109533600044
14543.25	0.0999854002147913	151	satiated	stimuli/non_foods\non-food_inanimate_grass.jpg	1	2	1	non-food_inanimate_grass	0	X	17	0	184	0		0	0	105.159544699825	105.25953010004
14580.75	0.0999932000413537	152	satiated	stimuli/non_foods\non-food_animate_peacock.jpg	1	2	1	non-food_animate_peacock	0	M	9	0	134	0		0	0	105.3095251997	105.409518399742
14618.25	0.0999723002314568	153	satiated	stimuli/foods\potato_and_green_bean_salad.jpg	1	2	1	potato_and_green_bean_salad	1	T	14	0	246	0		0	0	105.459538799711	105.559511099942
14655.75	0.0999815999530256	154	satiated	stimuli/foods\red_cabbage.jpg	1	2	1	red_cabbage	1	V	15	0	256	0		0	0	105.609530199785	105.709511799738
14693.25	0.0999842998571694	155	satiated	stimuli/non_foods\non-food_animate_dachshund.jpg	1	2	1	non-food_animate_dachshund	0	Z	18	0	104	0		0	0	105.75952610001	105.859510399867
14730.75	0.0999997998587787	156	satiated	stimuli/foods\artichoke.jpg	1	2	1	artichoke	1	P	11	0	3	0		0	0	105.909526899923	106.009526699781
14768.25	0.0999952000565827	157	satiated	stimuli/non_foods\non-food_animate_clown.jpg	1	2	1	non-food_animate_clown	0	Z	18	0	102	0		0	0	106.05952569982	106.159520899877
14805.75	0.0999679998494685	158	satiated	stimuli/foods\watermelon.jpg	1	2	1	watermelon	1	N	10	0	279	0		0	0	106.209545299876	106.309513299726
14843.25	0.099987699650228	159	satiated	stimuli/non_foods\non-food_animate_porcupine.jpg	1	2	1	non-food_animate_porcupine	0	D	2	0	138	0		0	0	106.359526900109	106.459514599759
14880.75	0.099981099832803	160	satiated	stimuli/foods\rice.jpg	1	2	1	rice	1	B	0	0	257	0		0	0	106.509528200142	106.609509299975
14918.25	0.0999829000793397	161	satiated	stimuli/foods\asparagus.jpg	1	2	1	asparagus	1	M	9	0	4	0		0	0	106.659523299895	106.759506199975
14955.75	0.0999826998449862	162	satiated	stimuli/non_foods\non-food_inanimate_desk.jpg	1	2	1	non-food_inanimate_desk	0	W	16	0	178	0		0	0	106.809523600154	106.909506299999
14993.25	0.0999849000945687	163	satiated	stimuli/non_foods\non-food_inanimate_short_sleeved_shirt.jpg	1	2	1	non-food_inanimate_short_sleeved_shirt	0	C	1	0	207	0		0	0	106.959520000033	107.059504900128
15030.75	0.0999877997674048	164	satiated	stimuli/non_foods\non-food_animate_lion.jpg	1	2	1	non-food_animate_lion	0	W	16	0	125	0		0	0	107.109527599998	107.209515399765
15068.25	0.0999703002162278	165	satiated	stimuli/foods\rice_cake.jpg	1	2	1	rice_cake	1	B	0	0	258	0		0	0	107.259527999908	107.359498300124
15105.75	0.0999847003258765	166	satiated	stimuli/foods\avocado.jpg	1	2	1	avocado	1	P	11	0	5	0		0	0	107.409514399711	107.509499100037
15143.25	0.0999860996380448	167	satiated	stimuli/foods\spinach.jpg	1	2	1	spinach	1	J	6	0	268	0		0	0	107.55951520009	107.659501299728
15180.75	0.0999878998845816	168	satiated	stimuli/non_foods\non-food_animate_sea_lion.jpg	1	2	1	non-food_animate_sea_lion	0	T	14	0	143	0		0	0	107.709511199966	107.809499099851
15218.25	0.0999766001477838	169	satiated	stimuli/foods\potatoes.jpg	1	2	1	potatoes	1	B	0	0	248	0		0	0	107.859515199903	107.959491800051
15255.75	0.0999930002726614	170	satiated	stimuli/foods\mushroom.jpg	1	2	1	mushroom	1	C	1	0	85	0		0	0	108.009507199749	108.109500200022
15293.25	0.0999827003106475	171	satiated	stimuli/foods\lemon.jpg	1	2	1	lemon	1	V	15	0	72	0		0	0	108.159504099749	108.25948680006
15330.75	0.0999833000823855	172	satiated	stimuli/non_foods\non-food_animate_german_shepherd.jpg	1	2	1	non-food_animate_german_shepherd	0	W	16	0	114	0		0	0	108.30950600002	108.409489300102
15368.25	0.0999813000671566	173	satiated	stimuli/foods\coconut.jpg	1	2	1	coconut	1	N	10	0	33	0		0	0	108.459502900019	108.559484200086
15405.75	0.09998539974913	174	satiated	stimuli/non_foods\non-food_inanimate_table.jpg	1	2	1	non-food_inanimate_table	0	R	12	0	217	0		0	0	108.609497800004	108.709483199753
15443.25	0.099984799977392	175	satiated	stimuli/foods\cucumber.jpg	1	2	1	cucumber	1	P	11	0	41	0		0	0	108.759497500025	108.859482300002
15480.75	0.100005299784243	176	satiated	stimuli/non_foods\non-food_inanimate_protractor.jpg	1	2	1	non-food_inanimate_protractor	0	W	16	0	201	0		0	0	108.909492500126	109.009497799911
15518.25	0.0999906999059021	177	satiated	stimuli/non_foods\non-food_inanimate_suitcase.jpg	1	2	1	non-food_inanimate_suitcase	0	M	9	0	215	0		0	0	109.059493099805	109.159483799711
15555.75	0.0999822998419404	178	satiated	stimuli/foods\fries.jpg	1	2	1	fries	1	G	4	0	52	0		0	0	109.209493800066	109.309476099908
15593.25	0.0999841000884771	179	satiated	stimuli/foods\eggplant.jpg	1	2	1	eggplant	1	W	16	0	46	0		0	0	109.359489799943	109.459473900031
15630.75	0.0999886998906732	180	satiated	stimuli/non_foods\non-food_animate_monkey.jpg	1	2	1	non-food_animate_monkey	0	S	13	0	130	0		0	0	109.509489600081	109.609478299972
15668.25	0.099972799886018	181	satiated	stimuli/non_foods\non-food_animate_duck.jpg	1	2	1	non-food_animate_duck	0	C	1	0	109	0		0	0	109.659487899859	109.759460699745
15705.75	0.099984799977392	182	satiated	stimuli/foods\radish.jpg	1	2	1	radish	1	H	5	0	251	0		0	0	109.809480200056	109.909465000033
15743.25	0.0999940000474453	183	satiated	stimuli/foods\chestnut.jpg	1	2	1	chestnut	1	D	2	0	24	0		0	0	109.959477199707	110.059471199755
15780.75	0.0999738001264632	184	satiated	stimuli/non_foods\non-food_animate_skunk.jpg	1	2	1	non-food_animate_skunk	0	F	3	0	147	0		0	0	110.10949239973	110.209466199856
15818.25	0.0999846998602152	185	satiated	stimuli/foods\oven-roasted_tomatoes.jpg	1	2	1	oven-roasted_tomatoes	1	X	17	0	232	0		0	0	110.259479700122	110.359464399982
15855.75	0.0999834001995623	186	satiated	stimuli/foods\cannoli.jpg	1	2	1	cannoli	1	G	4	0	17	0		0	0	110.409478799906	110.509462200105
15893.25	0.0999636999331415	187	satiated	stimuli/foods\lamb_chops.jpg	1	2	1	lamb_chops	1	P	11	0	70	0		0	0	110.55947369989	110.659437399823
15930.75	0.100001600105315	188	satiated	stimuli/foods\mandarin.jpg	1	2	1	mandarin	1	N	10	0	79	0		0	0	110.709459799808	110.809461399913
15968.25	0.0999870002269745	189	satiated	stimuli/non_foods\non-food_inanimate_rack.jpg	1	2	1	non-food_inanimate_rack	0	J	6	0	202	0		0	0	110.859469099902	110.959456100129
16005.75	0.0999912000261247	190	satiated	stimuli/foods\steak.jpg	1	2	1	steak	1	Z	18	0	270	0		0	0	111.009469300043	111.109460500069
16043.25	0.0999813000671566	191	satiated	stimuli/foods\savory_pie.jpg	1	2	1	savory_pie	1	H	5	0	265	0		0	0	111.159471000079	111.259452300146
16080.75	0.100019299890846	192	satiated	stimuli/non_foods\non-food_animate_slug.jpg	1	2	1	non-food_animate_slug	0	W	16	0	148	0		0	0	111.309466999955	111.409486299846
16118.25	0.0999406999908388	193	satiated	stimuli/foods\chilli.jpg	1	2	1	chilli	1	L	8	0	25	0		0	0	111.459514500108	111.559455200098
16155.75	0.0999843999743462	194	satiated	stimuli/non_foods\non-food_inanimate_tulip.jpg	1	2	1	non-food_inanimate_tulip	0	M	9	0	224	0		0	0	111.609463700093	111.709448100068
16193.25	0.0999839999713004	195	satiated	stimuli/non_foods\non-food_inanimate_briefcase.jpg	1	2	1	non-food_inanimate_briefcase	0	N	10	0	163	0		0	0	111.759462200105	111.859446200076
16230.75	0.0999859999865294	196	satiated	stimuli/non_foods\non-food_animate_parrot.jpg	1	2	1	non-food_animate_parrot	0	C	1	0	133	0		0	0	111.909460199997	112.009446199983
16268.25	0.0999845000915229	197	satiated	stimuli/non_foods\non-food_animate_millipede.jpg	1	2	1	non-food_animate_millipede	0	S	13	0	129	0		0	0	112.059459100012	112.159443600103
16305.75	0.0999854002147913	198	satiated	stimuli/non_foods\non-food_animate_caterpillar.jpg	1	2	1	non-food_animate_caterpillar	0	P	11	0	99	0		0	0	112.209455099888	112.309440500103
16343.25	0.099965900182724	199	satiated	stimuli/foods\honey.jpg	1	2	1	honey	1	G	4	0	66	0		0	0	112.359452799894	112.459418700077
16380.75	0.0999855999834836	200	satiated	stimuli/foods\pickles.jpg	1	2	1	pickles	1	P	11	0	242	0		0	0	112.509444899857	112.609430499841
16418.25	0.0999749000184238	201	satiated	stimuli/foods\onion.jpg	1	2	1	onion	1	N	10	0	229	0		0	0	112.659462099895	112.759436999913
16455.75	0.100001600105315	202	satiated	stimuli/non_foods\non-food_inanimate_hay.jpg	1	2	1	non-food_inanimate_hay	0	X	17	0	187	0		0	0	112.809428399894	112.90943
16493.25	0.0999906999059021	203	satiated	stimuli/foods\donut.jpg	1	2	1	donut	1	D	2	0	44	0		0	0	112.9594434998	113.059434199706
16530.75	0.0999964000657201	204	satiated	stimuli/non_foods\non-food_animate_elephant.jpg	1	2	1	non-food_animate_elephant	0	C	1	0	111	0		0	0	113.109449699987	113.209446100052
16568.25	0.0999958999454975	205	satiated	stimuli/foods\garlic.jpg	1	2	1	garlic	1	B	0	0	56	0		0	0	113.259422599804	113.359418499749
16605.75	0.0999810001812875	206	satiated	stimuli/foods\grapefruits.jpg	1	2	1	grapefruits	1	M	9	0	59	0		0	0	113.409437799826	113.509418800008
16643.25	0.0999880000017583	207	satiated	stimuli/foods\cooked_ham.jpg	1	2	1	cooked_ham	1	J	6	0	35	0		0	0	113.559428500012	113.659416500013
16680.75	0.100001099985093	208	satiated	stimuli/foods\spring_onions.jpg	1	2	1	spring_onions	1	V	15	0	269	0		0	0	113.709433000069	113.809434100054
16718.25	0.0999694997444749	209	satiated	stimuli/foods\peach.jpg	1	2	1	peach	1	X	17	0	238	0		0	0	113.859439000022	113.959408499766
16755.75	0.100003100000322	210	satiated	stimuli/non_foods\non-food_animate_swan.jpg	1	2	1	non-food_animate_swan	0	B	0	0	152	0		0	0	114.00942389993	114.10942699993
16793.25	0.099985099863261	211	satiated	stimuli/foods\cherry.jpg	1	2	1	cherry	1	Z	18	0	23	0		0	0	114.159435200039	114.259420299903
16830.75	0.0999885997734964	212	satiated	stimuli/non_foods\non-food_animate_bat.jpg	1	2	1	non-food_animate_bat	0	V	15	0	94	0		0	0	114.309418899938	114.409407499712
16868.25	0.0999803999438882	213	satiated	stimuli/foods\orange.jpg	1	2	1	orange	1	F	3	0	230	0		0	0	114.459421500098	114.559401900042
16905.75	0.0999814998358488	214	satiated	stimuli/foods\dates.jpg	1	2	1	dates	1	M	9	0	43	0		0	0	114.609421500005	114.709402999841
16943.25	0.099993399810046	215	satiated	stimuli/non_foods\non-food_animate_pigeon.jpg	1	2	1	non-food_animate_pigeon	0	A	19	1	136	0		0	0	114.759411599953	114.859404999763
16980.75	0.0999504001811147	216	satiated	stimuli/non_foods\non-food_animate_fox.jpg	1	2	1	non-food_animate_fox	0	H	5	0	112	0		0	0	114.909432299901	115.009382700082
17018.25	0.0999450003728271	217	satiated	stimuli/non_foods\non-food_inanimate_jeans.jpg	1	2	1	non-food_inanimate_jeans	0	F	3	0	191	0		0	0	115.059448099695	115.159393100068
17055.75	0.0999853000976145	218	satiated	stimuli/non_foods\non-food_animate_dragonfly.jpg	1	2	1	non-food_animate_dragonfly	0	T	14	0	108	1	a	0.541826900094748	1	115.209412300028	115.309397600126
17093.25	0.0999910999089479	219	satiated	stimuli/non_foods\non-food_inanimate_stapler.jpg	1	2	1	non-food_inanimate_stapler	0	N	10	0	213	0		0	0	115.35940610012	115.459397200029
17130.75	0.0999825000762939	220	satiated	stimuli/non_foods\non-food_inanimate_broom.jpg	1	2	1	non-food_inanimate_broom	0	J	6	0	164	0		0	0	115.509420999791	115.609403499868
17168.25	0.0999643001705408	221	satiated	stimuli/foods\gnocchi.jpg	1	2	1	gnocchi	1	N	10	0	58	0		0	0	115.659417499788	115.759381799959
17205.75	0.0999861001037061	222	satiated	stimuli/foods\fennel.jpg	1	2	1	fennel	1	L	8	0	47	0		0	0	115.809402700048	115.909388800152
17243.25	0.0999867999926209	223	satiated	stimuli/non_foods\non-food_animate_seahorse.jpg	1	2	1	non-food_animate_seahorse	0	F	3	0	145	0		0	0	115.959400499705	116.059387299698
17280.75	0.0999783999286592	224	satiated	stimuli/foods\raw_ham.jpg	1	2	1	raw_ham	1	M	9	0	253	0		0	0	116.109409799799	116.209388199728
17318.25	0.0999793997034431	225	satiated	stimuli/non_foods\non-food_inanimate_scissors.jpg	1	2	1	non-food_inanimate_scissors	0	P	11	0	205	0		0	0	116.259402600117	116.35938199982
17355.75	0.099984799977392	226	satiated	stimuli/foods\apple.jpg	1	2	1	apple	1	F	3	0	1	0		0	0	116.40939819999	116.509382999968
17393.25	0.0999858998693526	227	satiated	stimuli/non_foods\non-food_inanimate_couch.jpg	1	2	1	non-food_inanimate_couch	0	V	15	0	176	0		0	0	116.559392800089	116.659378699958
17430.75	0.0999758997932076	228	satiated	stimuli/non_foods\non-food_inanimate_ring.jpg	1	2	1	non-food_inanimate_ring	0	W	16	0	203	0		0	0	116.709407099988	116.809382999782
17468.25	0.0999786001630127	229	satiated	stimuli/non_foods\non-food_inanimate_fire_extinguisher.jpg	1	2	1	non-food_inanimate_fire_extinguisher	0	G	4	0	181	0		0	0	116.859401499853	116.959380100016
17505.75	0.100002800114453	230	satiated	stimuli/foods\kiwi.jpg	1	2	1	kiwi	1	K	7	0	69	0		0	0	117.009378999937	117.109381800052
17543.25	0.0999861001037061	231	satiated	stimuli/non_foods\non-food_inanimate_headphones.jpg	1	2	1	non-food_inanimate_headphones	0	D	2	0	188	0		0	0	117.159394899849	117.259380999953
17580.75	0.0999731998890638	232	satiated	stimuli/non_foods\non-food_animate_Asian_man.jpg	1	2	1	non-food_animate_Asian_man	0	H	5	0	88	0		0	0	117.30940080015	117.409374000039
17618.25	0.0999590000137687	233	satiated	stimuli/foods\cabbage.jpg	1	2	1	cabbage	1	V	15	0	16	0		0	0	117.45939199999	117.559351000004
17655.75	0.0999847003258765	234	satiated	stimuli/foods\grapes.jpg	1	2	1	grapes	1	T	14	0	60	0		0	0	117.609382799827	117.709367500152
17693.25	0.0999880000017583	235	satiated	stimuli/non_foods\non-food_inanimate_stoplight.jpg	1	2	1	non-food_inanimate_stoplight	0	G	4	0	214	0		0	0	117.759378999937	117.859366999939
17730.75	0.0999668999575078	236	satiated	stimuli/non_foods\non-food_animate_raccoon.jpg	1	2	1	non-food_animate_raccoon	0	J	6	0	139	0		0	0	117.909398899879	118.009365799837
17768.25	0.0999976000748575	237	satiated	stimuli/non_foods\non-food_inanimate_skateboard.jpg	1	2	1	non-food_inanimate_skateboard	0	B	0	0	208	0		0	0	118.05937619973	118.159373799805
17805.75	0.0999823003076017	238	satiated	stimuli/non_foods\non-food_animate_chicken.jpg	1	2	1	non-food_animate_chicken	0	H	5	0	101	0		0	0	118.20938579971	118.309368100017
17843.25	0.0999859999865294	239	satiated	stimuli/non_foods\non-food_inanimate_tree.jpg	1	2	1	non-food_inanimate_tree	0	X	17	0	223	0		0	0	118.359381199814	118.459367199801
17880.75	0.0999997002072632	240	satiated	stimuli/foods\banana.jpg	1	2	1	banana	1	W	16	0	9	0		0	0	118.509395899717	118.609395599924
17918.25	0.0999600002542138	241	satiated	stimuli/non_foods\non-food_inanimate_horn.jpg	1	2	1	non-food_inanimate_horn	0	N	10	0	190	0		0	0	118.659400099888	118.759360100143
17955.75	0.0999859003350139	242	satiated	stimuli/foods\carrot.jpg	1	2	1	carrot	1	W	16	0	19	0		0	0	118.809376599733	118.909362500068
17993.25	0.0999875999987125	243	satiated	stimuli/foods\ice_cream.jpg	1	2	1	ice_cream	1	J	6	0	68	0		0	0	118.95937359985	119.059361199848
18030.75	0.0999714997597039	244	satiated	stimuli/non_foods\non-food_inanimate_cap.jpg	1	2	1	non-food_inanimate_cap	0	M	9	0	171	0		0	0	119.109383800067	119.209355299827
18068.25	0.0999831999652088	245	satiated	stimuli/foods\stew_with_potatoes_and_carrots.jpg	1	2	1	stew_with_potatoes_and_carrots	1	U	23	1	271	0		0	0	119.259373200126	119.359356400091
18105.75	0.0999811999499798	246	satiated	stimuli/foods\lime.jpg	1	2	1	lime	1	B	0	0	76	0		0	0	119.409372999799	119.509354199748
18143.25	0.0999738001264632	247	satiated	stimuli/non_foods\non-food_inanimate_cupboard.jpg	1	2	1	non-food_inanimate_cupboard	0	C	1	0	177	0		0	0	119.559364699759	119.659338499885
18180.75	0.0999828004278243	248	satiated	stimuli/non_foods\non-food_inanimate_lighter.jpg	1	2	1	non-food_inanimate_lighter	0	S	13	0	193	0		0	0	119.709372299723	119.809355100151
18218.25	0.0999761000275612	249	satiated	stimuli/non_foods\non-food_animate_yellow_bug.jpg	1	2	1	non-food_animate_yellow_bug	0	Z	18	0	155	0		0	0	119.859363900032	119.959340000059
18255.75	0.0999906999059021	250	satiated	stimuli/foods\lasagna.jpg	1	2	1	lasagna	1	L	8	0	71	0		0	0	120.009353899863	120.109344599769
18293.25	0.100004999898374	251	satiated	stimuli/non_foods\non-food_inanimate_leaf.jpg	1	2	1	non-food_inanimate_leaf	0	D	2	0	192	0		0	0	120.159346399829	120.259351399727
18330.75	0.0999540998600423	252	satiated	stimuli/non_foods\non-food_animate_woman.jpg	1	2	1	non-food_animate_woman	0	J	6	0	154	0		0	0	120.309367800131	120.409321899991
18368.25	0.0999992000870407	253	satiated	stimuli/non_foods\non-food_animate_baby_sitting.jpg	1	2	1	non-food_animate_baby_sitting	0	W	16	0	93	0		0	0	120.45934699988	120.559346199967
18405.75	0.0999855999834836	254	satiated	stimuli/non_foods\non-food_animate_iguana.jpg	1	2	1	non-food_animate_iguana	0	G	4	0	121	0		0	0	120.609352699947	120.70933829993
18443.25	0.100002500228584	255	satiated	stimuli/non_foods\non-food_animate_mammoth.jpg	1	2	1	non-food_animate_mammoth	0	C	1	0	128	0		0	0	120.759347099811	120.859349600039
18480.75	0.0999826001934707	256	satiated	stimuli/non_foods\non-food_inanimate_orchid.jpg	1	2	1	non-food_inanimate_orchid	0	Z	18	0	198	0		0	0	120.909353899769	121.009336499963
18518.25	0.0999735998921096	257	satiated	stimuli/foods\hamburger.jpg	1	2	1	hamburger	1	D	2	0	64	0		0	0	121.059351000004	121.159324599896
18555.75	0.100000099744648	258	satiated	stimuli/non_foods\non-food_inanimate_soccer_ball.jpg	1	2	1	non-food_inanimate_soccer_ball	0	H	5	0	210	0		0	0	121.20933530014	121.309335399885
18593.25	0.0999960000626743	259	satiated	stimuli/non_foods\non-food_inanimate_cactus_pot_plant.jpg	1	2	1	non-food_inanimate_cactus_pot_plant	0	T	14	0	169	0		0	0	121.359344999772	121.459340999834
18630.75	0.0999831999652088	260	satiated	stimuli/foods\cauliflower.jpg	1	2	1	cauliflower	1	R	12	0	20	0		0	0	121.509346100036	121.609329300001
18668.25	0.0999877997674048	261	satiated	stimuli/foods\chocolate_chip_cookies.jpg	1	2	1	chocolate_chip_cookies	1	F	3	0	27	0		0	0	121.659341500141	121.759329299908
18705.75	0.0999851999804378	262	satiated	stimuli/non_foods\non-food_inanimate_gloves.jpg	1	2	1	non-food_inanimate_gloves	0	X	17	0	183	0		0	0	121.80934089981	121.909326099791
18743.25	0.0999904000200331	263	satiated	stimuli/foods\bagel.jpg	1	2	1	bagel	1	Z	18	0	6	0		0	0	121.959339899942	122.059330299962
18780.75	0.0999517999589443	264	satiated	stimuli/foods\beetroots.jpg	1	2	1	beetroots	1	X	17	0	10	0		0	0	122.10935360007	122.209305400029
18818.25	0.0999863999895751	265	satiated	stimuli/foods\rockmelon.jpg	1	2	1	rockmelon	1	V	15	0	262	0		0	0	122.259334600065	122.359321000054
18855.75	0.0999841997399926	266	satiated	stimuli/non_foods\non-food_animate_eagle.jpg	1	2	1	non-food_animate_eagle	0	W	16	0	110	0		0	0	122.409334199969	122.509318399709
18893.25	0.0999850002117455	267	satiated	stimuli/non_foods\non-food_animate_ram.jpg	1	2	1	non-food_animate_ram	0	L	8	0	140	0		0	0	122.559330899734	122.659315899946
18930.75	0.0999898998998106	268	satiated	stimuli/foods\brussel_sprouts.jpg	1	2	1	brussel_sprouts	1	K	7	0	15	0		0	0	122.709327499848	122.809317399748
18968.25	0.0999846998602152	269	satiated	stimuli/foods\fruit_flan.jpg	1	2	1	fruit_flan	1	H	5	0	53	0		0	0	122.85932649998	122.95931119984
19005.75	0.0999882998876274	270	satiated	stimuli/foods\lemon_meringue_pie.jpg	1	2	1	lemon_meringue_pie	1	J	6	0	73	0		0	0	123.009324700106	123.109312999994
19043.25	0.0999632999300957	271	satiated	stimuli/non_foods\non-food_inanimate_bed.jpg	1	2	1	non-food_inanimate_bed	0	Z	18	0	160	0		0	0	123.15932480013	123.25928810006
19080.5	0.0999976000748575	272	satiated	stimuli/foods\hazelnuts.jpg	1	2	1	hazelnuts	1	N	10	0	65	0		0	0	123.309301199857	123.409298799932
19118.25	0.099976200144738	273	satiated	stimuli/foods\pancakes.jpg	1	2	1	pancakes	1	G	4	0	234	0		0	0	123.459317499772	123.559293699916
19155.75	0.0999855999834836	274	satiated	stimuli/foods\cooked_prawn.jpg	1	2	1	cooked_prawn	1	X	17	0	36	0		0	0	123.609312700108	123.709298300091
19193.25	0.100015199743211	275	satiated	stimuli/non_foods\non-food_inanimate_toilet.jpg	1	2	1	non-food_inanimate_toilet	0	P	11	0	220	0		0	0	123.759304400068	123.859319599811
19230.75	0.0999655001796782	276	satiated	stimuli/foods\strawberry.jpg	1	2	1	strawberry	1	K	7	0	272	0		0	0	123.909332399722	124.009297899902
19268.25	0.0999807002954185	277	satiated	stimuli/foods\meatballs.jpg	1	2	1	meatballs	1	H	5	0	81	0		0	0	124.05930629978	124.159287000075
19305.75	0.10000120010227	278	satiated	stimuli/foods\salami.jpg	1	2	1	salami	1	L	8	0	263	0		0	0	124.209305299912	124.309306500014
19343.25	0.0999837997369468	279	satiated	stimuli/non_foods\non-food_inanimate_bamboo.jpg	1	2	1	non-food_inanimate_bamboo	0	J	6	0	159	0		0	0	124.359305500053	124.45928929979
20097.25	0.0999718997627497	280	satiated	stimuli/non_foods\non-food_animate_runner.jpg	1	3	1	non-food_animate_runner	0	W	16	0	142	0		0	0	127.375947799999	127.475919699762
20134.75	0.0999801000580192	281	satiated	stimuli/non_foods\non-food_animate_millipede.jpg	1	3	1	non-food_animate_millipede	0	X	17	0	129	0		0	0	127.525935699698	127.625915799756
20172.25	0.0999731998890638	282	satiated	stimuli/non_foods\non-food_animate_hummingbird.jpg	1	3	1	non-food_animate_hummingbird	0	N	10	0	120	0		0	0	127.675942900125	127.775916100014
20209.75	0.0999803002923727	283	satiated	stimuli/non_foods\non-food_inanimate_headphones.jpg	1	3	1	non-food_inanimate_headphones	0	Z	18	0	188	0		0	0	127.825928799808	127.9259091001
20247.25	0.099981099832803	284	satiated	stimuli/non_foods\non-food_animate_fox.jpg	1	3	1	non-food_animate_fox	0	R	12	0	112	0		0	0	127.97594169993	128.075922799762
20284.75	0.0999838002026081	285	satiated	stimuli/foods\baked_cod_with_carrots_and_green_beans.jpg	1	3	1	baked_cod_with_carrots_and_green_beans	1	P	11	0	7	0		0	0	128.125934599899	128.225918400101
20322.25	0.0999843999743462	286	satiated	stimuli/non_foods\non-food_inanimate_hay.jpg	1	3	1	non-food_inanimate_hay	0	F	3	0	187	0		0	0	128.275929899886	128.375914299861
20359.75	0.10000400012359	287	satiated	stimuli/foods\pasta_carbonara.jpg	1	3	1	pasta_carbonara	1	B	0	0	236	0		0	0	128.425911999773	128.525915999897
20397.25	0.099966200068593	288	satiated	stimuli/non_foods\non-food_animate_sea_turtle.jpg	1	3	1	non-food_animate_sea_turtle	0	J	6	0	144	0		0	0	128.575937199872	128.675903399941
20434.75	0.0999695002101362	289	satiated	stimuli/foods\chocolate_chip_cookies.jpg	1	3	1	chocolate_chip_cookies	1	F	3	0	27	0		0	0	128.725937199779	128.825906699989
20472.25	0.0999857001006603	290	satiated	stimuli/foods\pea_pod.jpg	1	3	1	pea_pod	1	K	7	0	237	0		0	0	128.875916399993	128.975902100094
20509.75	0.0999859999865294	291	satiated	stimuli/non_foods\non-food_animate_ant.jpg	1	3	1	non-food_animate_ant	0	V	15	0	91	0		0	0	129.025914399885	129.125900399871
20547.25	0.0999954999424517	292	satiated	stimuli/foods\ice_cream.jpg	1	3	1	ice_cream	1	H	5	0	68	0		0	0	129.175914499909	129.275909999851
20584.75	0.0999833000823855	293	satiated	stimuli/foods\pear.jpg	1	3	1	pear	1	T	14	0	239	0		0	0	129.325918300077	129.42590160016
20622.25	0.0999851999804378	294	satiated	stimuli/non_foods\non-food_inanimate_short_sleeved_shirt.jpg	1	3	1	non-food_inanimate_short_sleeved_shirt	0	Z	18	0	207	0		0	0	129.47591509996	129.57590029994
20659.75	0.0999843999743462	295	satiated	stimuli/non_foods\non-food_inanimate_alarm_clock.jpg	1	3	1	non-food_inanimate_alarm_clock	0	J	6	0	158	0		0	0	129.62591499975	129.725899399724
20697.25	0.0999749000184238	296	satiated	stimuli/foods\savory_pie.jpg	1	3	1	savory_pie	1	P	11	0	265	0		0	0	129.775918799918	129.875893699937
20734.75	0.0999890002422035	297	satiated	stimuli/non_foods\non-food_inanimate_tent.jpg	1	3	1	non-food_inanimate_tent	0	N	10	0	219	0		0	0	129.925909599755	130.025898599997
20772.25	0.0999855999834836	298	satiated	stimuli/foods\croissant.jpg	1	3	1	croissant	1	V	15	0	40	0		0	0	130.075910400134	130.175896000117
20809.75	0.0999863999895751	299	satiated	stimuli/foods\oven-roasted_tomatoes.jpg	1	3	1	oven-roasted_tomatoes	1	T	14	0	232	0		0	0	130.225904699881	130.32589109987
20847.25	0.100004099775106	300	satiated	stimuli/foods\artichoke.jpg	1	3	1	artichoke	1	F	3	0	3	0		0	0	130.375910500064	130.47591459984
20884.75	0.0999500998295844	301	satiated	stimuli/foods\salami.jpg	1	3	1	salami	1	N	10	0	263	0		0	0	130.525937899947	130.625887999777
20922.25	0.0999866998754442	302	satiated	stimuli/foods\asparagus.jpg	1	3	1	asparagus	1	T	14	0	4	0		0	0	130.675900700036	130.775887399912
20959.75	0.0999833000823855	303	satiated	stimuli/non_foods\non-food_inanimate_gloves.jpg	1	3	1	non-food_inanimate_gloves	0	P	11	0	183	0		0	0	130.825901200064	130.925884500146
20997.25	0.0999842002056539	304	satiated	stimuli/non_foods\non-food_inanimate_clover.jpg	1	3	1	non-food_inanimate_clover	0	C	1	0	174	0		0	0	130.975896799937	131.075881000143
21034.75	0.0999871999956667	305	satiated	stimuli/foods\grapefruits.jpg	1	3	1	grapefruits	1	U	23	1	59	0		0	0	131.125895999838	131.225883199833
21072.25	0.0999843003228307	306	satiated	stimuli/foods\minestrone_soup.jpg	1	3	1	minestrone_soup	1	C	1	0	82	0		0	0	131.275891699828	131.375876000151
21109.75	0.0999863999895751	307	satiated	stimuli/foods\chocolate_pralines.jpg	1	3	1	chocolate_pralines	1	W	16	0	28	0		0	0	131.425892999861	131.525879399851
21147.25	0.0999739002436399	308	satiated	stimuli/non_foods\non-food_inanimate_highlighter.jpg	1	3	1	non-food_inanimate_highlighter	0	K	7	0	189	0		0	0	131.575901299715	131.675875199959
21184.75	0.0999834998510778	309	satiated	stimuli/non_foods\non-food_inanimate_toy_airplane.jpg	1	3	1	non-food_inanimate_toy_airplane	0	J	6	0	222	0		0	0	131.725888399873	131.825871899724
21222.25	0.0999867999926209	310	satiated	stimuli/foods\baked_lamb_with_potatoes.jpg	1	3	1	baked_lamb_with_potatoes	1	K	7	0	8	0		0	0	131.875887800008	131.975874600001
21259.75	0.0999905001372099	311	satiated	stimuli/non_foods\non-food_animate_donkey.jpg	1	3	1	non-food_animate_donkey	0	G	4	0	107	0		0	0	132.025881899986	132.125872400124
21297.25	0.099961900152266	312	satiated	stimuli/foods\papaya.jpg	1	3	1	papaya	1	S	13	0	235	0		0	0	132.175909599755	132.275871499907
21334.75	0.0999797000549734	313	satiated	stimuli/foods\pumpkin.jpg	1	3	1	pumpkin	1	R	12	0	250	0		0	0	132.325879499782	132.425859199837
21372.25	0.0999864996410906	314	satiated	stimuli/non_foods\non-food_inanimate_bush.jpg	1	3	1	non-food_inanimate_bush	0	F	3	0	167	0		0	0	132.47587110009	132.575857599732
21409.75	0.0999852996319532	315	satiated	stimuli/non_foods\non-food_inanimate_waterlily.jpg	1	3	1	non-food_inanimate_waterlily	0	S	13	0	226	0		0	0	132.625872800127	132.725858099759
21447.25	0.099984799977392	316	satiated	stimuli/non_foods\non-food_animate_Asian_man.jpg	1	3	1	non-food_animate_Asian_man	0	H	5	0	88	0		0	0	132.775869399775	132.875854199752
21484.75	0.0999844996258616	317	satiated	stimuli/non_foods\non-food_inanimate_rope.jpg	1	3	1	non-food_inanimate_rope	0	X	17	0	204	0		0	0	132.925868200138	133.025852699764
21522.25	0.100001799874008	318	satiated	stimuli/foods\fries.jpg	1	3	1	fries	1	L	8	0	52	0		0	0	133.075858099852	133.175859899726
21559.75	0.10000740038231	319	satiated	stimuli/foods\cream_donuts.jpg	1	3	1	cream_donuts	1	J	6	0	39	0		0	0	133.225867599715	133.325875000097
21597.25	0.0999735998921096	320	satiated	stimuli/foods\lamb_chops.jpg	1	3	1	lamb_chops	1	K	7	0	70	0		0	0	133.375882899854	133.475856499746
21634.75	0.0999875999987125	321	satiated	stimuli/non_foods\non-food_animate_mammoth.jpg	1	3	1	non-food_animate_mammoth	0	M	9	0	128	0		0	0	133.525862900075	133.625850500073
21672.25	0.0999809997156262	322	satiated	stimuli/foods\chilli.jpg	1	3	1	chilli	1	T	14	0	25	0		0	0	133.67586930003	133.775850299746
21709.75	0.0999896000139415	323	satiated	stimuli/non_foods\non-food_animate_young_boy.jpg	1	3	1	non-food_animate_young_boy	0	F	3	0	156	0		0	0	133.825864899904	133.925854499917
21747.25	0.0999596999026835	324	satiated	stimuli/foods\orange.jpg	1	3	1	orange	1	J	6	0	230	0		0	0	133.975887400098	134.075847100001
21784.75	0.0999694997444749	325	satiated	stimuli/foods\cabbage.jpg	1	3	1	cabbage	1	K	7	0	16	0		0	0	134.125876400154	134.225845899899
21822.25	0.0999831999652088	326	satiated	stimuli/non_foods\non-food_inanimate_skateboard.jpg	1	3	1	non-food_inanimate_skateboard	0	B	0	0	208	0		0	0	134.275861099828	134.375844299793
21859.75	0.0999843999743462	327	satiated	stimuli/non_foods\non-food_inanimate_rack.jpg	1	3	1	non-food_inanimate_rack	0	L	8	0	202	0		0	0	134.425854600035	134.525839000009
21897.25	0.0999928000383079	328	satiated	stimuli/non_foods\non-food_animate_ladybug.jpg	1	3	1	non-food_animate_ladybug	0	J	6	0	124	0		0	0	134.575852599926	134.675845399965
21934.75	0.0999862002208829	329	satiated	stimuli/foods\lettuce.jpg	1	3	1	lettuce	1	T	14	0	75	0		0	0	134.725851799827	134.825838000048
21972.25	0.100000299979001	330	satiated	stimuli/foods\fennel.jpg	1	3	1	fennel	1	K	7	0	47	0		0	0	134.87583469972	134.975834999699
22009.75	0.0999982999637723	331	satiated	stimuli/foods\eggplant.jpg	1	3	1	eggplant	1	C	1	0	46	0		0	0	135.025848899968	135.125847199932
22047.25	0.0999818998388946	332	satiated	stimuli/non_foods\non-food_inanimate_tree.jpg	1	3	1	non-food_inanimate_tree	0	R	12	0	223	0		0	0	135.175848199986	135.275830099825
22084.75	0.099985099863261	333	satiated	stimuli/non_foods\non-food_animate_killer_whale.jpg	1	3	1	non-food_animate_killer_whale	0	H	5	0	123	0		0	0	135.325845499989	135.425830599852
22122.25	0.0999814001843333	334	satiated	stimuli/non_foods\non-food_animate_bee.jpg	1	3	1	non-food_animate_bee	0	J	6	0	95	0		0	0	135.475847099908	135.575828500092
22159.75	0.0999893001280725	335	satiated	stimuli/non_foods\non-food_inanimate_briefcase.jpg	1	3	1	non-food_inanimate_briefcase	0	M	9	0	163	0		0	0	135.625840699766	135.725829999894
22197.25	0.0999545999802649	336	satiated	stimuli/non_foods\non-food_animate_cat.jpg	1	3	1	non-food_animate_cat	0	S	13	0	98	0		0	0	135.775871799793	135.875826399773
22234.75	0.0999854002147913	337	satiated	stimuli/non_foods\non-food_inanimate_cap.jpg	1	3	1	non-food_inanimate_cap	0	H	5	0	171	0		0	0	135.925838599913	136.025824000128
22272.25	0.0999871003441513	338	satiated	stimuli/foods\dates.jpg	1	3	1	dates	1	B	0	0	43	0		0	0	136.075836599804	136.175823700149
22309.75	0.0999811999499798	339	satiated	stimuli/non_foods\non-food_inanimate_soccer_ball.jpg	1	3	1	non-food_inanimate_soccer_ball	0	P	11	0	210	0		0	0	136.225839199964	136.325820399914
22347.25	0.0999863003380597	340	satiated	stimuli/non_foods\non-food_animate_seahorse.jpg	1	3	1	non-food_animate_seahorse	0	M	9	0	145	0		0	0	136.375832699705	136.475819000043
22384.75	0.0999869001097977	341	satiated	stimuli/non_foods\non-food_inanimate_watering_can.jpg	1	3	1	non-food_inanimate_watering_can	0	G	4	0	225	0		0	0	136.525829599705	136.625816499814
22422.25	0.0999834998510778	342	satiated	stimuli/non_foods\non-food_animate_raccoon.jpg	1	3	1	non-food_animate_raccoon	0	K	7	0	139	0		0	0	136.675830599852	136.775814099703
22459.75	0.0999857997521758	343	satiated	stimuli/foods\red_cabbage.jpg	1	3	1	red_cabbage	1	I	21	1	256	0		0	0	136.825827700086	136.925813499838
22497.25	0.0999741000123322	344	satiated	stimuli/foods\onion.jpg	1	3	1	onion	1	C	1	0	229	0		0	0	136.975838299841	137.075812399853
22534.75	0.0999636999331415	345	satiated	stimuli/non_foods\non-food_animate_peacock.jpg	1	3	1	non-food_animate_peacock	0	M	9	0	134	0		0	0	137.1258276999	137.225791399833
22572.25	0.0999863999895751	346	satiated	stimuli/foods\chocolate_bar.jpg	1	3	1	chocolate_bar	1	Z	18	0	26	1	a	0.557430099695921	1	137.27582510002	137.375811500009
22609.75	0.100000800099224	347	satiated	stimuli/foods\hamburger.jpg	1	3	1	hamburger	1	T	14	0	64	0		0	0	137.425823600031	137.525824400131
22647.25	0.0999525999650359	348	satiated	stimuli/foods\lollies.jpg	1	3	1	lollies	1	X	17	0	78	0		0	0	137.575842000078	137.675794600043
22684.75	0.0999711002223194	349	satiated	stimuli/non_foods\non-food_animate_dragonfly.jpg	1	3	1	non-food_animate_dragonfly	0	Z	18	0	108	0		0	0	137.725816099904	137.825787200127
22722.25	0.100001099985093	350	satiated	stimuli/non_foods\non-food_inanimate_nest.jpg	1	3	1	non-food_inanimate_nest	0	M	9	0	196	0		0	0	137.875799300149	137.975800400134
22759.75	0.0999863003380597	351	satiated	stimuli/foods\green_beans.jpg	1	3	1	green_beans	1	Z	18	0	61	0		0	0	138.025814499706	138.125800800044
22797.25	0.0999863999895751	352	satiated	stimuli/foods\green_olives.jpg	1	3	1	green_olives	1	R	12	0	62	0		0	0	138.175812999718	138.275799399707
22834.75	0.0999865001067519	353	satiated	stimuli/foods\pancakes.jpg	1	3	1	pancakes	1	N	10	0	234	0		0	0	138.325809499715	138.425795999821
22872.25	0.0999877997674048	354	satiated	stimuli/foods\rockmelon.jpg	1	3	1	rockmelon	1	J	6	0	262	0		0	0	138.475806599949	138.575794399716
22909.75	0.0999711002223194	355	satiated	stimuli/non_foods\non-food_inanimate_folding_chair.jpg	1	3	1	non-food_inanimate_folding_chair	0	K	7	0	182	0		0	0	138.625820799731	138.725791899953
22947.25	0.0999967996031046	356	satiated	stimuli/non_foods\non-food_inanimate_wrench.jpg	1	3	1	non-food_inanimate_wrench	0	P	11	0	227	0		0	0	138.77579380013	138.875790599734
22984.75	0.099987399764359	357	satiated	stimuli/non_foods\non-food_animate_seal.jpg	1	3	1	non-food_animate_seal	0	X	17	0	146	0		0	0	138.925803699996	139.025791099761
23022.25	0.0999989998526871	358	satiated	stimuli/non_foods\non-food_animate_baby_crawling.jpg	1	3	1	non-food_animate_baby_crawling	0	W	16	0	92	0		0	0	139.075788599905	139.175787599757
23059.75	0.100012499839067	359	satiated	stimuli/foods\tomato.jpg	1	3	1	tomato	1	C	1	0	276	0		0	0	139.225792699959	139.325805199798
23097.25	0.099940299987793	360	satiated	stimuli/non_foods\non-food_inanimate_protractor.jpg	1	3	1	non-food_inanimate_protractor	0	J	6	0	201	0		0	0	139.375843700022	139.475784000009
23134.75	0.0999858998693526	361	satiated	stimuli/non_foods\non-food_inanimate_jeans.jpg	1	3	1	non-food_inanimate_jeans	0	M	9	0	191	0		0	0	139.525794399902	139.625780299772
23172.25	0.0999867999926209	362	satiated	stimuli/non_foods\non-food_animate_caterpillar.jpg	1	3	1	non-food_animate_caterpillar	0	R	12	0	99	0		0	0	139.675793400034	139.775780200027
23209.75	0.0999652999453247	363	satiated	stimuli/non_foods\non-food_inanimate_bicycle.jpg	1	3	1	non-food_inanimate_bicycle	0	J	6	0	161	0		0	0	139.825793799944	139.92575909989
23247.25	0.0999763002619147	364	satiated	stimuli/non_foods\non-food_animate_sea_lion.jpg	1	3	1	non-food_animate_sea_lion	0	K	7	0	143	0		0	0	139.97579099983	140.075767300092
23284.75	0.0999708999879658	365	satiated	stimuli/foods\hotdog.jpg	1	3	1	hotdog	1	N	10	0	67	0		0	0	140.125788100064	140.225759000052
23322.25	0.100010599941015	366	satiated	stimuli/non_foods\non-food_inanimate_grass.jpg	1	3	1	non-food_inanimate_grass	0	V	15	0	184	0		0	0	140.275763500016	140.375774099957
23359.75	0.0999722997657955	367	satiated	stimuli/foods\fruit_salad.jpg	1	3	1	fruit_salad	1	R	12	0	55	0		0	0	140.425798499957	140.525770799723
23397.25	0.0999833000823855	368	satiated	stimuli/foods\taco.jpg	1	3	1	taco	1	P	11	0	274	0		0	0	140.575784999877	140.67576829996
23434.75	0.099982799962163	369	satiated	stimuli/foods\brussel_sprouts.jpg	1	3	1	brussel_sprouts	1	W	16	0	15	0		0	0	140.725781499874	140.825764299836
23472.25	0.0999843003228307	370	satiated	stimuli/non_foods\non-food_animate_horse.jpg	1	3	1	non-food_animate_horse	0	G	4	0	119	0		0	0	140.875781099778	140.9757654001
23509.75	0.0999952000565827	371	satiated	stimuli/non_foods\non-food_animate_german_shepherd.jpg	1	3	1	non-food_animate_german_shepherd	0	M	9	0	114	0		0	0	141.025783499703	141.125778699759
23547.25	0.0999761000275612	372	satiated	stimuli/non_foods\non-food_inanimate_tulip.jpg	1	3	1	non-food_inanimate_tulip	0	W	16	0	224	0		0	0	141.175800499972	141.2757766
23584.75	0.100006899796426	373	satiated	stimuli/foods\brownie.jpg	1	3	1	brownie	1	M	9	0	14	0		0	0	141.325761300046	141.425768199842
23622.25	0.0999923995696008	374	satiated	stimuli/non_foods\non-food_animate_dolphin.jpg	1	3	1	non-food_animate_dolphin	0	C	1	0	106	0		0	0	141.475756300148	141.575748699717
23659.75	0.0999905997887254	375	satiated	stimuli/foods\pickles.jpg	1	3	1	pickles	1	D	2	0	242	0		0	0	141.625769400038	141.725759999827
23697.25	0.0999716003425419	376	satiated	stimuli/foods\cinnamon_sroll.jpg	1	3	1	cinnamon_sroll	1	T	14	0	31	0		0	0	141.77575649973	141.875728100073
23734.75	0.0999861001037061	377	satiated	stimuli/non_foods\non-food_animate_butterfly.jpg	1	3	1	non-food_animate_butterfly	0	M	9	0	96	0		0	0	141.925758299883	142.025744399987
23772.25	0.0999940000474453	378	satiated	stimuli/non_foods\non-food_inanimate_chair.jpg	1	3	1	non-food_inanimate_chair	0	V	15	0	172	0		0	0	142.075758399907	142.175752399955
23809.75	0.0999778998084366	379	satiated	stimuli/foods\peas.jpg	1	3	1	peas	1	L	8	0	240	0		0	0	142.225777199958	142.325755099766
23847.25	0.0999903003685176	380	satiated	stimuli/non_foods\non-food_inanimate_speakers.jpg	1	3	1	non-food_inanimate_speakers	0	S	13	0	212	0		0	0	142.375759999733	142.475750300102
23884.75	0.0999854002147913	381	satiated	stimuli/foods\grilled_chicken_breast.jpg	1	3	1	grilled_chicken_breast	1	C	1	0	63	0		0	0	142.525762999896	142.625748400111
23922.25	0.0999886998906732	382	satiated	stimuli/non_foods\non-food_inanimate_table.jpg	1	3	1	non-food_inanimate_table	0	V	15	0	217	0		0	0	142.675755300093	142.775743999984
23959.75	0.100012499839067	383	satiated	stimuli/non_foods\non-food_inanimate_suitcase.jpg	1	3	1	non-food_inanimate_suitcase	0	L	8	0	215	0		0	0	142.825760900043	142.925773399882
23997.25	0.0999678000807762	384	satiated	stimuli/foods\pomegranate.jpg	1	3	1	pomegranate	1	H	5	0	244	0		0	0	142.975771499798	143.075739299878
24034.75	0.099985099863261	385	satiated	stimuli/non_foods\non-food_inanimate_fire_extinguisher.jpg	1	3	1	non-food_inanimate_fire_extinguisher	0	B	0	0	181	0		0	0	143.125752000138	143.225737100001
24072.25	0.0999855999834836	386	satiated	stimuli/non_foods\non-food_animate_baby_sitting.jpg	1	3	1	non-food_animate_baby_sitting	0	G	4	0	93	0		0	0	143.275752699934	143.375738299917
24109.75	0.0999847003258765	387	satiated	stimuli/non_foods\non-food_inanimate_orchid.jpg	1	3	1	non-food_inanimate_orchid	0	B	0	0	198	0		0	0	143.425749499816	143.525734200142
24147.25	0.0999908000230789	388	satiated	stimuli/non_foods\non-food_animate_student_female.jpg	1	3	1	non-food_animate_student_female	0	H	5	0	151	0		0	0	143.575740600005	143.675731400028
24184.75	0.0999825997278094	389	satiated	stimuli/foods\honey.jpg	1	3	1	honey	1	B	0	0	66	0		0	0	143.725746700075	143.825729299802
24222.25	0.0999853000976145	390	satiated	stimuli/foods\lemon_meringue_pie.jpg	1	3	1	lemon_meringue_pie	1	P	11	0	73	0		0	0	143.875743699726	143.975728999823
24259.75	0.0999614000320435	391	satiated	stimuli/foods\cauliflower.jpg	1	3	1	cauliflower	1	K	7	0	20	0		0	0	144.025769500062	144.125730900094
24297.25	0.0999818001873791	392	satiated	stimuli/foods\capsicum.jpg	1	3	1	capsicum	1	R	12	0	18	0		0	0	144.175743899774	144.275725699961
24334.75	0.0999898998998106	393	satiated	stimuli/foods\stew_with_potatoes_and_carrots.jpg	1	3	1	stew_with_potatoes_and_carrots	1	D	2	0	271	0		0	0	144.325721399859	144.425711299758
24372.25	0.0999851003289223	394	satiated	stimuli/non_foods\non-food_animate_mouse.jpg	1	3	1	non-food_animate_mouse	0	P	11	0	131	0		0	0	144.475729799829	144.575714900158
24409.75	0.0999694000929594	395	satiated	stimuli/foods\apricot.jpg	1	3	1	apricot	1	G	4	0	2	0		0	0	144.625744599849	144.725713999942
24447.25	0.0999660002999008	396	satiated	stimuli/non_foods\non-food_inanimate_hammer.jpg	1	3	1	non-food_inanimate_hammer	0	W	16	0	186	0		0	0	144.775734299794	144.875700300094
24484.75	0.0999894002452493	397	satiated	stimuli/non_foods\non-food_animate_snail.jpg	1	3	1	non-food_animate_snail	0	T	14	0	149	0		0	0	144.925720899832	145.025710300077
24522.25	0.0999843999743462	398	satiated	stimuli/foods\pineapple.jpg	1	3	1	pineapple	1	C	1	0	243	0		0	0	145.075723499991	145.175707899965
24559.75	0.0999828004278243	399	satiated	stimuli/foods\raw_ham.jpg	1	3	1	raw_ham	1	V	15	0	253	0		0	0	145.225731299724	145.325714100152
24597.25	0.09998709987849	400	satiated	stimuli/non_foods\non-food_inanimate_towel.jpg	1	3	1	non-food_inanimate_towel	0	Z	18	0	221	0		0	0	145.375717999879	145.475705099758
24634.75	0.0999846002086997	401	satiated	stimuli/non_foods\non-food_animate_young_girl.jpg	1	3	1	non-food_animate_young_girl	0	M	9	0	157	0		0	0	145.525719199795	145.625703800004
24672.25	0.0999757000245154	402	satiated	stimuli/foods\steak.jpg	1	3	1	steak	1	S	13	0	270	0		0	0	145.675725299865	145.77570099989
24709.75	0.0999774001538754	403	satiated	stimuli/foods\spinach.jpg	1	3	1	spinach	1	E	20	1	268	0		0	0	145.825723499991	145.925700900145
24747.25	0.0999966999515891	404	satiated	stimuli/foods\pork_and_rice.jpg	1	3	1	pork_and_rice	1	V	15	0	245	0		0	0	145.975712100044	146.075708799995
24784.75	0.0999904000200331	405	satiated	stimuli/non_foods\non-food_inanimate_ring.jpg	1	3	1	non-food_inanimate_ring	0	R	12	0	203	0		0	0	146.12570510013	146.22569550015
24822.25	0.0999940000474453	406	satiated	stimuli/non_foods\non-food_inanimate_sun_flower.jpg	1	3	1	non-food_inanimate_sun_flower	0	D	2	0	216	1	a	0.54183469992131	1	146.275711100083	146.37570510013
24859.75	0.0999635998159647	407	satiated	stimuli/foods\rice.jpg	1	3	1	rice	1	P	11	0	257	0		0	0	146.425729100127	146.525692699943
24897.25	0.0999865001067519	408	satiated	stimuli/foods\rice_cake.jpg	1	3	1	rice_cake	1	D	2	0	258	0		0	0	146.575703999959	146.675690500066
24934.75	0.0999849000945687	409	satiated	stimuli/foods\mussels.jpg	1	3	1	mussels	1	K	7	0	86	0		0	0	146.72570319986	146.825688099954
24972.25	0.100002099759877	410	satiated	stimuli/foods\figs.jpg	1	3	1	figs	1	H	5	0	48	0		0	0	146.875695100054	146.975697199814
25009.75	0.0999839003197849	411	satiated	stimuli/non_foods\non-food_inanimate_drum_set.jpg	1	3	1	non-food_inanimate_drum_set	0	W	16	0	179	0		0	0	147.025709599722	147.125693500042
25047.25	0.0999839003197849	412	satiated	stimuli/non_foods\non-food_inanimate_toilet.jpg	1	3	1	non-food_inanimate_toilet	0	J	6	0	220	0		0	0	147.175707699731	147.275691600051
25084.75	0.0999855999834836	413	satiated	stimuli/non_foods\non-food_animate_tortoise.jpg	1	3	1	non-food_animate_tortoise	0	F	3	0	153	0		0	0	147.325702599715	147.425688199699
25122.25	0.100001899991184	414	satiated	stimuli/foods\mandarin.jpg	1	3	1	mandarin	1	J	6	0	79	0		0	0	147.475701299962	147.575703199953
25159.75	0.09997049998492	415	satiated	stimuli/foods\lasagna.jpg	1	3	1	lasagna	1	X	17	0	71	0		0	0	147.625713899732	147.725684399717
25197.25	0.0999875003471971	416	satiated	stimuli/foods\avocado.jpg	1	3	1	avocado	1	G	4	0	5	0		0	0	147.775696899742	147.875684400089
25234.75	0.0999862998723984	417	satiated	stimuli/non_foods\non-food_inanimate_cupboard.jpg	1	3	1	non-food_inanimate_cupboard	0	K	7	0	177	0		0	0	147.925697099883	148.025683399756
25272.25	0.0999927003867924	418	satiated	stimuli/non_foods\non-food_animate_green_bug.jpg	1	3	1	non-food_animate_green_bug	0	G	4	0	118	0		0	0	148.075693899766	148.175686600152
25309.75	0.0999766997992992	419	satiated	stimuli/foods\beetroots.jpg	1	3	1	beetroots	1	N	10	0	10	0		0	0	148.225712799933	148.325689499732
26393	0.0999873001128435	420	satiated	stimuli/foods\raisins.jpg	1	4	1	raisins	1	C	1	0	252	0		0	0	152.558985000011	152.658972300123
26430.5	0.0999956000596285	421	satiated	stimuli/non_foods\non-food_animate_rhino.jpg	1	4	1	non-food_animate_rhino	0	W	16	0	141	0		0	0	152.708950500004	152.808946100064
26468	0.0999823003076017	422	satiated	stimuli/non_foods\non-food_animate_lizard.jpg	1	4	1	non-food_animate_lizard	0	J	6	0	126	0		0	0	152.858970299829	152.958952600136
26505.5	0.0999799002893269	423	satiated	stimuli/foods\cereal.jpg	1	4	1	cereal	1	K	7	0	22	0		0	0	153.008965199813	153.108945100103
26543	0.0999882998876274	424	satiated	stimuli/foods\grapes.jpg	1	4	1	grapes	1	H	5	0	60	0		0	0	153.158959799912	153.258948099799
26580.5	0.0999837000854313	425	satiated	stimuli/foods\garlic.jpg	1	4	1	garlic	1	N	10	0	56	0		0	0	153.308959799819	153.408943499904
26618	0.0999851999804378	426	satiated	stimuli/foods\coconut.jpg	1	4	1	coconut	1	L	8	0	33	0		0	0	153.458957899828	153.558943099808
26655.5	0.0999825000762939	427	satiated	stimuli/foods\fruit_pie.jpg	1	4	1	fruit_pie	1	N	10	0	54	0		0	0	153.608957999852	153.708940499928
26693	0.0999814998358488	428	satiated	stimuli/foods\cucumber.jpg	1	4	1	cucumber	1	K	7	0	41	0		0	0	153.758954999968	153.858936499804
26730.5	0.0999851999804378	429	satiated	stimuli/foods\lemon.jpg	1	4	1	lemon	1	G	4	0	72	0		0	0	153.908953099977	154.008938299958
26768	0.0999854998663068	430	satiated	stimuli/non_foods\non-food_inanimate_socks.jpg	1	4	1	non-food_inanimate_socks	0	V	15	0	211	0		0	0	154.058947999962	154.158933499828
26805.5	0.0999985001981258	431	satiated	stimuli/foods\bagel.jpg	1	4	1	bagel	1	T	14	0	6	0		0	0	154.20895029977	154.308948799968
26843	0.0999773000366986	432	satiated	stimuli/non_foods\non-food_animate_swan.jpg	1	4	1	non-food_animate_swan	0	K	7	0	152	0		0	0	154.35896389978	154.458941199817
26880.5	0.0999754001386464	433	satiated	stimuli/non_foods\non-food_animate_owl.jpg	1	4	1	non-food_animate_owl	0	S	13	0	132	0		0	0	154.508934899699	154.608910299838
26918	0.0999838002026081	434	satiated	stimuli/non_foods\non-food_inanimate_horn.jpg	1	4	1	non-food_inanimate_horn	0	N	10	0	190	0		0	0	154.658950499725	154.758934299927
26955.5	0.0999734001234174	435	satiated	stimuli/foods\museli_bars.jpg	1	4	1	museli_bars	1	B	0	0	84	0		0	0	154.808951599989	154.908925000113
26993	0.0999901001341641	436	satiated	stimuli/non_foods\non-food_animate_woman.jpg	1	4	1	non-food_animate_woman	0	X	17	0	154	0		0	0	154.958935800008	155.058925900143
27030.5	0.0999850002117455	437	satiated	stimuli/non_foods\non-food_animate_frog.jpg	1	4	1	non-food_animate_frog	0	M	9	0	113	0		0	0	155.108941599727	155.208926599938
27068	0.099987399764359	438	satiated	stimuli/non_foods\non-food_inanimate_guitar.jpg	1	4	1	non-food_inanimate_guitar	0	B	0	0	185	0		0	0	155.258935499936	155.358922899701
27105.5	0.0999952000565827	439	satiated	stimuli/non_foods\non-food_animate_yellow_bug.jpg	1	4	1	non-food_animate_yellow_bug	0	Z	18	0	155	0		0	0	155.408936599735	155.508931799792
27143	0.0999575997702777	440	satiated	stimuli/foods\brie.jpg	1	4	1	brie	1	X	17	0	12	0		0	0	155.558938900009	155.658896499779
27180.5	0.0999798001721501	441	satiated	stimuli/foods\fried_calamari.jpg	1	4	1	fried_calamari	1	N	10	0	50	0		0	0	155.70893239975	155.808912199922
27218	0.0999680999666452	442	satiated	stimuli/non_foods\non-food_animate_monkey.jpg	1	4	1	non-food_animate_monkey	0	L	8	0	130	0		0	0	155.858933600131	155.958901700098
27255.5	0.100009600166231	443	satiated	stimuli/foods\cooked_prawn.jpg	1	4	1	cooked_prawn	1	A	19	1	36	0		0	0	156.008925099857	156.108934700023
27293	0.0999843999743462	444	satiated	stimuli/foods\gnocchi.jpg	1	4	1	gnocchi	1	W	16	0	58	0		0	0	156.15894949995	156.258933899924
27330.5	0.0999844996258616	445	satiated	stimuli/non_foods\non-food_animate_penguin.jpg	1	4	1	non-food_animate_penguin	0	J	6	0	135	0		0	0	156.308924700134	156.408909199759
27368	0.0999809000641108	446	satiated	stimuli/foods\spaghetti_with_meat_sauce.jpg	1	4	1	spaghetti_with_meat_sauce	1	G	4	0	267	1	a	0.541820500046015	1	156.458922199905	156.558903099969
27405.5	0.0999794998206198	447	satiated	stimuli/foods\fruit_flan.jpg	1	4	1	fruit_flan	1	J	6	0	53	0		0	0	156.608918699902	156.708898199722
27443	0.100004900246859	448	satiated	stimuli/non_foods\non-food_inanimate_moss.jpg	1	4	1	non-food_inanimate_moss	0	D	2	0	194	0		0	0	156.758905099705	156.858909999952
27480.5	0.0999822001904249	449	satiated	stimuli/non_foods\non-food_animate_squirrel.jpg	1	4	1	non-food_animate_squirrel	0	V	15	0	150	0		0	0	156.908924799878	157.008907000069
27518	0.0999855999834836	450	satiated	stimuli/non_foods\non-food_inanimate_bamboo.jpg	1	4	1	non-food_inanimate_bamboo	0	X	17	0	159	0		0	0	157.058923699893	157.158909299877
27555.5	0.0999772003851831	451	satiated	stimuli/foods\toasted_bread_with_tomatoes.jpg	1	4	1	toasted_bread_with_tomatoes	1	W	16	0	275	0		0	0	157.208918099757	157.308895300142
27593	0.0999833000823855	452	satiated	stimuli/foods\spring_onions.jpg	1	4	1	spring_onions	1	V	15	0	269	0		0	0	157.358920199797	157.458903499879
27630.5	0.0999841000884771	453	satiated	stimuli/foods\omelette.jpg	1	4	1	omelette	1	J	6	0	228	0		0	0	157.508917099796	157.608901199885
27668	0.0999828996136785	454	satiated	stimuli/non_foods\non-food_animate_cow.jpg	1	4	1	non-food_animate_cow	0	H	5	0	103	0		0	0	157.658915100154	157.758897999767
27705.5	0.100015500094742	455	satiated	stimuli/foods\smoked_ham.jpg	1	4	1	smoked_ham	1	X	17	0	266	0		0	0	157.80891059991	157.908926100004
27743	0.0999352000653744	456	satiated	stimuli/non_foods\non-food_animate_cheetah.jpg	1	4	1	non-food_animate_cheetah	0	M	9	0	100	0		0	0	157.958959899843	158.058895099908
27780.5	0.0999843999743462	457	satiated	stimuli/non_foods\non-food_inanimate_button.jpg	1	4	1	non-food_inanimate_button	0	G	4	0	168	0		0	0	158.108907599933	158.208891999908
27818	0.0999834998510778	458	satiated	stimuli/foods\risotto_with_zucchini.jpg	1	4	1	risotto_with_zucchini	1	T	14	0	260	0		0	0	158.258909999859	158.35889349971
27855.5	0.0999843003228307	459	satiated	stimuli/foods\red_beans.jpg	1	4	1	red_beans	1	D	2	0	255	0		0	0	158.408904799726	158.508889100049
27893	0.0999956000596285	460	satiated	stimuli/non_foods\non-food_animate_eagle.jpg	1	4	1	non-food_animate_eagle	0	S	13	0	110	0		0	0	158.55890589999	158.65890150005
27930.5	0.0999809997156262	461	satiated	stimuli/non_foods\non-food_animate_camel.jpg	1	4	1	non-food_animate_camel	0	C	1	0	97	0		0	0	158.708907200024	158.808888199739
27968	0.0999857001006603	462	satiated	stimuli/non_foods\non-food_animate_alligator.jpg	1	4	1	non-food_animate_alligator	0	V	15	0	90	0		0	0	158.858903099783	158.958888799883
28005.5	0.0999931003898382	463	satiated	stimuli/foods\cupcake.jpg	1	4	1	cupcake	1	D	2	0	42	0		0	0	159.008890799712	159.108883900102
28043	0.0999851999804378	464	satiated	stimuli/foods\linguine_with_clams.jpg	1	4	1	linguine_with_clams	1	C	1	0	77	0		0	0	159.158888599835	159.258873799816
28080.5	0.100005500018597	465	satiated	stimuli/foods\corncob.jpg	1	4	1	corncob	1	K	7	0	37	0		0	0	159.308885799721	159.408891299739
28118	0.0999814998358488	466	satiated	stimuli/non_foods\non-food_inanimate_couch.jpg	1	4	1	non-food_inanimate_couch	0	N	10	0	176	0		0	0	159.458886899985	159.558868399821
28155.5	0.0999839999713004	467	satiated	stimuli/non_foods\non-food_inanimate_nailpolish.jpg	1	4	1	non-food_inanimate_nailpolish	0	Z	18	0	195	0		0	0	159.608888099901	159.708872099873
28193	0.0999682997353375	468	satiated	stimuli/non_foods\non-food_animate_ram.jpg	1	4	1	non-food_animate_ram	0	D	2	0	140	0		0	0	159.758900700137	159.858868999872
28230.5	0.0999912000261247	469	satiated	stimuli/foods\blackberry.jpg	1	4	1	blackberry	1	G	4	0	11	0		0	0	159.908871799707	160.008862999734
28268	0.0999847003258765	470	satiated	stimuli/non_foods\non-food_inanimate_scissors.jpg	1	4	1	non-food_inanimate_scissors	0	T	14	0	205	0		0	0	160.058879499789	160.158864200115
28305.5	0.0999828996136785	471	satiated	stimuli/foods\watermelon.jpg	1	4	1	watermelon	1	R	12	0	279	0		0	0	160.208878300153	160.308861199766
28343	0.0999871999956667	472	satiated	stimuli/non_foods\non-food_inanimate_buds.jpg	1	4	1	non-food_inanimate_buds	0	G	4	0	166	0		0	0	160.358872400131	160.458859600127
28380.5	0.0999815999530256	473	satiated	stimuli/foods\roasted_chicken.jpg	1	4	1	roasted_chicken	1	T	14	0	261	0		0	0	160.508869200014	160.608850799967
28418	0.100006500259042	474	satiated	stimuli/foods\potato_chips.jpg	1	4	1	potato_chips	1	N	10	0	247	0		0	0	160.65886469977	160.758871200029
28455.5	0.0999775999225676	475	satiated	stimuli/non_foods\non-food_animate_duck.jpg	1	4	1	non-food_animate_duck	0	K	7	0	109	0		0	0	160.808882200159	160.908859800082
28493	0.0999851999804378	476	satiated	stimuli/non_foods\non-food_inanimate_nettle.jpg	1	4	1	non-food_inanimate_nettle	0	R	12	0	197	0		0	0	160.958868199959	161.05885339994
28530.5	0.0999957998283207	477	satiated	stimuli/foods\salmon.jpg	1	4	1	salmon	1	X	17	0	264	0		0	0	161.108860500157	161.208856299985
28568	0.0999852996319532	478	satiated	stimuli/foods\cherry.jpg	1	4	1	cherry	1	M	9	0	23	0		0	0	161.258870900143	161.358856199775
28605.5	0.100004400126636	479	satiated	stimuli/foods\lentils.jpg	1	4	1	lentils	1	V	15	0	74	0		0	0	161.408884000033	161.50888840016
28643	0.0999511000700295	480	satiated	stimuli/non_foods\non-food_animate_clown.jpg	1	4	1	non-food_animate_clown	0	B	0	0	102	0		0	0	161.558902299963	161.658853400033
28680.5	0.0999844996258616	481	satiated	stimuli/non_foods\non-food_animate_bat.jpg	1	4	1	non-food_animate_bat	0	L	8	0	94	0		0	0	161.708867900074	161.808852399699
28718	0.0999881001189351	482	satiated	stimuli/foods\radish.jpg	1	4	1	radish	1	F	3	0	251	0		0	0	161.858864899725	161.958852999844
28755.5	0.0999806998297572	483	satiated	stimuli/non_foods\non-food_inanimate_teddy_bear.jpg	1	4	1	non-food_inanimate_teddy_bear	0	J	6	0	218	0		0	0	162.008863700088	162.108844399918
28793	0.0999757996760309	484	satiated	stimuli/foods\cracker.jpg	1	4	1	cracker	1	M	9	0	38	0		0	0	162.158853400033	162.258829199709
28830.5	0.0999815999530256	485	satiated	stimuli/non_foods\non-food_inanimate_fern.jpg	1	4	1	non-food_inanimate_fern	0	X	17	0	180	0		0	0	162.308864600025	162.408846199978
28868	0.0999837000854313	486	satiated	stimuli/non_foods\non-food_inanimate_canoe.jpg	1	4	1	non-food_inanimate_canoe	0	K	7	0	170	0		0	0	162.458859699778	162.558843399864
28905.5	0.0999556998722255	487	satiated	stimuli/foods\chocolate_pudding.jpg	1	4	1	chocolate_pudding	1	S	13	0	29	0		0	0	162.608886700124	162.708842399996
28943	0.0999867003411055	488	satiated	stimuli/non_foods\non-food_animate_porcupine.jpg	1	4	1	non-food_animate_porcupine	0	X	17	0	138	0		0	0	162.758854299784	162.858841000125
28980.5	0.0999918999150395	489	satiated	stimuli/non_foods\non-food_inanimate_bucket.jpg	1	4	1	non-food_inanimate_bucket	0	F	3	0	165	0		0	0	162.908852200024	163.008844099939
29018	0.0999851999804378	490	satiated	stimuli/foods\celery.jpg	1	4	1	celery	1	D	2	0	21	0		0	0	163.058850999922	163.158836199902
29055.5	0.0999695998616517	491	satiated	stimuli/non_foods\non-food_inanimate_pine_cone.jpg	1	4	1	non-food_inanimate_pine_cone	0	L	8	0	200	0		0	0	163.208868199959	163.308837799821
29093	0.0999968000687659	492	satiated	stimuli/non_foods\non-food_animate_kangaroo.jpg	1	4	1	non-food_animate_kangaroo	0	P	11	0	122	0		0	0	163.358838699758	163.458835499827
29130.5	0.0999849997460842	493	satiated	stimuli/non_foods\non-food_inanimate_lighter.jpg	1	4	1	non-food_inanimate_lighter	0	N	10	0	193	0		0	0	163.508847000077	163.608831999823
29168	0.0999849000945687	494	satiated	stimuli/foods\almonds.jpg	1	4	1	almonds	1	M	9	0	0	0		0	0	163.658844899852	163.758829799946
29205.5	0.0999694000929594	495	satiated	stimuli/non_foods\non-food_animate_llama.jpg	1	4	1	non-food_animate_llama	0	D	2	0	127	0		0	0	163.808863199782	163.908832599875
29243	0.099974500015378	496	satiated	stimuli/foods\clams.jpg	1	4	1	clams	1	C	1	0	32	0		0	0	163.958843099885	164.0588175999
29280.5	0.099982799962163	497	satiated	stimuli/non_foods\non-food_inanimate_stoplight.jpg	1	4	1	non-food_inanimate_stoplight	0	P	11	0	214	0		0	0	164.108833000064	164.208815800026
29318	0.0999877001158893	498	satiated	stimuli/non_foods\non-food_animate_polar_bear.jpg	1	4	1	non-food_animate_polar_bear	0	T	14	0	137	0		0	0	164.258827699814	164.35881539993
29355.5	0.0999686000868678	499	satiated	stimuli/foods\oyster.jpg	1	4	1	oyster	1	R	12	0	233	0		0	0	164.408846199978	164.508814800065
29393	0.0999814001843333	500	satiated	stimuli/foods\egg.jpg	1	4	1	egg	1	H	5	0	45	0		0	0	164.558839099947	164.658820500132
29430.5	0.0999718001112342	501	satiated	stimuli/foods\cooked_ham.jpg	1	4	1	cooked_ham	1	S	13	0	35	0		0	0	164.708828799892	164.808800600003
29468	0.0999873001128435	502	satiated	stimuli/foods\mortadella.jpg	1	4	1	mortadella	1	M	9	0	83	0		0	0	164.858833999839	164.958821299952
29505.5	0.0999859999865294	503	satiated	stimuli/non_foods\non-food_inanimate_stapler.jpg	1	4	1	non-food_inanimate_stapler	0	V	15	0	213	0		0	0	165.008822099771	165.108808099758
29543	0.0999842002056539	504	satiated	stimuli/foods\apple.jpg	1	4	1	apple	1	B	0	0	1	0		0	0	165.158819099888	165.258803300094
29580.5	0.100004200357944	505	satiated	stimuli/non_foods\non-food_animate_elephant.jpg	1	4	1	non-food_animate_elephant	0	E	20	1	111	0		0	0	165.308809099719	165.408813300077
29618	0.099987399764359	506	satiated	stimuli/non_foods\non-food_inanimate_bed.jpg	1	4	1	non-food_inanimate_bed	0	P	11	0	160	0		0	0	165.45882369997	165.558811099734
29655.5	0.099982799962163	507	satiated	stimuli/non_foods\non-food_inanimate_skirt.jpg	1	4	1	non-food_inanimate_skirt	0	M	9	0	209	0		0	0	165.608822599985	165.708805399947
29693	0.0999849997460842	508	satiated	stimuli/non_foods\non-food_inanimate_leaf.jpg	1	4	1	non-food_inanimate_leaf	0	L	8	0	192	1	a	0.443199899978936	1	165.758818400092	165.858803399839
29730.5	0.0999825000762939	509	satiated	stimuli/non_foods\non-food_inanimate_chandelier.jpg	1	4	1	non-food_inanimate_chandelier	0	H	5	0	173	0		0	0	165.908817799762	166.008800299838
29768	0.100003599654883	510	satiated	stimuli/foods\mango.jpg	1	4	1	mango	1	C	1	0	80	0		0	0	166.058815400116	166.158818999771
29805.5	0.0999618000350893	511	satiated	stimuli/foods\banana.jpg	1	4	1	banana	1	S	13	0	9	0		0	0	166.208827400114	166.308789200149
29843	0.0999867999926209	512	satiated	stimuli/non_foods\non-food_animate_slug.jpg	1	4	1	non-food_animate_slug	0	C	1	0	148	0		0	0	166.358802899718	166.458789699711
29880.5	0.0999794001691043	513	satiated	stimuli/foods\frankfurter_and_provolone_salad.jpg	1	4	1	frankfurter_and_provolone_salad	1	B	0	0	49	0		0	0	166.508797199931	166.6087766001
29918	0.100012199953198	514	satiated	stimuli/foods\lime.jpg	1	4	1	lime	1	S	13	0	76	0		0	0	166.658785999753	166.758798199706
29955.5	0.099972799886018	515	satiated	stimuli/foods\carrot.jpg	1	4	1	carrot	1	T	14	0	19	0		0	0	166.808821700048	166.908794499934
29993	0.0999817997217178	516	satiated	stimuli/foods\mushroom.jpg	1	4	1	mushroom	1	K	7	0	85	0		0	0	166.958809500095	167.058791299816
30030.5	0.0999829997308552	517	satiated	stimuli/foods\potatoes.jpg	1	4	1	potatoes	1	J	6	0	248	0		0	0	167.108805200085	167.208788199816
30068	0.0999843999743462	518	satiated	stimuli/foods\peach.jpg	1	4	1	peach	1	X	17	0	238	0		0	0	167.258803999983	167.358788399957
30105.5	0.100000699982047	519	satiated	stimuli/non_foods\non-food_animate_chicken.jpg	1	4	1	non-food_animate_chicken	0	C	1	0	101	0		0	0	167.408784300089	167.508785000071
30143	0.0999843999743462	520	satiated	stimuli/foods\nectarine.jpg	1	4	1	nectarine	1	L	8	0	87	0		0	0	167.558796799742	167.658781199716
30180.5	0.0999877001158893	521	satiated	stimuli/foods\strawberry.jpg	1	4	1	strawberry	1	H	5	0	272	0		0	0	167.708795699757	167.808783399872
30218	0.0999863999895751	522	satiated	stimuli/foods\ginger_root.jpg	1	4	1	ginger_root	1	K	7	0	57	0		0	0	167.858796400018	167.958782800008
30255.5	0.0999857001006603	523	satiated	stimuli/non_foods\non-food_animate_grasshopper.jpg	1	4	1	non-food_animate_grasshopper	0	T	14	0	117	0		0	0	168.008793700021	168.108779400121
30293	0.0999855003319681	524	satiated	stimuli/foods\hazelnuts.jpg	1	4	1	hazelnuts	1	B	0	0	65	0		0	0	168.158790399786	168.258775900118
30330.5	0.0999859999865294	525	satiated	stimuli/foods\kiwi.jpg	1	4	1	kiwi	1	M	9	0	69	0		0	0	168.308786899783	168.408772899769
30368	0.100000700447708	526	satiated	stimuli/foods\cinnamon.jpg	1	4	1	cinnamon	1	K	7	0	30	0		0	0	168.458788899705	168.558789600153
30405.5	0.0999743998982012	527	satiated	stimuli/non_foods\non-food_inanimate_broom.jpg	1	4	1	non-food_inanimate_broom	0	X	17	0	164	0		0	0	168.608826600015	168.708800999913
30443	0.0999885001219809	528	satiated	stimuli/non_foods\non-food_inanimate_padlock.jpg	1	4	1	non-food_inanimate_padlock	0	M	9	0	199	0		0	0	168.758782399818	168.85877089994
30480.5	0.0999506996013224	529	satiated	stimuli/foods\waffle.jpg	1	4	1	waffle	1	L	8	0	278	0		0	0	168.908788700122	169.008739399724
30518	0.0999825000762939	530	satiated	stimuli/non_foods\non-food_inanimate_bowling_ball.jpg	1	4	1	non-food_inanimate_bowling_ball	0	Z	18	0	162	0		0	0	169.058781499974	169.158764000051
30555.5	0.0999871003441513	531	satiated	stimuli/non_foods\non-food_animate_giraffe.jpg	1	4	1	non-food_animate_giraffe	0	N	10	0	115	0		0	0	169.208777399734	169.308764500078
30593	0.099982799962163	532	satiated	stimuli/non_foods\non-food_animate_iguana.jpg	1	4	1	non-food_animate_iguana	0	L	8	0	121	0		0	0	169.358777299989	169.458760099951
30630.5	0.0999871999956667	533	satiated	stimuli/non_foods\non-food_inanimate_shell.jpg	1	4	1	non-food_inanimate_shell	0	J	6	0	206	0		0	0	169.508772499859	169.608759699855
30668	0.0999846002086997	534	satiated	stimuli/non_foods\non-food_animate_parrot.jpg	1	4	1	non-food_animate_parrot	0	M	9	0	133	0		0	0	169.6587768998	169.758761500008
30705.5	0.099987399764359	535	satiated	stimuli/foods\raw_sausage.jpg	1	4	1	raw_sausage	1	C	1	0	254	0		0	0	169.808771200012	169.908758599777
30743	0.0999886998906732	536	satiated	stimuli/foods\prawn.jpg	1	4	1	prawn	1	H	5	0	249	0		0	0	169.958768600132	170.058757300023
30780.5	0.0999818998388946	537	satiated	stimuli/foods\wafer.jpg	1	4	1	wafer	1	T	14	0	277	0		0	0	170.108769400045	170.208751299884
30818	0.100020200014114	538	satiated	stimuli/foods\oregano.jpg	1	4	1	oregano	1	L	8	0	231	0		0	0	170.258766999934	170.358787199948
30855.5	0.099940899759531	539	satiated	stimuli/non_foods\non-food_inanimate_desk.jpg	1	4	1	non-food_inanimate_desk	0	O	22	1	178	0		0	0	170.408810500056	170.508751399815
30893	0.0999691002070904	540	satiated	stimuli/non_foods\non-food_animate_dachshund.jpg	1	4	1	non-food_animate_dachshund	0	N	10	0	104	0		0	0	170.558761899825	170.658731000032
30930.5	0.0999831999652088	541	satiated	stimuli/foods\chestnut.jpg	1	4	1	chestnut	1	P	11	0	24	0		0	0	170.708764899988	170.808748099953
30968	0.0999703998677433	542	satiated	stimuli/non_foods\non-food_inanimate_cactus_pot_plant.jpg	1	4	1	non-food_inanimate_cactus_pot_plant	0	R	12	0	169	0		0	0	170.858748000115	170.958718399983
31005.5	0.0999871999956667	543	satiated	stimuli/foods\fried_zucchini.jpg	1	4	1	fried_zucchini	1	G	4	0	51	0		0	0	171.008757299744	171.108744499739
31043	0.0999867999926209	544	satiated	stimuli/non_foods\non-food_animate_pigeon.jpg	1	4	1	non-food_animate_pigeon	0	B	0	0	136	0		0	0	171.158757499885	171.258744299877
31080.5	0.0999772003851831	545	satiated	stimuli/foods\swordfish.jpg	1	4	1	swordfish	1	J	6	0	273	0		0	0	171.308753099758	171.408730300143
31118	0.0999883995391428	546	satiated	stimuli/foods\coffee_beans.jpg	1	4	1	coffee_beans	1	N	10	0	34	0		0	0	171.45874160016	171.558729999699
31155.5	0.0999855999834836	547	satiated	stimuli/foods\risotto_with_peas_and_asparagus_tips.jpg	1	4	1	risotto_with_peas_and_asparagus_tips	1	C	1	0	259	0		0	0	171.608741899952	171.708727499936
31193	0.0999839999713004	548	satiated	stimuli/foods\cannoli.jpg	1	4	1	cannoli	1	P	11	0	17	0		0	0	171.75874170009	171.858725700062
31230.5	0.0999907003715634	549	satiated	stimuli/foods\broccoli.jpg	1	4	1	broccoli	1	L	8	0	13	0		0	0	171.908736299723	172.008727000095
31268	0.0999884996563196	550	satiated	stimuli/non_foods\non-food_animate_Causasian_man.jpg	1	4	1	non-food_animate_Causasian_man	0	C	1	0	89	0		0	0	172.058736700099	172.158725199755
31305.5	0.0999658000655472	551	satiated	stimuli/non_foods\non-food_inanimate_construction_helment.jpg	1	4	1	non-food_inanimate_construction_helment	0	J	6	0	175	0		0	0	172.208755299915	172.30872109998
31343	0.0999834998510778	552	satiated	stimuli/foods\meatballs.jpg	1	4	1	meatballs	1	V	15	0	81	0		0	0	172.358734900132	172.458718399983
31380.5	0.0999863999895751	553	satiated	stimuli/non_foods\non-food_animate_skunk.jpg	1	4	1	non-food_animate_skunk	0	S	13	0	147	0		0	0	172.508732799906	172.608719199896
31418	0.0999874998815358	554	satiated	stimuli/foods\pepperoni_pizza.jpg	1	4	1	pepperoni_pizza	1	K	7	0	241	0		0	0	172.658729000017	172.758716499899
31455.5	0.0999837000854313	555	satiated	stimuli/foods\potato_and_green_bean_salad.jpg	1	4	1	potato_and_green_bean_salad	1	J	6	0	246	0		0	0	172.808728599921	172.908712300006
31493	0.0999796995893121	556	satiated	stimuli/non_foods\non-food_animate_deer.jpg	1	4	1	non-food_animate_deer	0	C	1	0	105	0		0	0	172.958724500146	173.058704199735
31530.5	0.0999745996668935	557	satiated	stimuli/non_foods\non-food_animate_gorilla.jpg	1	4	1	non-food_animate_gorilla	0	D	2	0	116	0		0	0	173.10873680003	173.208711399697
31568	0.100010199937969	558	satiated	stimuli/foods\donut.jpg	1	4	1	donut	1	W	16	0	44	0		0	0	173.258704800159	173.358715000097
31605.5	0.0999837997369468	559	satiated	stimuli/non_foods\non-food_animate_lion.jpg	1	4	1	non-food_animate_lion	0	L	8	0	125	0		0	0	173.408733400051	173.508717199787
34676.5	0.0999484998174012	560	satiated	stimuli/foods\broccoli.jpg	1	5	1	broccoli	1	M	9	0	13	0		0	0	185.691929100081	185.791877599899
34714	0.100009500049055	561	satiated	stimuli/non_foods\non-food_animate_skunk.jpg	1	5	1	non-food_animate_skunk	0	H	5	0	147	0		0	0	185.841897199862	185.941906699911
34751.5	0.0999791999347508	562	satiated	stimuli/foods\waffle.jpg	1	5	1	waffle	1	P	11	0	278	0		0	0	185.991934400052	186.091913599987
34789	0.0999842998571694	563	satiated	stimuli/foods\coconut.jpg	1	5	1	coconut	1	T	14	0	33	0		0	0	186.141916099936	186.241900399793
34826.5	0.0999843003228307	564	satiated	stimuli/foods\honey.jpg	1	5	1	honey	1	P	11	0	66	0		0	0	186.291914099827	186.39189840015
34864	0.0999862998723984	565	satiated	stimuli/non_foods\non-food_animate_bat.jpg	1	5	1	non-food_animate_bat	0	G	4	0	94	0		0	0	186.441911799833	186.541898099706
34901.5	0.0999849997460842	566	satiated	stimuli/foods\cauliflower.jpg	1	5	1	cauliflower	1	V	15	0	20	0		0	0	186.591910900082	186.691895899829
34939	0.0999568998813629	567	satiated	stimuli/non_foods\non-food_animate_gorilla.jpg	1	5	1	non-food_animate_gorilla	0	N	10	0	116	0		0	0	186.741909800097	186.841866699979
34976.5	0.0999888000078499	568	satiated	stimuli/non_foods\non-food_animate_caterpillar.jpg	1	5	1	non-food_animate_caterpillar	0	H	5	0	99	0		0	0	186.891896700021	186.991885500029
35014	0.0999921998009086	569	satiated	stimuli/foods\cooked_prawn.jpg	1	5	1	cooked_prawn	1	G	4	0	36	0		0	0	187.041902400088	187.141894599888
35051.5	0.100010599941015	570	satiated	stimuli/non_foods\non-food_inanimate_scissors.jpg	1	5	1	non-food_inanimate_scissors	0	X	17	0	205	0		0	0	187.191874600016	187.291885199957
35089	0.0999858998693526	571	satiated	stimuli/non_foods\non-food_animate_dolphin.jpg	1	5	1	non-food_animate_dolphin	0	R	12	0	106	0		0	0	187.341902500018	187.441888399888
35126.5	0.0999862002208829	572	satiated	stimuli/non_foods\non-food_animate_peacock.jpg	1	5	1	non-food_animate_peacock	0	T	14	0	134	0		0	0	187.491900799796	187.591887000017
35164	0.0999848996289074	573	satiated	stimuli/non_foods\non-food_animate_squirrel.jpg	1	5	1	non-food_animate_squirrel	0	F	3	0	150	0		0	0	187.64189840015	187.741883299779
35201.5	0.0999855999834836	574	satiated	stimuli/non_foods\non-food_animate_rhino.jpg	1	5	1	non-food_animate_rhino	0	S	13	0	141	0		0	0	187.791899099946	187.89188469993
35239	0.0999689004383981	575	satiated	stimuli/non_foods\non-food_inanimate_buds.jpg	1	5	1	non-food_inanimate_buds	0	J	6	0	166	0		0	0	187.941910099704	188.041879000142
35276.5	0.0999703002162278	576	satiated	stimuli/non_foods\non-food_inanimate_lighter.jpg	1	5	1	non-food_inanimate_lighter	0	M	9	0	193	0		0	0	188.091891699936	188.191862000152
35314	0.10000290023163	577	satiated	stimuli/foods\peach.jpg	1	5	1	peach	1	R	12	0	238	0		0	0	188.241875699721	188.341878599953
35351.5	0.0999841000884771	578	satiated	stimuli/foods\asparagus.jpg	1	5	1	asparagus	1	W	16	0	4	0		0	0	188.391889899969	188.491874000058
35389	0.0999803002923727	579	satiated	stimuli/foods\brownie.jpg	1	5	1	brownie	1	N	10	0	14	0		0	0	188.541890199762	188.641870500054
35426.5	0.0999865997582674	580	satiated	stimuli/foods\taco.jpg	1	5	1	taco	1	W	16	0	274	0		0	0	188.691888100002	188.79187469976
35464	0.10002060001716	581	satiated	stimuli/non_foods\non-food_inanimate_couch.jpg	1	5	1	non-food_inanimate_couch	0	K	7	0	176	0		0	0	188.841886399779	188.941906999797
35501.5	0.0999857997521758	582	satiated	stimuli/non_foods\non-food_animate_baby_sitting.jpg	1	5	1	non-food_animate_baby_sitting	0	W	16	0	93	0		0	0	188.991883200128	189.09186899988
35539	0.099970200099051	583	satiated	stimuli/non_foods\non-food_animate_tortoise.jpg	1	5	1	non-food_animate_tortoise	0	H	5	0	153	0		0	0	189.141880800016	189.241851000115
35576.5	0.0999869001097977	584	satiated	stimuli/foods\grapes.jpg	1	5	1	grapes	1	X	17	0	60	0		0	0	189.291877499782	189.391864399891
35614	0.0999978999607265	585	satiated	stimuli/foods\oregano.jpg	1	5	1	oregano	1	K	7	0	231	0		0	0	189.441879299935	189.541877199896
35651.5	0.0999720003455877	586	satiated	stimuli/foods\figs.jpg	1	5	1	figs	1	J	6	0	48	0		0	0	189.591889199801	189.691861200146
35689	0.0999800995923579	587	satiated	stimuli/non_foods\non-food_animate_runner.jpg	1	5	1	non-food_animate_runner	0	W	16	0	142	0		0	0	189.741882800125	189.841862899717
35726.5	0.0999849000945687	588	satiated	stimuli/foods\chocolate_pudding.jpg	1	5	1	chocolate_pudding	1	S	13	0	29	0		0	0	189.891871099826	189.991855999921
35764	0.0999867999926209	589	satiated	stimuli/foods\museli_bars.jpg	1	5	1	museli_bars	1	Z	18	0	84	0		0	0	190.041869499721	190.141856299713
35801.5	0.099978500045836	590	satiated	stimuli/non_foods\non-food_animate_Asian_man.jpg	1	5	1	non-food_animate_Asian_man	0	P	11	0	88	0		0	0	190.191878699698	190.291857199743
35839	0.099985099863261	591	satiated	stimuli/non_foods\non-food_animate_sea_turtle.jpg	1	5	1	non-food_animate_sea_turtle	0	M	9	0	144	0		0	0	190.341867499985	190.441852599848
35876.5	0.100015600211918	592	satiated	stimuli/foods\nectarine.jpg	1	5	1	nectarine	1	S	13	0	87	0		0	0	190.491837299895	190.591852900106
35914	0.0999877997674048	593	satiated	stimuli/foods\lollies.jpg	1	5	1	lollies	1	L	8	0	78	0		0	0	190.641862499993	190.741850299761
35951.5	0.0999860996380448	594	satiated	stimuli/non_foods\non-food_animate_sea_lion.jpg	1	5	1	non-food_animate_sea_lion	0	F	3	0	143	0		0	0	190.791861900128	190.891847999766
35989	0.0999832996167243	595	satiated	stimuli/non_foods\non-food_inanimate_hammer.jpg	1	5	1	non-food_inanimate_hammer	0	N	10	0	186	0		0	0	190.941862000152	191.041845299769
36026.5	0.0999898998998106	596	satiated	stimuli/foods\fruit_flan.jpg	1	5	1	fruit_flan	1	Z	18	0	53	0		0	0	191.091856400017	191.191846299917
36064	0.0999968000687659	597	satiated	stimuli/non_foods\non-food_animate_seahorse.jpg	1	5	1	non-food_animate_seahorse	0	C	1	0	145	0		0	0	191.241862199735	191.341858999804
36101.5	0.099940299987793	598	satiated	stimuli/foods\chocolate_pralines.jpg	1	5	1	chocolate_pralines	1	G	4	0	28	0		0	0	191.391900300048	191.491840600036
36139	0.0999540998600423	599	satiated	stimuli/non_foods\non-food_animate_ladybug.jpg	1	5	1	non-food_animate_ladybug	0	V	15	0	124	0		0	0	191.541855900083	191.641809999943
36176.5	0.0999993002042174	600	satiated	stimuli/non_foods\non-food_inanimate_shell.jpg	1	5	1	non-food_inanimate_shell	0	P	11	0	206	0		0	0	191.691839399748	191.791838699952
36214	0.0999715002253652	601	satiated	stimuli/non_foods\non-food_inanimate_waterlily.jpg	1	5	1	non-food_inanimate_waterlily	0	R	12	0	226	0		0	0	191.841853899881	191.941825400107
36251.5	0.0999865001067519	602	satiated	stimuli/non_foods\non-food_animate_penguin.jpg	1	5	1	non-food_animate_penguin	0	K	7	0	135	0		0	0	191.991840899922	192.091827400029
36289	0.099980500061065	603	satiated	stimuli/non_foods\non-food_inanimate_stapler.jpg	1	5	1	non-food_inanimate_stapler	0	P	11	0	213	0		0	0	192.141851999797	192.241832499858
36326.5	0.0999854998663068	604	satiated	stimuli/foods\meatballs.jpg	1	5	1	meatballs	1	V	15	0	81	0		0	0	192.291835099924	192.391820599791
36364	0.0999815999530256	605	satiated	stimuli/non_foods\non-food_animate_duck.jpg	1	5	1	non-food_animate_duck	0	O	22	1	109	0		0	0	192.441837199964	192.541818799917
36401.5	0.0999837000854313	606	satiated	stimuli/non_foods\non-food_inanimate_padlock.jpg	1	5	1	non-food_inanimate_padlock	0	X	17	0	199	0		0	0	192.591833899729	192.691817599814
36439	0.0999849997460842	607	satiated	stimuli/foods\pea_pod.jpg	1	5	1	pea_pod	1	T	14	0	237	0		0	0	192.741833799984	192.84181879973
36476.5	0.0999956000596285	608	satiated	stimuli/non_foods\non-food_inanimate_suitcase.jpg	1	5	1	non-food_inanimate_suitcase	0	P	11	0	215	0		0	0	192.891824299935	192.991819899995
36514	0.100007599685341	609	satiated	stimuli/foods\cherry.jpg	1	5	1	cherry	1	H	5	0	23	1	a	0.691819100175053	1	193.041834800038	193.141842399724
36551.5	0.0999427000060678	610	satiated	stimuli/foods\cupcake.jpg	1	5	1	cupcake	1	M	9	0	42	0		0	0	193.191878600046	193.291821300052
36589	0.0999809000641108	611	satiated	stimuli/non_foods\non-food_animate_slug.jpg	1	5	1	non-food_animate_slug	0	H	5	0	148	0		0	0	193.341834799852	193.441815699916
36626.5	0.0999834998510778	612	satiated	stimuli/non_foods\non-food_animate_monkey.jpg	1	5	1	non-food_animate_monkey	0	T	14	0	130	0		0	0	193.491831500083	193.591814999934
36664	0.0999859003350139	613	satiated	stimuli/foods\pork_and_rice.jpg	1	5	1	pork_and_rice	1	P	11	0	245	0		0	0	193.641831699759	193.741817600094
36701.5	0.0999842998571694	614	satiated	stimuli/foods\pancakes.jpg	1	5	1	pancakes	1	Z	18	0	234	0		0	0	193.791826399975	193.891810699832
36739	0.0999858002178371	615	satiated	stimuli/foods\lettuce.jpg	1	5	1	lettuce	1	K	7	0	75	0		0	0	193.941824699752	194.04181049997
36776.5	0.0999821000732481	616	satiated	stimuli/non_foods\non-food_inanimate_skirt.jpg	1	5	1	non-food_inanimate_skirt	0	T	14	0	209	0		0	0	194.091824799776	194.191806899849
36814	0.0999658997170627	617	satiated	stimuli/foods\pasta_carbonara.jpg	1	5	1	pasta_carbonara	1	C	1	0	236	0		0	0	194.241838300135	194.341804199852
36851.5	0.0999917997978628	618	satiated	stimuli/non_foods\non-food_animate_bee.jpg	1	5	1	non-food_animate_bee	0	X	17	0	95	0		0	0	194.391807599925	194.491799399722
36889	0.0999931995756924	619	satiated	stimuli/non_foods\non-food_animate_deer.jpg	1	5	1	non-food_animate_deer	0	K	7	0	105	0		0	0	194.541803900152	194.641797099728
36926.5	0.0999599997885525	620	satiated	stimuli/non_foods\non-food_animate_raccoon.jpg	1	5	1	non-food_animate_raccoon	0	C	1	0	139	0		0	0	194.691817299929	194.791777299717
36964	0.100023199804127	621	satiated	stimuli/foods\prawn.jpg	1	5	1	prawn	1	K	7	0	249	0		0	0	194.841820199974	194.941843399778
37001.5	0.0999604999087751	622	satiated	stimuli/non_foods\non-food_inanimate_chair.jpg	1	5	1	non-food_inanimate_chair	0	J	6	0	172	0		0	0	194.9918358	195.091796299908
37039	0.0999881997704506	623	satiated	stimuli/foods\lentils.jpg	1	5	1	lentils	1	D	2	0	74	0		0	0	195.14180959994	195.24179779971
37076.5	0.0999855999834836	624	satiated	stimuli/non_foods\non-food_animate_millipede.jpg	1	5	1	non-food_animate_millipede	0	L	8	0	129	0		0	0	195.291808499955	195.391794099938
37114	0.0999869001097977	625	satiated	stimuli/foods\watermelon.jpg	1	5	1	watermelon	1	W	16	0	279	0		0	0	195.441808599979	195.541795500088
37151.5	0.099987699650228	626	satiated	stimuli/non_foods\non-food_animate_chicken.jpg	1	5	1	non-food_animate_chicken	0	G	4	0	101	0		0	0	195.591807200108	195.691794899758
37189	0.0999857001006603	627	satiated	stimuli/non_foods\non-food_inanimate_nest.jpg	1	5	1	non-food_inanimate_nest	0	X	17	0	196	0		0	0	195.741803599987	195.841789300088
37226.5	0.0999878002330661	628	satiated	stimuli/non_foods\non-food_inanimate_alarm_clock.jpg	1	5	1	non-food_inanimate_alarm_clock	0	L	8	0	158	0		0	0	195.891802699771	195.991790500004
37264	0.0999730001203716	629	satiated	stimuli/non_foods\non-food_inanimate_sun_flower.jpg	1	5	1	non-food_inanimate_sun_flower	0	H	5	0	216	0		0	0	196.041814900003	196.141787900124
37301.25	0.100007699802518	630	satiated	stimuli/foods\bagel.jpg	1	5	1	bagel	1	G	4	0	6	0		0	0	196.191776799969	196.291784499772
37339	0.0999783002771437	631	satiated	stimuli/foods\corncob.jpg	1	5	1	corncob	1	X	17	0	37	0		0	0	196.341800899711	196.441779199988
37376.5	0.0999786001630127	632	satiated	stimuli/foods\carrot.jpg	1	5	1	carrot	1	N	10	0	19	0		0	0	196.491796799935	196.591775400098
37414	0.0999727002345026	633	satiated	stimuli/non_foods\non-food_inanimate_toilet.jpg	1	5	1	non-food_inanimate_toilet	0	G	4	0	220	0		0	0	196.641802699771	196.741775400005
37451.5	0.099969900213182	634	satiated	stimuli/foods\papaya.jpg	1	5	1	papaya	1	V	15	0	235	0		0	0	196.791798499878	196.891768400092
37488.75	0.0999829997308552	635	satiated	stimuli/non_foods\non-food_inanimate_protractor.jpg	1	5	1	non-food_inanimate_protractor	0	F	3	0	201	0		0	0	196.941780100111	197.041763099842
37526.25	0.10000649979338	636	satiated	stimuli/foods\spring_onions.jpg	1	5	1	spring_onions	1	L	8	0	269	0		0	0	197.091772899963	197.191779399756
37564	0.099982799962163	637	satiated	stimuli/non_foods\non-food_inanimate_towel.jpg	1	5	1	non-food_inanimate_towel	0	J	6	0	221	0		0	0	197.241788399871	197.341771199834
37601.5	0.0999886998906732	638	satiated	stimuli/foods\fennel.jpg	1	5	1	fennel	1	P	11	0	47	0		0	0	197.391782599967	197.491771299858
