onset	duration	eventnumber	hunger_condition	stimfilename	blockno	trialno	is_faststream	stim	food_idx	letter	letter_idx	istarget	image_number	response	keypressed	rt	correct	time_stimon	time_stimoff
15735	0.0999348000041209	0	satiated	stimuli/non_foods\non-food_animate_sea_turtle.jpg	1	1	1	non-food_animate_sea_turtle	0	R	12	0	144	0		0	0	76.0356457000016	76.1355805000057
15772.5	0.100039099983405	1	satiated	stimuli/foods\dates.jpg	1	1	1	dates	1	C	1	0	43	0		0	0	76.1855931000318	76.2856322000152
15810	0.0999859999865294	2	satiated	stimuli/foods\raisins.jpg	1	1	1	raisins	1	J	6	0	252	0		0	0	76.3355899000308	76.4355759000173
15847.5	0.0999861999880522	3	satiated	stimuli/foods\strawberry.jpg	1	1	1	strawberry	1	L	8	0	272	0		0	0	76.4855863000266	76.5855725000147
15885	0.100010800000746	4	satiated	stimuli/non_foods\non-food_inanimate_bamboo.jpg	1	1	1	non-food_inanimate_bamboo	0	F	3	0	159	0		0	0	76.6355905000237	76.7356013000244
15922.5	0.0999796999967657	5	satiated	stimuli/non_foods\non-food_inanimate_stoplight.jpg	1	1	1	non-food_inanimate_stoplight	0	N	10	0	214	0		0	0	76.7855953000253	76.8855750000221
15960	0.0999848000355996	6	satiated	stimuli/foods\cooked_ham.jpg	1	1	1	cooked_ham	1	S	13	0	35	0		0	0	76.9355824000086	77.0355672000442
15997.5	0.100006199965719	7	satiated	stimuli/foods\carrot.jpg	1	1	1	carrot	1	V	15	0	19	0		0	0	77.085561200045	77.1855674000108
16035	0.100011000002269	8	satiated	stimuli/non_foods\non-food_inanimate_tree.jpg	1	1	1	non-food_inanimate_tree	0	T	14	0	223	0		0	0	77.2355572000379	77.3355682000401
16072.5	0.0999753999640234	9	satiated	stimuli/non_foods\non-food_inanimate_folding_chair.jpg	1	1	1	non-food_inanimate_folding_chair	0	W	16	0	182	0		0	0	77.3855793000548	77.4855547000188
16110	0.0999981999630108	10	satiated	stimuli/non_foods\non-food_inanimate_teddy_bear.jpg	1	1	1	non-food_inanimate_teddy_bear	0	C	1	0	218	0		0	0	77.5355666000396	77.6355648000026
16147.5	0.0999585000099614	11	satiated	stimuli/foods\brussel_sprouts.jpg	1	1	1	brussel_sprouts	1	D	2	0	15	0		0	0	77.6855738000013	77.7855323000113
16185	0.0999859999865294	12	satiated	stimuli/foods\museli_bars.jpg	1	1	1	museli_bars	1	S	13	0	84	0		0	0	77.8355693000485	77.935555300035
16222.5	0.099736399948597	13	satiated	stimuli/non_foods\non-food_inanimate_button.jpg	1	1	1	non-food_inanimate_button	0	H	5	0	168	0		0	0	77.9858113000519	78.0855477000005
16260	0.099983699969016	14	satiated	stimuli/non_foods\non-food_animate_caterpillar.jpg	1	1	1	non-food_animate_caterpillar	0	G	4	0	99	0		0	0	78.1355706000468	78.2355543000158
16297.5	0.0999887999496423	15	satiated	stimuli/non_foods\non-food_inanimate_padlock.jpg	1	1	1	non-food_inanimate_padlock	0	N	10	0	199	0		0	0	78.2855680000503	78.3855567999999
16335	0.10001850000117	16	satiated	stimuli/foods\risotto_with_zucchini.jpg	1	1	1	risotto_with_zucchini	1	X	17	0	260	0		0	0	78.4355485000415	78.5355670000426
16372.5	0.099952700024005	17	satiated	stimuli/non_foods\non-food_animate_lizard.jpg	1	1	1	non-food_animate_lizard	0	W	16	0	126	0		0	0	78.5855966000236	78.6855493000476
16410	0.0999789999914356	18	satiated	stimuli/non_foods\non-food_inanimate_desk.jpg	1	1	1	non-food_inanimate_desk	0	D	2	0	178	0		0	0	78.7355613000109	78.8355403000023
16447.5	0.0999849000363611	19	satiated	stimuli/non_foods\non-food_inanimate_toilet.jpg	1	1	1	non-food_inanimate_toilet	0	C	1	0	220	0		0	0	78.8855572000029	78.9855421000393
16485	0.0999905000207946	20	satiated	stimuli/non_foods\non-food_animate_llama.jpg	1	1	1	non-food_animate_llama	0	T	14	0	127	0		0	0	79.0355580000323	79.1355485000531
16522.5	0.0999824000173248	21	satiated	stimuli/foods\mandarin.jpg	1	1	1	mandarin	1	B	0	0	79	0		0	0	79.1855595000088	79.2855419000261
16560	0.0999879000009969	22	satiated	stimuli/non_foods\non-food_animate_bee.jpg	1	1	1	non-food_animate_bee	0	T	14	0	95	0		0	0	79.3355524000362	79.4355403000372
16597.5	0.100009299989324	23	satiated	stimuli/foods\corncob.jpg	1	1	1	corncob	1	W	16	0	37	0		0	0	79.4855487000314	79.5855580000207
16635	0.0999635999905877	24	satiated	stimuli/non_foods\non-food_animate_deer.jpg	1	1	1	non-food_animate_deer	0	K	7	0	105	0		0	0	79.6355719000567	79.7355355000473
16672.5	0.0999915999709629	25	satiated	stimuli/foods\pumpkin.jpg	1	1	1	pumpkin	1	F	3	0	250	0		0	0	79.7855435000383	79.8855351000093
16710	0.0999830999644473	26	satiated	stimuli/non_foods\non-food_inanimate_canoe.jpg	1	1	1	non-food_inanimate_canoe	0	C	1	0	170	0		0	0	79.9355482000392	80.0355313000036
16747.5	0.0999853999819607	27	satiated	stimuli/non_foods\non-food_inanimate_shell.jpg	1	1	1	non-food_inanimate_shell	0	M	9	0	206	0		0	0	80.0855453000404	80.1855307000224
16785	0.0999884000048041	28	satiated	stimuli/non_foods\non-food_animate_green_bug.jpg	1	1	1	non-food_animate_green_bug	0	N	10	0	118	0		0	0	80.2355430000462	80.335531400051
16822.5	0.0999891000101343	29	satiated	stimuli/non_foods\non-food_animate_mammoth.jpg	1	1	1	non-food_animate_mammoth	0	K	7	0	128	0		0	0	80.3855351000093	80.4855242000194
16860	0.099989399954211	30	satiated	stimuli/foods\waffle.jpg	1	1	1	waffle	1	C	1	0	278	0		0	0	80.5355372000486	80.6355266000028
16897.5	0.0999853000394069	31	satiated	stimuli/foods\salmon.jpg	1	1	1	salmon	1	H	5	0	264	0		0	0	80.6855357000022	80.7855210000416
16934.75	0.0999920000322163	32	satiated	stimuli/foods\oyster.jpg	1	1	1	oyster	1	Z	18	0	233	0		0	0	80.8355253000045	80.9355173000367
16972.25	0.100005300017074	33	satiated	stimuli/non_foods\non-food_inanimate_toy_airplane.jpg	1	1	1	non-food_inanimate_toy_airplane	0	B	0	0	222	0		0	0	80.9855143000023	81.0855196000193
17010	0.099985699984245	34	satiated	stimuli/non_foods\non-food_inanimate_cap.jpg	1	1	1	non-food_inanimate_cap	0	N	10	0	171	0		0	0	81.135530300031	81.2355160000152
17047.5	0.0999979999614879	35	satiated	stimuli/non_foods\non-food_inanimate_leaf.jpg	1	1	1	non-food_inanimate_leaf	0	C	1	0	192	0		0	0	81.2855303000542	81.3855283000157
17085	0.09997740003746	36	satiated	stimuli/non_foods\non-food_animate_ram.jpg	1	1	1	non-food_animate_ram	0	S	13	0	140	0		0	0	81.435536200006	81.5355136000435
17122.5	0.0999903000192717	37	satiated	stimuli/foods\hotdog.jpg	1	1	1	hotdog	1	T	14	0	67	0		0	0	81.5855200000224	81.6855103000416
17160	0.0999894000124186	38	satiated	stimuli/foods\mango.jpg	1	1	1	mango	1	K	7	0	80	0		0	0	81.7355220000027	81.8355114000151
17197.5	0.0999891000101343	39	satiated	stimuli/non_foods\non-food_animate_runner.jpg	1	1	1	non-food_animate_runner	0	H	5	0	142	0		0	0	81.8855218000244	81.9855109000346
17235	0.0999621999799274	40	satiated	stimuli/non_foods\non-food_animate_horse.jpg	1	1	1	non-food_animate_horse	0	S	13	0	119	0		0	0	82.0355421000277	82.1355043000076
17272.5	0.0999824000173248	41	satiated	stimuli/non_foods\non-food_inanimate_grass.jpg	1	1	1	non-food_inanimate_grass	0	L	8	0	184	0		0	0	82.1855208000052	82.2855032000225
17310	0.0999542999779806	42	satiated	stimuli/non_foods\non-food_animate_alligator.jpg	1	1	1	non-food_animate_alligator	0	C	1	0	90	0		0	0	82.3355212000315	82.4354755000095
17347.25	0.099993199983146	43	satiated	stimuli/foods\cannoli.jpg	1	1	1	cannoli	1	N	10	0	17	0		0	0	82.485504100041	82.5854973000241
17385	0.100016199983656	44	satiated	stimuli/foods\hamburger.jpg	1	1	1	hamburger	1	C	1	0	64	0		0	0	82.6355300000287	82.7355462000123
17422.5	0.0999849999789149	45	satiated	stimuli/foods\roasted_chicken.jpg	1	1	1	roasted_chicken	1	G	4	0	261	0		0	0	82.7855135000427	82.8854985000216
17460	0.0999827000196092	46	satiated	stimuli/non_foods\non-food_animate_tortoise.jpg	1	1	1	non-food_animate_tortoise	0	Z	18	0	153	0		0	0	82.9355076000211	83.0354903000407
17497.25	0.10000089998357	47	satiated	stimuli/foods\red_cabbage.jpg	1	1	1	red_cabbage	1	X	17	0	256	0		0	0	83.0855015000561	83.1855024000397
17534.75	0.0999826999614015	48	satiated	stimuli/non_foods\non-food_animate_Causasian_man.jpg	1	1	1	non-food_animate_Causasian_man	0	G	4	0	89	0		0	0	83.2355048000463	83.3354875000077
17572.5	0.0999867999926209	49	satiated	stimuli/foods\fried_zucchini.jpg	1	1	1	fried_zucchini	1	N	10	0	51	0		0	0	83.3855018000468	83.4854886000394
17610	0.0999849999789149	50	satiated	stimuli/foods\green_beans.jpg	1	1	1	green_beans	1	K	7	0	61	0		0	0	83.5355042000301	83.635489200009
17647.25	0.0999858999857679	51	satiated	stimuli/non_foods\non-food_animate_clown.jpg	1	1	1	non-food_animate_clown	0	C	1	0	102	0		0	0	83.6855003000237	83.7854862000095
17685	0.0999731000047177	52	satiated	stimuli/foods\baked_lamb_with_potatoes.jpg	1	1	1	baked_lamb_with_potatoes	1	V	15	0	8	0		0	0	83.8355137000326	83.9354868000373
17722.25	0.0999849000363611	53	satiated	stimuli/foods\pomegranate.jpg	1	1	1	pomegranate	1	L	8	0	244	0		0	0	83.9854986999999	84.0854836000362
17759.75	0.099986599991098	54	satiated	stimuli/non_foods\non-food_animate_parrot.jpg	1	1	1	non-food_animate_parrot	0	K	7	0	133	0		0	0	84.1354819000117	84.2354685000028
17797.25	0.0999959000037052	55	satiated	stimuli/foods\pasta_carbonara.jpg	1	1	1	pasta_carbonara	1	H	5	0	236	0		0	0	84.2854825000395	84.3854784000432
17834.75	0.0999874999979511	56	satiated	stimuli/foods\cream_donuts.jpg	1	1	1	cream_donuts	1	F	3	0	39	0		0	0	84.4354905000073	84.5354780000052
17872.25	0.0999806000036187	57	satiated	stimuli/foods\chocolate_pudding.jpg	1	1	1	chocolate_pudding	1	R	12	0	29	0		0	0	84.585479100002	84.6854597000056
17909.75	0.10000019997824	58	satiated	stimuli/non_foods\non-food_animate_cheetah.jpg	1	1	1	non-food_animate_cheetah	0	V	15	0	100	0		0	0	84.7354717000271	84.8354719000054
17947.25	0.0999996999744326	59	satiated	stimuli/foods\blackberry.jpg	1	1	1	blackberry	1	A	19	1	11	0		0	0	84.8854844000307	84.9854841000051
17984.75	0.0999854999827221	60	satiated	stimuli/foods\spinach.jpg	1	1	1	spinach	1	Z	18	0	268	0		0	0	85.0354828000418	85.1354683000245
18022.25	0.0999864999903366	61	satiated	stimuli/non_foods\non-food_animate_raccoon.jpg	1	1	1	non-food_animate_raccoon	0	W	16	0	139	0		0	0	85.1854787000339	85.2854652000242
18059.75	0.099987699999474	62	satiated	stimuli/non_foods\non-food_animate_rhino.jpg	1	1	1	non-food_animate_rhino	0	R	12	0	141	1	a	0.443281300016679	1	85.3354774000472	85.4354651000467
18097.25	0.099987699999474	63	satiated	stimuli/foods\brownie.jpg	1	1	1	brownie	1	C	1	0	14	0		0	0	85.4854783000192	85.5854660000186
18135	0.0999591999570839	64	satiated	stimuli/foods\kiwi.jpg	1	1	1	kiwi	1	G	4	0	69	0		0	0	85.6355179000529	85.73547710001
18172.25	0.0999999000341631	65	satiated	stimuli/non_foods\non-food_animate_seahorse.jpg	1	1	1	non-food_animate_seahorse	0	H	5	0	145	0		0	0	85.7854489000165	85.8854488000507
18209.75	0.0999859999865294	66	satiated	stimuli/foods\lollies.jpg	1	1	1	lollies	1	W	16	0	78	0		0	0	85.9354614000185	86.0354474000051
18247.25	0.0999831999652088	67	satiated	stimuli/non_foods\non-food_animate_cow.jpg	1	1	1	non-food_animate_cow	0	P	11	0	103	0		0	0	86.0854621000472	86.1854453000124
18284.75	0.0999932000413537	68	satiated	stimuli/foods\chocolate_bar.jpg	1	1	1	chocolate_bar	1	N	10	0	26	0		0	0	86.2354605	86.3354537000414
18322.25	0.099978199985344	69	satiated	stimuli/foods\lemon_meringue_pie.jpg	1	1	1	lemon_meringue_pie	1	J	6	0	73	0		0	0	86.3854646000545	86.4854428000399
18359.75	0.0999822000158019	70	satiated	stimuli/non_foods\non-food_inanimate_cupboard.jpg	1	1	1	non-food_inanimate_cupboard	0	D	2	0	177	0		0	0	86.5354578000261	86.6354400000419
18397.25	0.100013099960051	71	satiated	stimuli/non_foods\non-food_inanimate_protractor.jpg	1	1	1	non-food_inanimate_protractor	0	R	12	0	201	0		0	0	86.6854491000413	86.7854622000013
18434.75	0.0999882000032812	72	satiated	stimuli/foods\risotto_with_peas_and_asparagus_tips.jpg	1	1	1	risotto_with_peas_and_asparagus_tips	1	W	16	0	259	0		0	0	86.8354573000106	86.9354455000139
18472.25	0.0999887000070885	73	satiated	stimuli/non_foods\non-food_animate_chicken.jpg	1	1	1	non-food_animate_chicken	0	T	14	0	101	0		0	0	86.9854577000369	87.085446400044
18509.75	0.0999849999789149	74	satiated	stimuli/non_foods\non-food_animate_hummingbird.jpg	1	1	1	non-food_animate_hummingbird	0	F	3	0	120	0		0	0	87.1354553000419	87.2354403000209
18547.25	0.0999978999607265	75	satiated	stimuli/foods\chocolate_pralines.jpg	1	1	1	chocolate_pralines	1	L	8	0	28	0		0	0	87.2854527000454	87.3854506000062
18585	0.0999594999593683	76	satiated	stimuli/foods\grilled_chicken_breast.jpg	1	1	1	grilled_chicken_breast	1	F	3	0	63	0		0	0	87.435480300046	87.5354398000054
18622.25	0.0999859000439756	77	satiated	stimuli/foods\smoked_ham.jpg	1	1	1	smoked_ham	1	D	2	0	266	0		0	0	87.5854491000064	87.6854350000503
18659.75	0.099984799977392	78	satiated	stimuli/foods\ginger_root.jpg	1	1	1	ginger_root	1	T	14	0	57	0		0	0	87.7354487000266	87.835433500004
18697.25	0.099984799977392	79	satiated	stimuli/non_foods\non-food_animate_eagle.jpg	1	1	1	non-food_animate_eagle	0	Z	18	0	110	0		0	0	87.8854461000301	87.9854309000075
18734.75	0.0999863999895751	80	satiated	stimuli/non_foods\non-food_inanimate_bush.jpg	1	1	1	non-food_inanimate_bush	0	R	12	0	167	0		0	0	88.0354437000351	88.1354301000247
18772.25	0.0999825000180863	81	satiated	stimuli/foods\grapefruits.jpg	1	1	1	grapefruits	1	L	8	0	59	0		0	0	88.1854469000245	88.2854294000426
18809.75	0.0999645999982022	82	satiated	stimuli/non_foods\non-food_inanimate_bicycle.jpg	1	1	1	non-food_inanimate_bicycle	0	H	5	0	161	0		0	0	88.3354378000367	88.4354024000349
18847.25	0.0999830000218935	83	satiated	stimuli/non_foods\non-food_animate_fox.jpg	1	1	1	non-food_animate_fox	0	V	15	0	112	0		0	0	88.4854339000303	88.5854169000522
18884.75	0.099989700014703	84	satiated	stimuli/non_foods\non-food_inanimate_cactus_pot_plant.jpg	1	1	1	non-food_inanimate_cactus_pot_plant	0	F	3	0	169	0		0	0	88.6354278000072	88.7354175000219
18922.25	0.0999843000317924	85	satiated	stimuli/foods\mortadella.jpg	1	1	1	mortadella	1	L	8	0	83	0		0	0	88.7854252000106	88.8854095000424
18959.75	0.0999912999686785	86	satiated	stimuli/foods\potatoes.jpg	1	1	1	potatoes	1	G	4	0	248	0		0	0	88.9354254000355	89.0354167000041
18997.25	0.100005699961912	87	satiated	stimuli/foods\taco.jpg	1	1	1	taco	1	W	16	0	274	0		0	0	89.0854171000537	89.1854228000157
19034.75	0.0999717000522651	88	satiated	stimuli/non_foods\non-food_inanimate_bucket.jpg	1	1	1	non-food_inanimate_bucket	0	C	1	0	165	0		0	0	89.2354148000013	89.3353865000536
19072.25	0.099987699999474	89	satiated	stimuli/non_foods\non-food_inanimate_suitcase.jpg	1	1	1	non-food_inanimate_suitcase	0	Z	18	0	215	0		0	0	89.3854201000067	89.4854078000062
19109.75	0.0999846000340767	90	satiated	stimuli/foods\pork_and_rice.jpg	1	1	1	pork_and_rice	1	D	2	0	245	0		0	0	89.5354183000163	89.6354029000504
19147.25	0.0999944999930449	91	satiated	stimuli/foods\donut.jpg	1	1	1	donut	1	P	11	0	44	0		0	0	89.685417300032	89.785411800025
19184.75	0.0999542999779806	92	satiated	stimuli/foods\minestrone_soup.jpg	1	1	1	minestrone_soup	1	V	15	0	82	0		0	0	89.8354244000511	89.9353787000291
19222.25	0.099990299961064	93	satiated	stimuli/non_foods\non-food_animate_donkey.jpg	1	1	1	non-food_animate_donkey	0	L	8	0	107	0		0	0	89.9854143000557	90.0854046000168
19259.75	0.0999830000218935	94	satiated	stimuli/non_foods\non-food_animate_pigeon.jpg	1	1	1	non-food_animate_pigeon	0	W	16	0	136	0		0	0	90.135420400009	90.2354034000309
19297.25	0.0999759000260383	95	satiated	stimuli/non_foods\non-food_inanimate_scissors.jpg	1	1	1	non-food_inanimate_scissors	0	Z	18	0	205	0		0	0	90.2854243000038	90.3854002000298
19334.75	0.0999900000169873	96	satiated	stimuli/non_foods\non-food_inanimate_moss.jpg	1	1	1	non-food_inanimate_moss	0	R	12	0	194	0		0	0	90.4354143000091	90.5354043000261
19372.25	0.0999845000333153	97	satiated	stimuli/foods\lentils.jpg	1	1	1	lentils	1	X	17	0	74	0		0	0	90.5854129000218	90.6853974000551
19409.75	0.0999850999796763	98	satiated	stimuli/foods\artichoke.jpg	1	1	1	artichoke	1	H	5	0	3	0		0	0	90.735410000023	90.8353951000026
19447.25	0.0999728000024334	99	satiated	stimuli/foods\cereal.jpg	1	1	1	cereal	1	S	13	0	22	0		0	0	90.885418400052	90.9853912000544
19484.75	0.0999690999742597	100	satiated	stimuli/non_foods\non-food_animate_german_shepherd.jpg	1	1	1	non-food_animate_german_shepherd	0	K	7	0	114	0		0	0	91.0354157000547	91.135384800029
19522.25	0.0999770000344142	101	satiated	stimuli/non_foods\non-food_animate_gorilla.jpg	1	1	1	non-food_animate_gorilla	0	M	9	0	116	0		0	0	91.185400300019	91.2853773000534
19559.75	0.100003800005652	102	satiated	stimuli/foods\pepperoni_pizza.jpg	1	1	1	pepperoni_pizza	1	H	5	0	241	0		0	0	91.335389600019	91.4353934000246
19597.25	0.0999878000002354	103	satiated	stimuli/foods\coconut.jpg	1	1	1	coconut	1	L	8	0	33	0		0	0	91.4854005000088	91.5853883000091
19634.75	0.0999901000177488	104	satiated	stimuli/non_foods\non-food_animate_polar_bear.jpg	1	1	1	non-food_animate_polar_bear	0	W	16	0	137	0		0	0	91.6353985000169	91.7353886000346
19672.25	0.0999845999758691	105	satiated	stimuli/foods\onion.jpg	1	1	1	onion	1	M	9	0	229	0		0	0	91.7853995000478	91.8853841000237
19709.75	0.0999860999872908	106	satiated	stimuli/non_foods\non-food_animate_skunk.jpg	1	1	1	non-food_animate_skunk	0	B	0	0	147	0		0	0	91.9353950000368	92.0353811000241
19747.25	0.0999791999929585	107	satiated	stimuli/foods\pea_pod.jpg	1	1	1	pea_pod	1	K	7	0	237	0		0	0	92.0853989000316	92.1853781000245
19784.75	0.0999955000006594	108	satiated	stimuli/non_foods\non-food_animate_elephant.jpg	1	1	1	non-food_animate_elephant	0	E	20	1	111	0		0	0	92.2353923000046	92.3353878000053
19822.25	0.0999890000093728	109	satiated	stimuli/foods\prawn.jpg	1	1	1	prawn	1	R	12	0	249	0		0	0	92.3853894000058	92.4853784000152
19859.75	0.0999816000112332	110	satiated	stimuli/non_foods\non-food_inanimate_socks.jpg	1	1	1	non-food_inanimate_socks	0	K	7	0	211	0		0	0	92.5353895000299	92.6353711000411
19897.25	0.100009599991608	111	satiated	stimuli/foods\omelette.jpg	1	1	1	omelette	1	R	12	0	228	0		0	0	92.685388300044	92.7853979000356
19934.75	0.0999582000076771	112	satiated	stimuli/non_foods\non-food_animate_slug.jpg	1	1	1	non-food_animate_slug	0	W	16	0	148	0		0	0	92.8354147000355	92.9353729000431
19972.25	0.099983100022655	113	satiated	stimuli/non_foods\non-food_animate_bat.jpg	1	1	1	non-food_animate_bat	0	B	0	0	94	0		0	0	92.9853862000164	93.085369300039
20009.75	0.0999867000500672	114	satiated	stimuli/foods\baked_cod_with_carrots_and_green_beans.jpg	1	1	1	baked_cod_with_carrots_and_green_beans	1	J	6	0	7	0		0	0	93.1353816000046	93.2353683000547
20047.25	0.0999812999507412	115	satiated	stimuli/non_foods\non-food_animate_Asian_man.jpg	1	1	1	non-food_animate_Asian_man	0	G	4	0	88	0		0	0	93.2853843000485	93.3853655999992
20084.75	0.0999920999747701	116	satiated	stimuli/non_foods\non-food_inanimate_soccer_ball.jpg	1	1	1	non-food_inanimate_soccer_ball	0	V	15	0	210	0		0	0	93.4353728000424	93.5353649000172
20122.25	0.0999902000185102	117	satiated	stimuli/foods\papaya.jpg	1	1	1	papaya	1	N	10	0	235	0		0	0	93.5853743000189	93.6853645000374
20159.75	0.099984000029508	118	satiated	stimuli/foods\peach.jpg	1	1	1	peach	1	S	13	0	238	0		0	0	93.735377200006	93.8353612000355
20197.25	0.0999785999883898	119	satiated	stimuli/non_foods\non-food_inanimate_orchid.jpg	1	1	1	non-food_inanimate_orchid	0	H	5	0	198	0		0	0	93.8853957000538	93.9853743000422
20234.75	0.0999766999739222	120	satiated	stimuli/foods\raw_ham.jpg	1	1	1	raw_ham	1	W	16	0	253	0		0	0	94.0353736000252	94.1353502999991
20272.25	0.0999850999796763	121	satiated	stimuli/foods\spaghetti_with_meat_sauce.jpg	1	1	1	spaghetti_with_meat_sauce	1	M	9	0	267	0		0	0	94.1853628000244	94.2853479000041
20309.75	0.0999787999899127	122	satiated	stimuli/non_foods\non-food_inanimate_chair.jpg	1	1	1	non-food_inanimate_chair	0	L	8	0	172	0		0	0	94.3353593000211	94.435338100011
20347.25	0.0999834999674931	123	satiated	stimuli/non_foods\non-food_inanimate_tulip.jpg	1	1	1	non-food_inanimate_tulip	0	X	17	0	224	0		0	0	94.4853594000451	94.5853429000126
20384.75	0.0999834999674931	124	satiated	stimuli/foods\brie.jpg	1	1	1	brie	1	D	2	0	12	0		0	0	94.6353573000524	94.7353408000199
20422.25	0.10000229999423	125	satiated	stimuli/non_foods\non-food_inanimate_sun_flower.jpg	1	1	1	non-food_inanimate_sun_flower	0	W	16	0	216	0		0	0	94.7853481000056	94.8853503999999
20459.75	0.0999884000048041	126	satiated	stimuli/non_foods\non-food_inanimate_broom.jpg	1	1	1	non-food_inanimate_broom	0	S	13	0	164	0		0	0	94.9353618000168	95.0353502000216
20497.25	0.0999875999987125	127	satiated	stimuli/non_foods\non-food_animate_dolphin.jpg	1	1	1	non-food_animate_dolphin	0	V	15	0	106	0		0	0	95.0853580000112	95.1853456000099
20534.75	0.0999863999895751	128	satiated	stimuli/foods\fennel.jpg	1	1	1	fennel	1	R	12	0	47	0		0	0	95.2353575000307	95.3353439000202
20572.25	0.0999871999956667	129	satiated	stimuli/foods\rice.jpg	1	1	1	rice	1	S	13	0	257	0		0	0	95.3853532000212	95.4853404000169
20609.75	0.0999813999515027	130	satiated	stimuli/foods\banana.jpg	1	1	1	banana	1	P	11	0	9	0		0	0	95.5353541000513	95.6353355000028
20647.25	0.0999763999716379	131	satiated	stimuli/foods\meatballs.jpg	1	1	1	meatballs	1	K	7	0	81	0		0	0	95.6853669000557	95.7853433000273
20684.75	0.0999885999481194	132	satiated	stimuli/foods\fruit_salad.jpg	1	1	1	fruit_salad	1	C	1	0	55	0		0	0	95.8353479000507	95.9353364999988
20722.25	0.0999910000246018	133	satiated	stimuli/foods\cauliflower.jpg	1	1	1	cauliflower	1	S	13	0	20	0		0	0	95.9853482000181	96.0853392000427
20759.75	0.0999905000207946	134	satiated	stimuli/foods\chestnut.jpg	1	1	1	chestnut	1	T	14	0	24	0		0	0	96.1353426999995	96.2353332000202
20797.25	0.0999662000103854	135	satiated	stimuli/foods\cherry.jpg	1	1	1	cherry	1	P	11	0	23	0		0	0	96.2853664000286	96.385332600039
20834.75	0.0999722999986261	136	satiated	stimuli/non_foods\non-food_inanimate_bowling_ball.jpg	1	1	1	non-food_inanimate_bowling_ball	0	W	16	0	162	0		0	0	96.4353571000393	96.5353294000379
20872.25	0.0999832000234164	137	satiated	stimuli/foods\stew_with_potatoes_and_carrots.jpg	1	1	1	stew_with_potatoes_and_carrots	1	D	2	0	271	0		0	0	96.5853411999997	96.6853244000231
20909.75	0.099986599991098	138	satiated	stimuli/foods\fruit_flan.jpg	1	1	1	fruit_flan	1	B	0	0	53	0		0	0	96.7353370000492	96.8353236000403
20947.25	0.0999829000211321	139	satiated	stimuli/foods\radish.jpg	1	1	1	radish	1	Z	18	0	251	0		0	0	96.8853394000325	96.9853223000537
21339	0.099972500000149	140	satiated	stimuli/non_foods\non-food_animate_peacock.jpg	1	2	1	non-food_animate_peacock	0	H	5	0	134	0		0	0	98.4520042000222	98.5519767000224
21376.5	0.0999847000348382	141	satiated	stimuli/non_foods\non-food_inanimate_couch.jpg	1	2	1	non-food_inanimate_couch	0	K	7	0	176	0		0	0	98.6019842000096	98.7019689000444
21414	0.0999832000234164	142	satiated	stimuli/non_foods\non-food_inanimate_stapler.jpg	1	2	1	non-food_inanimate_stapler	0	P	11	0	213	0		0	0	98.7519830000238	98.8519662000472
21451.5	0.0999925999785773	143	satiated	stimuli/foods\lime.jpg	1	2	1	lime	1	N	10	0	76	0		0	0	98.9019751000451	99.0019677000237
21489	0.0999822000158019	144	satiated	stimuli/foods\figs.jpg	1	2	1	figs	1	J	6	0	48	0		0	0	99.0519780000322	99.1519602000481
21526.5	0.0999859999865294	145	satiated	stimuli/foods\broccoli.jpg	1	2	1	broccoli	1	X	17	0	13	0		0	0	99.2019731000182	99.3019591000048
21564	0.0999835999682546	146	satiated	stimuli/foods\avocado.jpg	1	2	1	avocado	1	F	3	0	5	0		0	0	99.3519740000484	99.4519576000166
21601.5	0.0999581000069156	147	satiated	stimuli/foods\salami.jpg	1	2	1	salami	1	L	8	0	263	0		0	0	99.5019968000124	99.6019549000193
21639	0.099988600006327	148	satiated	stimuli/non_foods\non-food_animate_squirrel.jpg	1	2	1	non-food_animate_squirrel	0	F	3	0	150	0		0	0	99.6519663000363	99.7519549000426
21676.5	0.0999887000070885	149	satiated	stimuli/non_foods\non-food_inanimate_watering_can.jpg	1	2	1	non-food_inanimate_watering_can	0	S	13	0	225	0		0	0	99.801961500023	99.9019502000301
21714	0.0999884000048041	150	satiated	stimuli/foods\apricot.jpg	1	2	1	apricot	1	D	2	0	2	0		0	0	99.9519618000486	100.051950200053
21751.5	0.100008099980187	151	satiated	stimuli/foods\frankfurter_and_provolone_salad.jpg	1	2	1	frankfurter_and_provolone_salad	1	P	11	0	49	0		0	0	100.101964500034	100.201972600014
21789	0.0999415999976918	152	satiated	stimuli/non_foods\non-food_inanimate_horn.jpg	1	2	1	non-food_inanimate_horn	0	H	5	0	190	0		0	0	100.252004500013	100.351946100011
21826.5	0.0999776999815367	153	satiated	stimuli/non_foods\non-food_inanimate_nailpolish.jpg	1	2	1	non-food_inanimate_nailpolish	0	S	13	0	195	0		0	0	100.40195910004	100.501936800021
21864	0.0999880000017583	154	satiated	stimuli/non_foods\non-food_inanimate_briefcase.jpg	1	2	1	non-food_inanimate_briefcase	0	Z	18	0	163	0		0	0	100.551950100053	100.651938100054
21901.5	0.100015699979849	155	satiated	stimuli/non_foods\non-food_inanimate_nest.jpg	1	2	1	non-food_inanimate_nest	0	H	5	0	196	0		0	0	100.701954800053	100.801970500033
21939	0.0999851999804378	156	satiated	stimuli/non_foods\non-food_animate_duck.jpg	1	2	1	non-food_animate_duck	0	X	17	0	109	0		0	0	100.851949000033	100.951934200013
21976.5	0.0999844999751076	157	satiated	stimuli/foods\fried_calamari.jpg	1	2	1	fried_calamari	1	F	3	0	50	0		0	0	101.001947300043	101.101931800018
22014	0.0999837000272237	158	satiated	stimuli/foods\lamb_chops.jpg	1	2	1	lamb_chops	1	L	8	0	70	0		0	0	101.151946600003	101.25193030003
22051.5	0.100006599968765	159	satiated	stimuli/foods\orange.jpg	1	2	1	orange	1	K	7	0	230	0		0	0	101.301941500045	101.401948100014
22089	0.0999749000184238	160	satiated	stimuli/non_foods\non-food_inanimate_wrench.jpg	1	2	1	non-food_inanimate_wrench	0	R	12	0	227	0		0	0	101.451950300019	101.551925200038
22126.5	0.0999861000454985	161	satiated	stimuli/foods\cupcake.jpg	1	2	1	cupcake	1	L	8	0	42	0		0	0	101.601938500011	101.701924600056
22164	0.0999847000348382	162	satiated	stimuli/non_foods\non-food_animate_ant.jpg	1	2	1	non-food_animate_ant	0	P	11	0	91	0		0	0	101.751935900014	101.851920600049
22201.5	0.100025899999309	163	satiated	stimuli/non_foods\non-food_inanimate_short_sleeved_shirt.jpg	1	2	1	non-food_inanimate_short_sleeved_shirt	0	C	1	0	207	0		0	0	101.901915599999	102.001941499999
22239	0.0999613999738358	164	satiated	stimuli/foods\gnocchi.jpg	1	2	1	gnocchi	1	M	9	0	58	0		0	0	102.051964900049	102.151926300023
22276.5	0.0999849999789149	165	satiated	stimuli/non_foods\non-food_inanimate_guitar.jpg	1	2	1	non-food_inanimate_guitar	0	W	16	0	185	0		0	0	102.201938400045	102.301923400024
22314	0.0999853999819607	166	satiated	stimuli/foods\cinnamon.jpg	1	2	1	cinnamon	1	Z	18	0	30	0		0	0	102.351935900049	102.451921300031
22351.5	0.0999855999834836	167	satiated	stimuli/non_foods\non-food_animate_grasshopper.jpg	1	2	1	non-food_animate_grasshopper	0	M	9	0	117	0		0	0	102.501933700056	102.601919300039
22389	0.0999853000394069	168	satiated	stimuli/foods\lemon.jpg	1	2	1	lemon	1	G	4	0	72	0		0	0	102.651932400011	102.75191770005
22426.5	0.0999839999713004	169	satiated	stimuli/non_foods\non-food_animate_millipede.jpg	1	2	1	non-food_animate_millipede	0	Z	18	0	129	0		0	0	102.801932200033	102.901916200004
22464	0.0999851999804378	170	satiated	stimuli/non_foods\non-food_animate_butterfly.jpg	1	2	1	non-food_animate_butterfly	0	W	16	0	96	0		0	0	102.95192880003	103.051914000011
22501.5	0.0999782999861054	171	satiated	stimuli/non_foods\non-food_animate_baby_sitting.jpg	1	2	1	non-food_animate_baby_sitting	0	P	11	0	93	0		0	0	103.101936200052	103.201914500038
22539	0.0999846999766305	172	satiated	stimuli/foods\chilli.jpg	1	2	1	chilli	1	T	14	0	25	0		0	0	103.251925600052	103.351910300029
22576.5	0.0999901999603026	173	satiated	stimuli/non_foods\non-food_inanimate_buds.jpg	1	2	1	non-food_inanimate_buds	0	B	0	0	166	0		0	0	103.401921400044	103.501911600004
22614	0.0999838000279851	174	satiated	stimuli/non_foods\non-food_inanimate_clover.jpg	1	2	1	non-food_inanimate_clover	0	H	5	0	174	0		0	0	103.551922400016	103.651906200044
22651.5	0.100017599994317	175	satiated	stimuli/foods\honey.jpg	1	2	1	honey	1	V	15	0	66	0		0	0	103.701927700022	103.801945300016
22689	0.0999693999765441	176	satiated	stimuli/foods\toasted_bread_with_tomatoes.jpg	1	2	1	toasted_bread_with_tomatoes	1	P	11	0	275	0		0	0	103.851935100043	103.95190450002
22726.5	0.0999836000264622	177	satiated	stimuli/non_foods\non-food_animate_penguin.jpg	1	2	1	non-food_animate_penguin	0	Z	18	0	135	0		0	0	104.001919800008	104.101903400035
22764	0.0999927999801002	178	satiated	stimuli/foods\cooked_prawn.jpg	1	2	1	cooked_prawn	1	X	17	0	36	0		0	0	104.151912100031	104.251904900011
22801.5	0.0999889999511652	179	satiated	stimuli/non_foods\non-food_animate_owl.jpg	1	2	1	non-food_animate_owl	0	H	5	0	132	0		0	0	104.30191150005	104.401900500001
22839	0.0999855999834836	180	satiated	stimuli/foods\spring_onions.jpg	1	2	1	spring_onions	1	K	7	0	269	0		0	0	104.45191220002	104.551897800004
22876.5	0.0999771999777295	181	satiated	stimuli/non_foods\non-food_inanimate_fern.jpg	1	2	1	non-food_inanimate_fern	0	G	4	0	180	0		0	0	104.60191050003	104.701887700008
22914	0.0999850999796763	182	satiated	stimuli/non_foods\non-food_inanimate_hay.jpg	1	2	1	non-food_inanimate_hay	0	M	9	0	187	0		0	0	104.751899600029	104.851884700009
22951.5	0.100022999977227	183	satiated	stimuli/non_foods\non-food_animate_porcupine.jpg	1	2	1	non-food_animate_porcupine	0	C	1	0	138	0		0	0	104.901897800039	105.001920800016
22989	0.0999868999933824	184	satiated	stimuli/non_foods\non-food_animate_swan.jpg	1	2	1	non-food_animate_swan	0	X	17	0	152	0		0	0	105.051906200009	105.151893100003
23026.5	0.0999880000017583	185	satiated	stimuli/foods\potato_and_green_bean_salad.jpg	1	2	1	potato_and_green_bean_salad	1	Z	18	0	246	0		0	0	105.201903100009	105.301891100011
23064	0.0999941999907605	186	satiated	stimuli/non_foods\non-food_inanimate_rope.jpg	1	2	1	non-food_inanimate_rope	0	N	10	0	204	0		0	0	105.35187350004	105.451867700031
23101.5	0.100029199966229	187	satiated	stimuli/foods\rockmelon.jpg	1	2	1	rockmelon	1	G	4	0	262	0		0	0	105.501877900038	105.601907100005
23139	0.0999513000133447	188	satiated	stimuli/non_foods\non-food_inanimate_construction_helment.jpg	1	2	1	non-food_inanimate_construction_helment	0	H	5	0	175	0		0	0	105.65192860004	105.751879900054
23176.5	0.0999902000185102	189	satiated	stimuli/non_foods\non-food_animate_cat.jpg	1	2	1	non-food_animate_cat	0	L	8	0	98	0		0	0	105.801891300012	105.901881500031
23214	0.0999762000283226	190	satiated	stimuli/foods\lasagna.jpg	1	2	1	lasagna	1	C	1	0	71	0		0	0	105.951890300028	106.051866500056
23251.5	0.0999735000077635	191	satiated	stimuli/non_foods\non-food_animate_ladybug.jpg	1	2	1	non-food_animate_ladybug	0	P	11	0	124	0		0	0	106.101891300001	106.201864800008
23289	0.0999864999903366	192	satiated	stimuli/non_foods\non-food_animate_mouse.jpg	1	2	1	non-food_animate_mouse	0	D	2	0	131	0		0	0	106.251890500018	106.351877000008
23326.5	0.0999869000515901	193	satiated	stimuli/non_foods\non-food_animate_monkey.jpg	1	2	1	non-food_animate_monkey	0	Z	18	0	130	0		0	0	106.401885300002	106.501872200053
23364	0.100006200023927	194	satiated	stimuli/foods\potato_chips.jpg	1	2	1	potato_chips	1	C	1	0	247	0		0	0	106.55188470002	106.651890900044
23401.5	0.0999851999804378	195	satiated	stimuli/foods\clams.jpg	1	2	1	clams	1	F	3	0	32	0		0	0	106.701882800029	106.80186800001
23439	0.0999843000317924	196	satiated	stimuli/non_foods\non-food_inanimate_alarm_clock.jpg	1	2	1	non-food_inanimate_alarm_clock	0	L	8	0	158	0		0	0	106.851883800002	106.951868100034
23476.5	0.0999837000272237	197	satiated	stimuli/non_foods\non-food_inanimate_chandelier.jpg	1	2	1	non-food_inanimate_chandelier	0	J	6	0	173	0		0	0	107.001882800017	107.101866500045
23514	0.0999910000246018	198	satiated	stimuli/foods\capsicum.jpg	1	2	1	capsicum	1	F	3	0	18	0		0	0	107.15187380003	107.251864800055
23551.5	0.0999883000040427	199	satiated	stimuli/non_foods\non-food_inanimate_bed.jpg	1	2	1	non-food_inanimate_bed	0	B	0	0	160	0		0	0	107.301867000002	107.401855300006
23589	0.0999850999796763	200	satiated	stimuli/foods\eggplant.jpg	1	2	1	eggplant	1	M	9	0	46	0		0	0	107.451868700038	107.551853800018
23626.5	0.0999894000124186	201	satiated	stimuli/non_foods\non-food_animate_lion.jpg	1	2	1	non-food_animate_lion	0	K	7	0	125	0		0	0	107.601863900025	107.701853300037
23664	0.0999823000165634	202	satiated	stimuli/non_foods\non-food_animate_kangaroo.jpg	1	2	1	non-food_animate_kangaroo	0	S	13	0	122	0		0	0	107.751865500002	107.851847800019
23701.5	0.0999864999903366	203	satiated	stimuli/foods\asparagus.jpg	1	2	1	asparagus	1	P	11	0	4	0		0	0	107.901871500013	108.001858000003
23739	0.099961300031282	204	satiated	stimuli/foods\cracker.jpg	1	2	1	cracker	1	F	3	0	38	0		0	0	108.051867000002	108.151828300033
23776.5	0.0999865000485443	205	satiated	stimuli/non_foods\non-food_inanimate_gloves.jpg	1	2	1	non-food_inanimate_gloves	0	G	4	0	183	0		0	0	108.201864100003	108.301850600052
23814	0.0999874999979511	206	satiated	stimuli/non_foods\non-food_inanimate_lighter.jpg	1	2	1	non-food_inanimate_lighter	0	N	10	0	193	0		0	0	108.351861300005	108.451848800003
23851.5	0.099991700029932	207	satiated	stimuli/foods\bagel.jpg	1	2	1	bagel	1	X	17	0	6	0		0	0	108.501860000018	108.601851700048
23889	0.099986599991098	208	satiated	stimuli/foods\cinnamon_sroll.jpg	1	2	1	cinnamon_sroll	1	B	0	0	31	0		0	0	108.65185720002	108.751843800012
23926.5	0.0999880000017583	209	satiated	stimuli/non_foods\non-food_animate_young_girl.jpg	1	2	1	non-food_animate_young_girl	0	R	12	0	157	0		0	0	108.801855500031	108.901843500033
23964	0.0999885000055656	210	satiated	stimuli/foods\pineapple.jpg	1	2	1	pineapple	1	W	16	0	243	0		0	0	108.951856	109.051844500005
24001.5	0.0999548999825493	211	satiated	stimuli/foods\cucumber.jpg	1	2	1	cucumber	1	P	11	0	41	0		0	0	109.101882200048	109.20183710003
24039	0.099989700014703	212	satiated	stimuli/non_foods\non-food_animate_dachshund.jpg	1	2	1	non-food_animate_dachshund	0	F	3	0	104	0		0	0	109.251851800014	109.351841500029
24076.5	0.0999865000485443	213	satiated	stimuli/non_foods\non-food_inanimate_skirt.jpg	1	2	1	non-food_inanimate_skirt	0	D	2	0	209	0		0	0	109.401840200007	109.501826700056
24114	0.0999851999804378	214	satiated	stimuli/foods\fries.jpg	1	2	1	fries	1	A	19	1	52	0		0	0	109.551842800051	109.651828000031
24151.5	0.100010099995416	215	satiated	stimuli/non_foods\non-food_animate_student_female.jpg	1	2	1	non-food_animate_student_female	0	R	12	0	151	0		0	0	109.70182680001	109.801836900006
24189	0.100013400020543	216	satiated	stimuli/foods\lettuce.jpg	1	2	1	lettuce	1	P	11	0	75	0		0	0	109.851817700022	109.951831100043
24226.5	0.0999870000523515	217	satiated	stimuli/foods\cabbage.jpg	1	2	1	cabbage	1	W	16	0	16	0		0	0	110.001842700003	110.101829700056
24264	0.0999857999850065	218	satiated	stimuli/non_foods\non-food_inanimate_skateboard.jpg	1	2	1	non-food_inanimate_skateboard	0	K	7	0	208	0		0	0	110.151842100022	110.251827900007
24301.5	0.0999958000029437	219	satiated	stimuli/foods\croissant.jpg	1	2	1	croissant	1	D	2	0	40	1	a	0.743304100004025	1	110.301830300014	110.401826100016
24339	0.0999857000424527	220	satiated	stimuli/foods\nectarine.jpg	1	2	1	nectarine	1	W	16	0	87	0		0	0	110.4518408	110.551826500043
24376.5	0.0999920999747701	221	satiated	stimuli/non_foods\non-food_animate_camel.jpg	1	2	1	non-food_animate_camel	0	F	3	0	97	0		0	0	110.601829400053	110.701821500028
24414	0.100001799990423	222	satiated	stimuli/non_foods\non-food_animate_killer_whale.jpg	1	2	1	non-food_animate_killer_whale	0	M	9	0	123	0		0	0	110.751831700036	110.851833500026
24451.5	0.0999644999974407	223	satiated	stimuli/foods\hazelnuts.jpg	1	2	1	hazelnuts	1	B	0	0	65	0		0	0	110.901855600008	111.001820100006
24489	0.0999903000192717	224	satiated	stimuli/foods\red_beans.jpg	1	2	1	red_beans	1	M	9	0	255	0		0	0	111.051829700009	111.151820000028
24526.5	0.0999866999918595	225	satiated	stimuli/non_foods\non-food_inanimate_highlighter.jpg	1	2	1	non-food_inanimate_highlighter	0	S	13	0	189	0		0	0	111.201831900049	111.301818600041
24564	0.0999841999728233	226	satiated	stimuli/foods\apple.jpg	1	2	1	apple	1	W	16	0	1	0		0	0	111.351829500054	111.451813700027
24601.5	0.099985699984245	227	satiated	stimuli/non_foods\non-food_animate_giraffe.jpg	1	2	1	non-food_animate_giraffe	0	D	2	0	115	0		0	0	111.501824400038	111.601810100023
24639	0.0999869999941438	228	satiated	stimuli/non_foods\non-food_inanimate_jeans.jpg	1	2	1	non-food_inanimate_jeans	0	L	8	0	191	0		0	0	111.651822700049	111.751809700043
24676.5	0.0999868000508286	229	satiated	stimuli/non_foods\non-food_inanimate_waterlily.jpg	1	2	1	non-food_inanimate_waterlily	0	R	12	0	226	0		0	0	111.801821000001	111.901807800052
24714	0.0999884000048041	230	satiated	stimuli/non_foods\non-food_animate_iguana.jpg	1	2	1	non-food_animate_iguana	0	N	10	0	121	0		0	0	111.951818500005	112.05180690001
24751.5	0.099983699969016	231	satiated	stimuli/non_foods\non-food_inanimate_nettle.jpg	1	2	1	non-food_inanimate_nettle	0	T	14	0	197	0		0	0	112.101818800031	112.2018025
24789	0.0999861999880522	232	satiated	stimuli/non_foods\non-food_animate_frog.jpg	1	2	1	non-food_animate_frog	0	G	4	0	113	0		0	0	112.251815300027	112.351801500015
24826.5	0.0999861999880522	233	satiated	stimuli/non_foods\non-food_inanimate_speakers.jpg	1	2	1	non-food_inanimate_speakers	0	K	7	0	212	0		0	0	112.401813500037	112.501799700025
24864	0.099982799962163	234	satiated	stimuli/foods\rice_cake.jpg	1	2	1	rice_cake	1	W	16	0	258	0		0	0	112.551811000041	112.651793800003
24901.5	0.0999641999951564	235	satiated	stimuli/non_foods\non-food_animate_baby_crawling.jpg	1	2	1	non-food_animate_baby_crawling	0	N	10	0	92	0		0	0	112.701842400013	112.801806600008
24939	0.0999845999758691	236	satiated	stimuli/foods\oven-roasted_tomatoes.jpg	1	2	1	oven-roasted_tomatoes	1	D	2	0	232	0		0	0	112.85181100003	112.951795600005
24976.5	0.0999875999987125	237	satiated	stimuli/foods\almonds.jpg	1	2	1	almonds	1	N	10	0	0	0		0	0	113.001805800013	113.101793400012
25014	0.0999899000162259	238	satiated	stimuli/non_foods\non-food_inanimate_headphones.jpg	1	2	1	non-food_inanimate_headphones	0	B	0	0	188	0		0	0	113.151803200017	113.251793100033
25051.5	0.0999795999960043	239	satiated	stimuli/foods\chocolate_chip_cookies.jpg	1	2	1	chocolate_chip_cookies	1	W	16	0	27	0		0	0	113.301806600008	113.401786200004
25089	0.0999878000002354	240	satiated	stimuli/foods\celery.jpg	1	2	1	celery	1	Z	18	0	21	0		0	0	113.45180010004	113.55178790004
25126.5	0.0999882000032812	241	satiated	stimuli/non_foods\non-food_animate_dragonfly.jpg	1	2	1	non-food_animate_dragonfly	0	P	11	0	108	0		0	0	113.601801100012	113.701789300016
25164	0.100002399994992	242	satiated	stimuli/non_foods\non-food_inanimate_tent.jpg	1	2	1	non-food_inanimate_tent	0	H	5	0	219	0		0	0	113.751772200048	113.851774600043
25201.5	0.0999921000329778	243	satiated	stimuli/non_foods\non-food_inanimate_rack.jpg	1	2	1	non-food_inanimate_rack	0	R	12	0	202	0		0	0	113.901786500006	114.001778600039
25239	0.0999849999789149	244	satiated	stimuli/foods\oregano.jpg	1	2	1	oregano	1	Z	18	0	231	0		0	0	114.05178660003	114.151771600009
25276.5	0.099965000001248	245	satiated	stimuli/foods\grapes.jpg	1	2	1	grapes	1	N	10	0	60	0		0	0	114.201783400029	114.30174840003
25314	0.100000500038732	246	satiated	stimuli/non_foods\non-food_animate_yellow_bug.jpg	1	2	1	non-food_animate_yellow_bug	0	L	8	0	155	0		0	0	114.351792900008	114.451793400047
25351.5	0.0999509000102989	247	satiated	stimuli/non_foods\non-food_inanimate_table.jpg	1	2	1	non-food_inanimate_table	0	D	2	0	217	0		0	0	114.501813600014	114.601764500025
25389	0.0999866999918595	248	satiated	stimuli/foods\mussels.jpg	1	2	1	mussels	1	S	13	0	86	0		0	0	114.651780600019	114.751767300011
25426.5	0.0999835000257008	249	satiated	stimuli/foods\garlic.jpg	1	2	1	garlic	1	X	17	0	56	0		0	0	114.801776500011	114.901760000037
25464	0.0999844000325538	250	satiated	stimuli/foods\coffee_beans.jpg	1	2	1	coffee_beans	1	N	10	0	34	0		0	0	114.951773200009	115.051757600042
25501.5	0.0999860999872908	251	satiated	stimuli/foods\mushroom.jpg	1	2	1	mushroom	1	B	0	0	85	0		0	0	115.10177540005	115.201761500037
25539	0.0999848999781534	252	satiated	stimuli/non_foods\non-food_inanimate_towel.jpg	1	2	1	non-food_inanimate_towel	0	W	16	0	221	0		0	0	115.251771900046	115.351756800024
25576.5	0.0999830000218935	253	satiated	stimuli/non_foods\non-food_inanimate_drum_set.jpg	1	2	1	non-food_inanimate_drum_set	0	X	17	0	179	0		0	0	115.401772200014	115.501755200035
25614	0.0999863999895751	254	satiated	stimuli/foods\watermelon.jpg	1	2	1	watermelon	1	C	1	0	279	0		0	0	115.551766100049	115.651752500038
25651.5	0.0999837000272237	255	satiated	stimuli/non_foods\non-food_animate_snail.jpg	1	2	1	non-food_animate_snail	0	X	17	0	149	0		0	0	115.701765700011	115.801749400038
25689	0.100009300047532	256	satiated	stimuli/non_foods\non-food_animate_seal.jpg	1	2	1	non-food_animate_seal	0	F	3	0	146	0		0	0	115.851762300008	115.951771600056
25726.5	0.0999860999872908	257	satiated	stimuli/foods\fruit_pie.jpg	1	2	1	fruit_pie	1	K	7	0	54	0		0	0	116.00177110004	116.101757200027
25764	0.0999735000077635	258	satiated	stimuli/foods\green_olives.jpg	1	2	1	green_olives	1	L	8	0	62	0		0	0	116.151772300014	116.251745800022
25801.5	0.0999530999688432	259	satiated	stimuli/non_foods\non-food_inanimate_ring.jpg	1	2	1	non-food_inanimate_ring	0	D	2	0	203	0		0	0	116.301781200047	116.401734300016
25839	0.0999759000260383	260	satiated	stimuli/non_foods\non-food_inanimate_fire_extinguisher.jpg	1	2	1	non-food_inanimate_fire_extinguisher	0	J	6	0	181	0		0	0	116.451745100028	116.551721000054
25876.5	0.099987699999474	261	satiated	stimuli/foods\ice_cream.jpg	1	2	1	ice_cream	1	N	10	0	68	0		0	0	116.601755100011	116.701742800011
25914	0.099969599978067	262	satiated	stimuli/non_foods\non-food_animate_sea_lion.jpg	1	2	1	non-food_animate_sea_lion	0	Z	18	0	143	0		0	0	116.751761800027	116.851731400006
25951.5	0.100015000032727	263	satiated	stimuli/foods\beetroots.jpg	1	2	1	beetroots	1	W	16	0	10	0		0	0	116.901732099999	117.001747100032
25989	0.0999899000162259	264	satiated	stimuli/foods\pancakes.jpg	1	2	1	pancakes	1	D	2	0	234	0		0	0	117.051754800021	117.151744700037
26026.5	0.0999854999827221	265	satiated	stimuli/foods\linguine_with_clams.jpg	1	2	1	linguine_with_clams	1	J	6	0	77	0		0	0	117.201753700036	117.301739200018
26064	0.0999940000474453	266	satiated	stimuli/foods\tomato.jpg	1	2	1	tomato	1	X	17	0	276	0		0	0	117.351762200007	117.451756200055
26101.5	0.0999747000169009	267	satiated	stimuli/foods\steak.jpg	1	2	1	steak	1	E	20	1	270	0		0	0	117.501755500038	117.601730200055
26139	0.0999838000279851	268	satiated	stimuli/foods\egg.jpg	1	2	1	egg	1	M	9	0	45	0		0	0	117.651743600029	117.751727400057
26176.5	0.0999958000029437	269	satiated	stimuli/non_foods\non-food_animate_woman.jpg	1	2	1	non-food_animate_woman	0	X	17	0	154	0		0	0	117.801741600037	117.90173740004
26214	0.0999978000181727	270	satiated	stimuli/foods\savory_pie.jpg	1	2	1	savory_pie	1	M	9	0	265	0		0	0	117.951731100038	118.051728900056
26251.5	0.0999730000039563	271	satiated	stimuli/non_foods\non-food_inanimate_hammer.jpg	1	2	1	non-food_inanimate_hammer	0	V	15	0	186	0		0	0	118.101751500042	118.201724500046
26289	0.0999816000112332	272	satiated	stimuli/foods\wafer.jpg	1	2	1	wafer	1	Z	18	0	277	0		0	0	118.251737500017	118.351719100028
26326.5	0.0999824000173248	273	satiated	stimuli/non_foods\non-food_animate_young_boy.jpg	1	2	1	non-food_animate_young_boy	0	J	6	0	156	0		0	0	118.401736600033	118.501719000051
26364	0.0999726000009105	274	satiated	stimuli/foods\pear.jpg	1	2	1	pear	1	H	5	0	239	0		0	0	118.551728700055	118.651701300056
26401.5	0.0999841999728233	275	satiated	stimuli/non_foods\non-food_inanimate_pine_cone.jpg	1	2	1	non-food_inanimate_pine_cone	0	T	14	0	200	0		0	0	118.701739800046	118.801724000019
26439	0.099984799977392	276	satiated	stimuli/foods\peas.jpg	1	2	1	peas	1	P	11	0	240	0		0	0	118.851734800031	118.951719600009
26476.5	0.0999864999903366	277	satiated	stimuli/foods\pickles.jpg	1	2	1	pickles	1	J	6	0	242	0		0	0	119.001734000049	119.101720500039
26514	0.0999545999802649	278	satiated	stimuli/foods\raw_sausage.jpg	1	2	1	raw_sausage	1	W	16	0	254	0		0	0	119.15173610003	119.25169070001
26551.5	0.10000019997824	279	satiated	stimuli/foods\swordfish.jpg	1	2	1	swordfish	1	T	14	0	273	0		0	0	119.301719900046	119.401720100024
27705.75	0.0999782999861054	280	satiated	stimuli/non_foods\non-food_animate_rhino.jpg	1	3	1	non-food_animate_rhino	0	H	5	0	141	0		0	0	123.918346200022	124.018324500008
27743.25	0.0999813000089489	281	satiated	stimuli/foods\coffee_beans.jpg	1	3	1	coffee_beans	1	W	16	0	34	0		0	0	124.068341000006	124.168322300015
27780.75	0.0999849999789149	282	satiated	stimuli/non_foods\non-food_animate_penguin.jpg	1	3	1	non-food_animate_penguin	0	T	14	0	135	0		0	0	124.218336400052	124.318321400031
27818.25	0.0999863999895751	283	satiated	stimuli/non_foods\non-food_inanimate_jeans.jpg	1	3	1	non-food_inanimate_jeans	0	R	12	0	191	0		0	0	124.368332200043	124.468318600033
27855.75	0.0999810000066645	284	satiated	stimuli/non_foods\non-food_inanimate_alarm_clock.jpg	1	3	1	non-food_inanimate_alarm_clock	0	L	8	0	158	0		0	0	124.51833640004	124.618317400047
27893.25	0.100009400048293	285	satiated	stimuli/foods\cream_donuts.jpg	1	3	1	cream_donuts	1	P	11	0	39	0		0	0	124.668329100008	124.768338500056
27930.75	0.0999668000149541	286	satiated	stimuli/non_foods\non-food_animate_porcupine.jpg	1	3	1	non-food_animate_porcupine	0	G	4	0	138	0		0	0	124.818348600005	124.91831540002
27968.25	0.0999825999606401	287	satiated	stimuli/non_foods\non-food_inanimate_table.jpg	1	3	1	non-food_inanimate_table	0	L	8	0	217	0		0	0	124.968327400042	125.068310000002
28005.75	0.0999919000314549	288	satiated	stimuli/non_foods\non-food_animate_young_boy.jpg	1	3	1	non-food_animate_young_boy	0	M	9	0	156	0		0	0	125.118319600006	125.218311500037
28043.25	0.0999849000363611	289	satiated	stimuli/non_foods\non-food_inanimate_headphones.jpg	1	3	1	non-food_inanimate_headphones	0	B	0	0	188	0		0	0	125.268325400015	125.368310300051
28080.75	0.099985699984245	290	satiated	stimuli/non_foods\non-food_inanimate_rack.jpg	1	3	1	non-food_inanimate_rack	0	G	4	0	202	0		0	0	125.418322600017	125.518308300001
28118.25	0.0999774999800138	291	satiated	stimuli/foods\mortadella.jpg	1	3	1	mortadella	1	D	2	0	83	0		0	0	125.568329600035	125.668307100015
28155.75	0.0999833000241779	292	satiated	stimuli/foods\hazelnuts.jpg	1	3	1	hazelnuts	1	W	16	0	65	0		0	0	125.718317900028	125.818301200052
28193.25	0.0999891000101343	293	satiated	stimuli/foods\ice_cream.jpg	1	3	1	ice_cream	1	L	8	0	68	0		0	0	125.868311400001	125.968300500012
28230.75	0.0999819000135176	294	satiated	stimuli/foods\pork_and_rice.jpg	1	3	1	pork_and_rice	1	Z	18	0	245	0		0	0	126.018317300011	126.118299200025
28268.25	0.0999814000097103	295	satiated	stimuli/non_foods\non-food_animate_Causasian_man.jpg	1	3	1	non-food_animate_Causasian_man	0	G	4	0	89	0		0	0	126.168313700007	126.268295100017
28305.75	0.0999903999618255	296	satiated	stimuli/non_foods\non-food_inanimate_suitcase.jpg	1	3	1	non-food_inanimate_suitcase	0	F	3	0	215	0		0	0	126.318309000053	126.418299400015
28343.25	0.0999935999861918	297	satiated	stimuli/non_foods\non-food_animate_polar_bear.jpg	1	3	1	non-food_animate_polar_bear	0	C	1	0	137	0		0	0	126.468311300036	126.568304900022
28380.75	0.0999778999830596	298	satiated	stimuli/foods\raisins.jpg	1	3	1	raisins	1	B	0	0	252	0		0	0	126.618317700049	126.718295600032
28418.25	0.0999879000009969	299	satiated	stimuli/non_foods\non-food_animate_fox.jpg	1	3	1	non-food_animate_fox	0	X	17	0	112	0		0	0	126.768305600039	126.86829350004
28455.75	0.0999837999697775	300	satiated	stimuli/foods\museli_bars.jpg	1	3	1	museli_bars	1	P	11	0	84	0		0	0	126.918304500054	127.018288300023
28493.25	0.0999946999945678	301	satiated	stimuli/non_foods\non-food_inanimate_construction_helment.jpg	1	3	1	non-food_inanimate_construction_helment	0	T	14	0	175	0		0	0	127.068299800041	127.168294500036
28530.75	0.0999739000108093	302	satiated	stimuli/non_foods\non-food_animate_seal.jpg	1	3	1	non-food_animate_seal	0	Z	18	0	146	0		0	0	127.218312300043	127.318286200054
28568.25	0.0999852000386454	303	satiated	stimuli/non_foods\non-food_inanimate_nettle.jpg	1	3	1	non-food_inanimate_nettle	0	L	8	0	197	0		0	0	127.368298000016	127.468283200054
28605.75	0.0999853999819607	304	satiated	stimuli/foods\papaya.jpg	1	3	1	papaya	1	G	4	0	235	0		0	0	127.518298500043	127.618283900025
28643.25	0.0999835999682546	305	satiated	stimuli/foods\cracker.jpg	1	3	1	cracker	1	K	7	0	38	0		0	0	127.668296700052	127.768280300021
28680.75	0.0999864999903366	306	satiated	stimuli/non_foods\non-food_inanimate_chandelier.jpg	1	3	1	non-food_inanimate_chandelier	0	U	23	1	173	0		0	0	127.818291900039	127.91827840003
28718.25	0.0999867999926209	307	satiated	stimuli/non_foods\non-food_inanimate_nest.jpg	1	3	1	non-food_inanimate_nest	0	V	15	0	196	0		0	0	127.968290600053	128.068277400045
28755.75	0.0999889999511652	308	satiated	stimuli/non_foods\non-food_inanimate_drum_set.jpg	1	3	1	non-food_inanimate_drum_set	0	T	14	0	179	0		0	0	128.118287400051	128.218276400003
28793.25	0.0999883999465965	309	satiated	stimuli/non_foods\non-food_animate_runner.jpg	1	3	1	non-food_animate_runner	0	N	10	0	142	0		0	0	128.268284700054	128.368273100001
28830.75	0.0999862999888137	310	satiated	stimuli/foods\swordfish.jpg	1	3	1	swordfish	1	L	8	0	273	0		0	0	128.418285800028	128.518272100016
28868.25	0.0999831999652088	311	satiated	stimuli/non_foods\non-food_animate_dragonfly.jpg	1	3	1	non-food_animate_dragonfly	0	R	12	0	108	0		0	0	128.568286500056	128.668269700021
28905.75	0.099986599991098	312	satiated	stimuli/foods\toasted_bread_with_tomatoes.jpg	1	3	1	toasted_bread_with_tomatoes	1	K	7	0	275	0		0	0	128.71828000003	128.818266600021
28943.25	0.0999991999706253	313	satiated	stimuli/non_foods\non-food_inanimate_highlighter.jpg	1	3	1	non-food_inanimate_highlighter	0	X	17	0	189	0		0	0	128.868277400034	128.968276600004
28980.75	0.0999453999684192	314	satiated	stimuli/foods\red_beans.jpg	1	3	1	red_beans	1	R	12	0	255	0		0	0	129.018320300034	129.118265700003
29018.25	0.0999806000036187	315	satiated	stimuli/foods\radish.jpg	1	3	1	radish	1	C	1	0	251	0		0	0	129.168279300036	129.26825990004
29055.75	0.0999848999781534	316	satiated	stimuli/non_foods\non-food_inanimate_clover.jpg	1	3	1	non-food_inanimate_clover	0	S	13	0	174	0		0	0	129.318274200021	129.418259099999
29093.25	0.0999960000044666	317	satiated	stimuli/foods\pomegranate.jpg	1	3	1	pomegranate	1	R	12	0	244	0		0	0	129.468265500036	129.568261500041
29130.75	0.0999849000363611	318	satiated	stimuli/non_foods\non-food_inanimate_toilet.jpg	1	3	1	non-food_inanimate_toilet	0	N	10	0	220	0		0	0	129.618273200002	129.718258100038
29168.25	0.0999847000348382	319	satiated	stimuli/non_foods\non-food_animate_lizard.jpg	1	3	1	non-food_animate_lizard	0	P	11	0	126	0		0	0	129.768270900007	129.868255600042
29205.75	0.0999810000066645	320	satiated	stimuli/foods\risotto_with_zucchini.jpg	1	3	1	risotto_with_zucchini	1	R	12	0	260	0		0	0	129.918271300034	130.01825230004
29243.25	0.0999866999918595	321	satiated	stimuli/foods\lemon.jpg	1	3	1	lemon	1	J	6	0	72	0		0	0	130.06826280005	130.168249500042
29280.75	0.0999734000070021	322	satiated	stimuli/non_foods\non-food_inanimate_tulip.jpg	1	3	1	non-food_inanimate_tulip	0	R	12	0	224	0		0	0	130.218280100031	130.318253500038
29318.25	0.0999880000017583	323	satiated	stimuli/foods\hamburger.jpg	1	3	1	hamburger	1	W	16	0	64	0		0	0	130.368259300012	130.468247300014
29355.75	0.0999873999971896	324	satiated	stimuli/foods\fruit_pie.jpg	1	3	1	fruit_pie	1	M	9	0	54	0		0	0	130.518259400036	130.618246800033
29393.25	0.100009999994654	325	satiated	stimuli/foods\salmon.jpg	1	3	1	salmon	1	J	6	0	264	0		0	0	130.668262700026	130.768272700021
29430.75	0.0999409999931231	326	satiated	stimuli/foods\donut.jpg	1	3	1	donut	1	N	10	0	44	0		0	0	130.818301200052	130.918242200045
29468.25	0.0999891000101343	327	satiated	stimuli/foods\cherry.jpg	1	3	1	cherry	1	B	0	0	23	0		0	0	130.968253400002	131.068242500012
29505.75	0.099985699984245	328	satiated	stimuli/foods\fennel.jpg	1	3	1	fennel	1	K	7	0	47	0		0	0	131.118254500034	131.218240200018
29543.25	0.0999860999872908	329	satiated	stimuli/non_foods\non-food_animate_sea_turtle.jpg	1	3	1	non-food_animate_sea_turtle	0	V	15	0	144	0		0	0	131.268248800014	131.368234900001
29580.75	0.0999863999895751	330	satiated	stimuli/foods\honey.jpg	1	3	1	honey	1	H	5	0	66	0		0	0	131.418248200032	131.518234600022
29618.25	0.0999849999789149	331	satiated	stimuli/foods\egg.jpg	1	3	1	egg	1	L	8	0	45	0		0	0	131.56824750005	131.668232500029
29655.75	0.0999871999956667	332	satiated	stimuli/non_foods\non-food_animate_hummingbird.jpg	1	3	1	non-food_animate_hummingbird	0	V	15	0	120	0		0	0	131.718243400042	131.818230600038
29693.25	0.0999672000179999	333	satiated	stimuli/non_foods\non-food_inanimate_soccer_ball.jpg	1	3	1	non-food_inanimate_soccer_ball	0	S	13	0	210	0		0	0	131.868268300022	131.96823550004
29730.75	0.0999842999735847	334	satiated	stimuli/foods\cereal.jpg	1	3	1	cereal	1	C	1	0	22	0		0	0	132.018243200029	132.118227500003
29768.25	0.0999873999971896	335	satiated	stimuli/foods\prawn.jpg	1	3	1	prawn	1	N	10	0	249	0		0	0	132.168232100026	132.268219500023
29805.75	0.0999837999697775	336	satiated	stimuli/foods\strawberry.jpg	1	3	1	strawberry	1	T	14	0	272	0		0	0	132.31823850004	132.41822230001
29843.25	0.100008000037633	337	satiated	stimuli/foods\pineapple.jpg	1	3	1	pineapple	1	D	2	0	243	0		0	0	132.468237699999	132.568245700037
29880.75	0.0999446999630891	338	satiated	stimuli/foods\gnocchi.jpg	1	3	1	gnocchi	1	B	0	0	58	0		0	0	132.618272100051	132.718216800014
29918.25	0.0999805000028573	339	satiated	stimuli/foods\wafer.jpg	1	3	1	wafer	1	U	23	1	277	0		0	0	132.768226900022	132.868207400024
29955.75	0.0999959000037052	340	satiated	stimuli/non_foods\non-food_inanimate_broom.jpg	1	3	1	non-food_inanimate_broom	0	K	7	0	164	0		0	0	132.918224100024	133.018220000027
29993.25	0.0999822000158019	341	satiated	stimuli/foods\potato_and_green_bean_salad.jpg	1	3	1	potato_and_green_bean_salad	1	H	5	0	246	0		0	0	133.068234100007	133.168216300022
30030.75	0.0999860999872908	342	satiated	stimuli/foods\asparagus.jpg	1	3	1	asparagus	1	R	12	0	4	0		0	0	133.218228200043	133.31821430003
30068.25	0.0999797999975272	343	satiated	stimuli/foods\savory_pie.jpg	1	3	1	savory_pie	1	F	3	0	265	0		0	0	133.36822480004	133.468204600038
30105.75	0.0999835000257008	344	satiated	stimuli/foods\pepperoni_pizza.jpg	1	3	1	pepperoni_pizza	1	R	12	0	241	0		0	0	133.518225100008	133.618208600034
30143.25	0.0999867999926209	345	satiated	stimuli/non_foods\non-food_animate_camel.jpg	1	3	1	non-food_animate_camel	0	M	9	0	97	0		0	0	133.668237500009	133.768224300002
30180.75	0.0999833000241779	346	satiated	stimuli/non_foods\non-food_animate_eagle.jpg	1	3	1	non-food_animate_eagle	0	R	12	0	110	1	a	1.14182090002578	1	133.818225499999	133.918208800023
30218.25	0.0999851999804378	347	satiated	stimuli/non_foods\non-food_inanimate_ring.jpg	1	3	1	non-food_inanimate_ring	0	W	16	0	203	0		0	0	133.968219000031	134.068204200012
30255.75	0.0999849999789149	348	satiated	stimuli/non_foods\non-food_animate_bee.jpg	1	3	1	non-food_animate_bee	0	Z	18	0	95	0		0	0	134.118217700045	134.218202700024
30293.25	0.100002599996515	349	satiated	stimuli/non_foods\non-food_inanimate_cupboard.jpg	1	3	1	non-food_inanimate_cupboard	0	B	0	0	177	0		0	0	134.268217000004	134.368219600001
30330.75	0.0999615999753587	350	satiated	stimuli/foods\lemon_meringue_pie.jpg	1	3	1	lemon_meringue_pie	1	V	15	0	73	0		0	0	134.418232000025	134.518193600001
30368.25	0.0999875999987125	351	satiated	stimuli/foods\roasted_chicken.jpg	1	3	1	roasted_chicken	1	C	1	0	261	0		0	0	134.568212600017	134.668200200016
30405.75	0.0999581000069156	352	satiated	stimuli/non_foods\non-food_inanimate_bucket.jpg	1	3	1	non-food_inanimate_bucket	0	S	13	0	165	0		0	0	134.718211500032	134.818169600039
30443.25	0.099985699984245	353	satiated	stimuli/non_foods\non-food_animate_green_bug.jpg	1	3	1	non-food_animate_green_bug	0	V	15	0	118	0		0	0	134.868208600034	134.968194300018
30480.75	0.0999835000257008	354	satiated	stimuli/foods\apricot.jpg	1	3	1	apricot	1	T	14	0	2	0		0	0	135.018209700007	135.118193200033
30518.25	0.0999851999804378	355	satiated	stimuli/non_foods\non-food_inanimate_teddy_bear.jpg	1	3	1	non-food_inanimate_teddy_bear	0	V	15	0	218	0		0	0	135.168202100031	135.268187300011
30555.75	0.0999932999839075	356	satiated	stimuli/non_foods\non-food_animate_chicken.jpg	1	3	1	non-food_animate_chicken	0	J	6	0	101	0		0	0	135.318194300053	135.418187600037
30593.25	0.0999697000370361	357	satiated	stimuli/non_foods\non-food_inanimate_rope.jpg	1	3	1	non-food_inanimate_rope	0	S	13	0	204	0		0	0	135.468216800014	135.568186500052
30630.75	0.0999863000470214	358	satiated	stimuli/non_foods\non-food_inanimate_grass.jpg	1	3	1	non-food_inanimate_grass	0	X	17	0	184	0		0	0	135.6181966	135.718182900047
30668.25	0.100000699982047	359	satiated	stimuli/non_foods\non-food_animate_deer.jpg	1	3	1	non-food_animate_deer	0	V	15	0	105	0		0	0	135.768185000052	135.868185700034
30705.75	0.099984799977392	360	satiated	stimuli/non_foods\non-food_inanimate_tree.jpg	1	3	1	non-food_inanimate_tree	0	S	13	0	223	0		0	0	135.918194300029	136.018179100007
30743.25	0.10000570002012	361	satiated	stimuli/non_foods\non-food_animate_millipede.jpg	1	3	1	non-food_animate_millipede	0	N	10	0	129	0		0	0	136.06819770002	136.168203400041
30780.75	0.0999449000228196	362	satiated	stimuli/foods\mushroom.jpg	1	3	1	mushroom	1	L	8	0	85	0		0	0	136.218230099999	136.318175000022
30818.25	0.0999873999971896	363	satiated	stimuli/non_foods\non-food_inanimate_buds.jpg	1	3	1	non-food_inanimate_buds	0	D	2	0	166	0		0	0	136.368188200053	136.46817560005
30855.75	0.099984000029508	364	satiated	stimuli/non_foods\non-food_inanimate_socks.jpg	1	3	1	non-food_inanimate_socks	0	P	11	0	211	0		0	0	136.518189000024	136.618173000054
30893.25	0.099985699984245	365	satiated	stimuli/foods\pasta_carbonara.jpg	1	3	1	pasta_carbonara	1	H	5	0	236	0		0	0	136.668185900024	136.768171600008
30930.75	0.0999895000131801	366	satiated	stimuli/foods\cooked_prawn.jpg	1	3	1	cooked_prawn	1	S	13	0	36	0		0	0	136.81818110001	136.918170600024
30968.25	0.0999818999553099	367	satiated	stimuli/non_foods\non-food_inanimate_cap.jpg	1	3	1	non-food_inanimate_cap	0	W	16	0	171	0		0	0	136.96818330005	137.068165200006
31005.75	0.0999874999979511	368	satiated	stimuli/non_foods\non-food_inanimate_tent.jpg	1	3	1	non-food_inanimate_tent	0	V	15	0	219	0		0	0	137.118176600023	137.218164100021
31043.25	0.0999614999745972	369	satiated	stimuli/foods\fruit_salad.jpg	1	3	1	fruit_salad	1	Z	18	0	55	0		0	0	137.268205900036	137.368167400011
31080.75	0.099986599991098	370	satiated	stimuli/foods\cucumber.jpg	1	3	1	cucumber	1	B	0	0	41	0		0	0	137.418173600046	137.518160200038
31118.25	0.0999868999933824	371	satiated	stimuli/foods\waffle.jpg	1	3	1	waffle	1	C	1	0	278	0		0	0	137.568174900021	137.668161800015
31155.75	0.0999859999865294	372	satiated	stimuli/foods\hotdog.jpg	1	3	1	hotdog	1	E	20	1	67	0		0	0	137.718172000023	137.818158000009
31193.25	0.100027200009208	373	satiated	stimuli/non_foods\non-food_animate_Asian_man.jpg	1	3	1	non-food_animate_Asian_man	0	L	8	0	88	0		0	0	137.868171300041	137.96819850005
31230.75	0.0999861999880522	374	satiated	stimuli/foods\taco.jpg	1	3	1	taco	1	N	10	0	274	0		0	0	138.018169100047	138.118155300035
31268.25	0.0999875999987125	375	satiated	stimuli/foods\rice.jpg	1	3	1	rice	1	K	7	0	257	0		0	0	138.168165400042	138.268153000041
31305.75	0.0999889000086114	376	satiated	stimuli/foods\blackberry.jpg	1	3	1	blackberry	1	N	10	0	11	1	a	0.593198899994604	1	138.318165600009	138.418154500017
31343.25	0.099989700014703	377	satiated	stimuli/non_foods\non-food_inanimate_leaf.jpg	1	3	1	non-food_inanimate_leaf	0	H	5	0	192	0		0	0	138.468166400038	138.568156100053
31380.75	0.0999901000177488	378	satiated	stimuli/foods\chestnut.jpg	1	3	1	chestnut	1	T	14	0	24	0		0	0	138.618159500009	138.718149600027
31418.25	0.0999894000124186	379	satiated	stimuli/foods\pickles.jpg	1	3	1	pickles	1	S	13	0	242	0		0	0	138.768159800034	138.868149200047
31455.75	0.0999853000394069	380	satiated	stimuli/foods\celery.jpg	1	3	1	celery	1	V	15	0	21	0		0	0	138.918160100002	139.018145400041
31493.25	0.0999661000096239	381	satiated	stimuli/foods\rockmelon.jpg	1	3	1	rockmelon	1	L	8	0	262	0		0	0	139.068175700027	139.168141800037
31530.75	0.0999740000115708	382	satiated	stimuli/foods\cinnamon.jpg	1	3	1	cinnamon	1	H	5	0	30	0		0	0	139.21815770003	139.318131700042
31568	0.0999859999865294	383	satiated	stimuli/non_foods\non-food_inanimate_canoe.jpg	1	3	1	non-food_inanimate_canoe	0	G	4	0	170	0		0	0	139.368142500054	139.468128500041
31605.5	0.10000710003078	384	satiated	stimuli/non_foods\non-food_animate_alligator.jpg	1	3	1	non-food_animate_alligator	0	J	6	0	90	0		0	0	139.518142500019	139.61814960005
31643.25	0.0999681999674067	385	satiated	stimuli/foods\oregano.jpg	1	3	1	oregano	1	Z	18	0	231	0		0	0	139.668158500048	139.768126700015
31680.5	0.0999757000245154	386	satiated	stimuli/non_foods\non-food_animate_killer_whale.jpg	1	3	1	non-food_animate_killer_whale	0	M	9	0	123	0		0	0	139.818141700001	139.918117400026
31718	0.100002599996515	387	satiated	stimuli/non_foods\non-food_animate_skunk.jpg	1	3	1	non-food_animate_skunk	0	G	4	0	147	0		0	0	139.968131400004	140.068134000001
31755.75	0.0999868999933824	388	satiated	stimuli/foods\raw_ham.jpg	1	3	1	raw_ham	1	K	7	0	253	0		0	0	140.11814430001	140.218131200003
31793.25	0.0999867000500672	389	satiated	stimuli/foods\coconut.jpg	1	3	1	coconut	1	T	14	0	33	0		0	0	140.268140700005	140.368127400056
31830.75	0.0999828000203706	390	satiated	stimuli/foods\lime.jpg	1	3	1	lime	1	B	0	0	76	0		0	0	140.418141500035	140.518124300055
31868.25	0.0999864999903366	391	satiated	stimuli/non_foods\non-food_animate_owl.jpg	1	3	1	non-food_animate_owl	0	D	2	0	132	0		0	0	140.568139000039	140.668125500029
31905.75	0.0999862999888137	392	satiated	stimuli/foods\tomato.jpg	1	3	1	tomato	1	X	17	0	276	0		0	0	140.718141700025	140.818128000014
31943.25	0.0999814000097103	393	satiated	stimuli/non_foods\non-food_animate_dolphin.jpg	1	3	1	non-food_animate_dolphin	0	M	9	0	106	0		0	0	140.86813800002	140.96811940003
31980.75	0.0999867000500672	394	satiated	stimuli/foods\linguine_with_clams.jpg	1	3	1	linguine_with_clams	1	K	7	0	77	0		0	0	141.0181324	141.118119100051
32018.25	0.0999834000249393	395	satiated	stimuli/foods\fried_calamari.jpg	1	3	1	fried_calamari	1	W	16	0	50	0		0	0	141.168132000021	141.268115400046
32055.75	0.0999890000093728	396	satiated	stimuli/non_foods\non-food_inanimate_fire_extinguisher.jpg	1	3	1	non-food_inanimate_fire_extinguisher	0	E	20	1	181	0		0	0	141.318128200015	141.418117200024
32093.25	0.0999683000263758	397	satiated	stimuli/foods\lamb_chops.jpg	1	3	1	lamb_chops	1	H	5	0	70	0		0	0	141.468149600027	141.568117900053
32130.75	0.0999870999949053	398	satiated	stimuli/foods\spaghetti_with_meat_sauce.jpg	1	3	1	spaghetti_with_meat_sauce	1	T	14	0	267	0		0	0	141.618126100046	141.718113200041
32168.25	0.0999883000040427	399	satiated	stimuli/non_foods\non-food_animate_pigeon.jpg	1	3	1	non-food_animate_pigeon	0	X	17	0	136	0		0	0	141.768122500041	141.868110800046
32205.5	0.0999917999724858	400	satiated	stimuli/non_foods\non-food_animate_clown.jpg	1	3	1	non-food_animate_clown	0	H	5	0	102	0		0	0	141.918119600043	142.018111400015
32243	0.0999844000325538	401	satiated	stimuli/non_foods\non-food_animate_ant.jpg	1	3	1	non-food_animate_ant	0	V	15	0	91	0		0	0	142.068119700009	142.168104100041
32280.5	0.0999874999979511	402	satiated	stimuli/foods\bagel.jpg	1	3	1	bagel	1	F	3	0	6	0		0	0	142.218119300029	142.318106800027
32318.25	0.0999832999659702	403	satiated	stimuli/non_foods\non-food_inanimate_toy_airplane.jpg	1	3	1	non-food_inanimate_toy_airplane	0	S	13	0	222	0		0	0	142.36811900005	142.468102300016
32355.75	0.0999868999933824	404	satiated	stimuli/non_foods\non-food_animate_llama.jpg	1	3	1	non-food_animate_llama	0	H	5	0	127	0		0	0	142.51811470004	142.618101600034
32393	0.099999200028833	405	satiated	stimuli/non_foods\non-food_animate_parrot.jpg	1	3	1	non-food_animate_parrot	0	P	11	0	133	0		0	0	142.668092600012	142.768091800041
32430.5	0.0999880000017583	406	satiated	stimuli/foods\beetroots.jpg	1	3	1	beetroots	1	V	15	0	10	0		0	0	142.818102100049	142.918090100051
32468	0.0999903000192717	407	satiated	stimuli/non_foods\non-food_inanimate_waterlily.jpg	1	3	1	non-food_inanimate_waterlily	0	J	6	0	226	0		0	0	142.968103600026	143.068093900045
32505.5	0.0999892000108957	408	satiated	stimuli/foods\chocolate_chip_cookies.jpg	1	3	1	chocolate_chip_cookies	1	P	11	0	27	0		0	0	143.118101200031	143.218090400042
32543	0.0999719999963418	409	satiated	stimuli/non_foods\non-food_animate_dachshund.jpg	1	3	1	non-food_animate_dachshund	0	V	15	0	104	0		0	0	143.268110800011	143.368082800007
32580.5	0.0999795999960043	410	satiated	stimuli/foods\apple.jpg	1	3	1	apple	1	W	16	0	1	0		0	0	143.418094900029	143.518074500025
32618	0.100002199993469	411	satiated	stimuli/non_foods\non-food_animate_elephant.jpg	1	3	1	non-food_animate_elephant	0	B	0	0	111	0		0	0	143.568086800049	143.668089000043
32655.5	0.099988600006327	412	satiated	stimuli/non_foods\non-food_animate_german_shepherd.jpg	1	3	1	non-food_animate_german_shepherd	0	R	12	0	114	0		0	0	143.718098500045	143.818087100051
32693	0.0999845999758691	413	satiated	stimuli/foods\capsicum.jpg	1	3	1	capsicum	1	N	10	0	18	0		0	0	143.868102000037	143.968086600013
32730.5	0.0999890999519266	414	satiated	stimuli/non_foods\non-food_animate_mammoth.jpg	1	3	1	non-food_animate_mammoth	0	F	3	0	128	0		0	0	144.01809300005	144.118082100002
32768	0.0999895000131801	415	satiated	stimuli/foods\meatballs.jpg	1	3	1	meatballs	1	N	10	0	81	0		0	0	144.168092800013	144.268082300026
32805.75	0.099982799962163	416	satiated	stimuli/foods\stew_with_potatoes_and_carrots.jpg	1	3	1	stew_with_potatoes_and_carrots	1	H	5	0	271	0		0	0	144.318094300048	144.41807710001
32843	0.0999860999872908	417	satiated	stimuli/foods\corncob.jpg	1	3	1	corncob	1	L	8	0	37	1	a	0	0	144.468091400049	144.568077500036
32880.5	0.099986000044737	418	satiated	stimuli/foods\grilled_chicken_breast.jpg	1	3	1	grilled_chicken_breast	1	M	9	0	63	0		0	0	144.618090400007	144.718076400051
32918	0.0999848000355996	419	satiated	stimuli/non_foods\non-food_animate_raccoon.jpg	1	3	1	non-food_animate_raccoon	0	D	2	0	139	0		0	0	144.768088700017	144.868073500053
33880.5	0.0999759999685921	420	satiated	stimuli/foods\chocolate_bar.jpg	1	4	1	chocolate_bar	1	C	1	0	26	0		0	0	148.618048500037	148.718024500005
33918	0.0999864999903366	421	satiated	stimuli/foods\red_cabbage.jpg	1	4	1	red_cabbage	1	R	12	0	256	0		0	0	148.768039900053	148.868026400043
33955.5	0.0999641999951564	422	satiated	stimuli/non_foods\non-food_inanimate_stoplight.jpg	1	4	1	non-food_inanimate_stoplight	0	M	9	0	214	0		0	0	148.918057400035	149.01802160003
33993	0.0999864000477828	423	satiated	stimuli/foods\risotto_with_peas_and_asparagus_tips.jpg	1	4	1	risotto_with_peas_and_asparagus_tips	1	P	11	0	259	0		0	0	149.068034900003	149.168021300051
34030.5	0.0999837999697775	424	satiated	stimuli/foods\baked_cod_with_carrots_and_green_beans.jpg	1	4	1	baked_cod_with_carrots_and_green_beans	1	F	3	0	7	0		0	0	149.218038600055	149.318022400024
34068	0.0999837000272237	425	satiated	stimuli/foods\steak.jpg	1	4	1	steak	1	D	2	0	270	0		0	0	149.368030700018	149.468014400045
34105.5	0.100029100023676	426	satiated	stimuli/non_foods\non-food_animate_horse.jpg	1	4	1	non-food_animate_horse	0	T	14	0	119	0		0	0	149.518033900007	149.618063000031
34143	0.0999702000408433	427	satiated	stimuli/non_foods\non-food_inanimate_button.jpg	1	4	1	non-food_inanimate_button	0	R	12	0	168	0		0	0	149.668046900013	149.768017100054
34180.5	0.0999850000371225	428	satiated	stimuli/foods\dates.jpg	1	4	1	dates	1	S	13	0	43	0		0	0	149.818027500005	149.918012500042
34218	0.0999769000336528	429	satiated	stimuli/non_foods\non-food_animate_gorilla.jpg	1	4	1	non-food_animate_gorilla	0	R	12	0	116	0		0	0	149.968023599999	150.068000500032
34255.5	0.0999763000290841	430	satiated	stimuli/non_foods\non-food_inanimate_wrench.jpg	1	4	1	non-food_inanimate_wrench	0	M	9	0	227	0		0	0	150.118014900014	150.217991200043
34293	0.100014300027397	431	satiated	stimuli/non_foods\non-food_animate_cow.jpg	1	4	1	non-food_animate_cow	0	V	15	0	103	0		0	0	150.267995500006	150.368009800033
34330.5	0.0999867999926209	432	satiated	stimuli/foods\cauliflower.jpg	1	4	1	cauliflower	1	K	7	0	20	0		0	0	150.418021300051	150.518008100044
34368	0.099994299991522	433	satiated	stimuli/non_foods\non-food_inanimate_shell.jpg	1	4	1	non-food_inanimate_shell	0	C	1	0	206	0		0	0	150.568016300036	150.668010600028
34405.5	0.0999625999829732	434	satiated	stimuli/non_foods\non-food_inanimate_bed.jpg	1	4	1	non-food_inanimate_bed	0	P	11	0	160	0		0	0	150.718042400025	150.818005000008
34443	0.0999834000249393	435	satiated	stimuli/foods\almonds.jpg	1	4	1	almonds	1	G	4	0	0	0		0	0	150.868016300024	150.967999700049
34480.75	0.099967000016477	436	satiated	stimuli/foods\brie.jpg	1	4	1	brie	1	Z	18	0	12	0		0	0	151.018058700021	151.118025700038
34518	0.100033800001256	437	satiated	stimuli/foods\lasagna.jpg	1	4	1	lasagna	1	G	4	0	71	0		0	0	151.168001600017	151.268035400019
34555.75	0.0999558999901637	438	satiated	stimuli/non_foods\non-food_animate_young_girl.jpg	1	4	1	non-food_animate_young_girl	0	Z	18	0	157	0		0	0	151.318054800038	151.418010700028
34593	0.0999583000084385	439	satiated	stimuli/non_foods\non-food_inanimate_gloves.jpg	1	4	1	non-food_inanimate_gloves	0	G	4	0	183	0		0	0	151.468028800038	151.567987100047
34630.5	0.100013700022828	440	satiated	stimuli/non_foods\non-food_animate_woman.jpg	1	4	1	non-food_animate_woman	0	R	12	0	154	0		0	0	151.617983500008	151.71799720003
34668	0.0999838000279851	441	satiated	stimuli/foods\ginger_root.jpg	1	4	1	ginger_root	1	S	13	0	57	0		0	0	151.768005600024	151.867989400052
34705.5	0.0999748000176623	442	satiated	stimuli/non_foods\non-food_animate_slug.jpg	1	4	1	non-food_animate_slug	0	G	4	0	148	0		0	0	151.91800060001	152.017975400027
34743	0.0999881000025198	443	satiated	stimuli/non_foods\non-food_animate_lion.jpg	1	4	1	non-food_animate_lion	0	L	8	0	125	0		0	0	152.067997700011	152.167985800013
34780.5	0.0999841999728233	444	satiated	stimuli/foods\green_beans.jpg	1	4	1	green_beans	1	W	16	0	61	0		0	0	152.217991700047	152.31797590002
34818	0.0999760999693535	445	satiated	stimuli/foods\kiwi.jpg	1	4	1	kiwi	1	P	11	0	69	0		0	0	152.367981800053	152.467957900022
34855.5	0.0999845000333153	446	satiated	stimuli/non_foods\non-food_inanimate_short_sleeved_shirt.jpg	1	4	1	non-food_inanimate_short_sleeved_shirt	0	V	15	0	207	0		0	0	152.517988300009	152.617972800042
34893	0.0999899000162259	447	satiated	stimuli/non_foods\non-food_inanimate_fern.jpg	1	4	1	non-food_inanimate_fern	0	W	16	0	180	0		0	0	152.667985000007	152.767974900024
34930.5	0.0999958000029437	448	satiated	stimuli/non_foods\non-food_animate_tortoise.jpg	1	4	1	non-food_animate_tortoise	0	Z	18	0	153	0		0	0	152.817980799999	152.917976600002
34968	0.0999782999861054	449	satiated	stimuli/foods\lollies.jpg	1	4	1	lollies	1	P	11	0	78	0		0	0	152.967990000034	153.06796830002
35005.5	0.100000399979763	450	satiated	stimuli/non_foods\non-food_animate_swan.jpg	1	4	1	non-food_animate_swan	0	X	17	0	152	0		0	0	153.117993700027	153.217994100007
35043	0.0999541999772191	451	satiated	stimuli/non_foods\non-food_animate_sea_lion.jpg	1	4	1	non-food_animate_sea_lion	0	H	5	0	143	0		0	0	153.268017300055	153.367971500033
35080.5	0.0999911999679171	452	satiated	stimuli/foods\peas.jpg	1	4	1	peas	1	P	11	0	240	0		0	0	153.417983300053	153.517974500021
35118	0.0999740000115708	453	satiated	stimuli/non_foods\non-food_animate_giraffe.jpg	1	4	1	non-food_animate_giraffe	0	R	12	0	115	0		0	0	153.567983900022	153.667957900034
35155.5	0.0999570999993011	454	satiated	stimuli/non_foods\non-food_inanimate_hay.jpg	1	4	1	non-food_inanimate_hay	0	P	11	0	187	0		0	0	153.717981100024	153.817938200023
35193	0.0999809000059031	455	satiated	stimuli/non_foods\non-food_animate_frog.jpg	1	4	1	non-food_animate_frog	0	R	12	0	113	0		0	0	153.86797880003	153.967959700036
35230.5	0.0999912999686785	456	satiated	stimuli/foods\grapefruits.jpg	1	4	1	grapefruits	1	B	0	0	59	0		0	0	154.017977800046	154.117969100014
35268	0.0999860999872908	457	satiated	stimuli/non_foods\non-food_inanimate_skirt.jpg	1	4	1	non-food_inanimate_skirt	0	K	7	0	209	0		0	0	154.167974500044	154.267960600031
35305.5	0.0999853000394069	458	satiated	stimuli/foods\fruit_flan.jpg	1	4	1	fruit_flan	1	X	17	0	53	0		0	0	154.317973900004	154.417959200044
35343	0.099985100037884	459	satiated	stimuli/foods\avocado.jpg	1	4	1	avocado	1	V	15	0	5	0		0	0	154.46797160001	154.567956700048
35380.5	0.0999859999865294	460	satiated	stimuli/foods\artichoke.jpg	1	4	1	artichoke	1	T	14	0	3	0		0	0	154.617969600018	154.717955600005
35418	0.0999880000017583	461	satiated	stimuli/foods\clams.jpg	1	4	1	clams	1	B	0	0	32	0		0	0	154.767967100022	154.867955100024
35455.5	0.0999940999899991	462	satiated	stimuli/foods\spinach.jpg	1	4	1	spinach	1	T	14	0	268	0		0	0	154.917964500026	155.017958600016
35493	0.0999779999838211	463	satiated	stimuli/non_foods\non-food_inanimate_padlock.jpg	1	4	1	non-food_inanimate_padlock	0	V	15	0	199	0		0	0	155.067972700053	155.167950700037
35530.5	0.0999855999834836	464	satiated	stimuli/foods\lettuce.jpg	1	4	1	lettuce	1	N	10	0	75	0		0	0	155.217960600043	155.317946200026
35568	0.0999873999971896	465	satiated	stimuli/foods\cupcake.jpg	1	4	1	cupcake	1	D	2	0	42	0		0	0	155.367958400049	155.467945800046
35605.5	0.0999930999823846	466	satiated	stimuli/non_foods\non-food_animate_snail.jpg	1	4	1	non-food_animate_snail	0	C	1	0	149	0		0	0	155.517955700052	155.617948800034
35643	0.100002399994992	467	satiated	stimuli/non_foods\non-food_animate_squirrel.jpg	1	4	1	non-food_animate_squirrel	0	K	7	0	150	0		0	0	155.667940500018	155.767942900013
35680.5	0.0999911000253633	468	satiated	stimuli/non_foods\non-food_inanimate_lighter.jpg	1	4	1	non-food_inanimate_lighter	0	C	1	0	193	0		0	0	155.817953600024	155.91794470005
35718	0.0999980999622494	469	satiated	stimuli/non_foods\non-food_animate_bat.jpg	1	4	1	non-food_animate_bat	0	M	9	0	94	0		0	0	155.967952700041	156.067950800003
35755.5	0.0999882000032812	470	satiated	stimuli/non_foods\non-food_inanimate_pine_cone.jpg	1	4	1	non-food_inanimate_pine_cone	0	C	1	0	200	0		0	0	156.117950500047	156.217938700051
35793	0.0999710000469349	471	satiated	stimuli/non_foods\non-food_inanimate_hammer.jpg	1	4	1	non-food_inanimate_hammer	0	J	6	0	186	0		0	0	156.267949100002	156.367920100049
35830.5	0.0999795999960043	472	satiated	stimuli/foods\omelette.jpg	1	4	1	omelette	1	V	15	0	228	0		0	0	156.417949900031	156.517929500027
35868	0.100008400040679	473	satiated	stimuli/foods\cooked_ham.jpg	1	4	1	cooked_ham	1	D	2	0	35	0		0	0	156.567936200008	156.667944600049
35905.5	0.0999923999770544	474	satiated	stimuli/non_foods\non-food_animate_butterfly.jpg	1	4	1	non-food_animate_butterfly	0	T	14	0	96	0		0	0	156.717936100031	156.817928500008
35943	0.0999791999929585	475	satiated	stimuli/non_foods\non-food_inanimate_watering_can.jpg	1	4	1	non-food_inanimate_watering_can	0	N	10	0	225	0		0	0	156.867924600025	156.967903800018
35980.5	0.0999866000493057	476	satiated	stimuli/non_foods\non-food_animate_donkey.jpg	1	4	1	non-food_animate_donkey	0	X	17	0	107	0		0	0	157.017941700004	157.117928300053
36018	0.0999859000439756	477	satiated	stimuli/non_foods\non-food_inanimate_stapler.jpg	1	4	1	non-food_inanimate_stapler	0	Z	18	0	213	0		0	0	157.167939700012	157.267925600056
36055.5	0.0999813000089489	478	satiated	stimuli/foods\fried_zucchini.jpg	1	4	1	fried_zucchini	1	W	16	0	51	0		0	0	157.3179351	157.417916400009
36093	0.0999857999850065	479	satiated	stimuli/foods\mussels.jpg	1	4	1	mussels	1	C	1	0	86	0		0	0	157.46793470002	157.567920500005
36130.5	0.0999882000032812	480	satiated	stimuli/foods\raw_sausage.jpg	1	4	1	raw_sausage	1	T	14	0	254	0		0	0	157.617927400046	157.717915600049
36168	0.0999912999686785	481	satiated	stimuli/foods\brownie.jpg	1	4	1	brownie	1	W	16	0	14	0		0	0	157.76793120004	157.867922500009
36205.5	0.099996300006751	482	satiated	stimuli/non_foods\non-food_animate_ram.jpg	1	4	1	non-food_animate_ram	0	B	0	0	140	0		0	0	157.917923000001	158.017919300008
36243	0.0999903999618255	483	satiated	stimuli/foods\carrot.jpg	1	4	1	carrot	1	I	21	1	19	0		0	0	158.067925200041	158.167915600003
36280.5	0.099968800030183	484	satiated	stimuli/foods\brussel_sprouts.jpg	1	4	1	brussel_sprouts	1	W	16	0	15	0		0	0	158.217926900019	158.317895700049
36318	0.100016799988225	485	satiated	stimuli/non_foods\non-food_animate_seahorse.jpg	1	4	1	non-food_animate_seahorse	0	H	5	0	145	0		0	0	158.367900600017	158.467917400005
36355.5	0.0999099999899045	486	satiated	stimuli/foods\eggplant.jpg	1	4	1	eggplant	1	X	17	0	46	0		0	0	158.517989000014	158.617899000004
36393	0.0999835999682546	487	satiated	stimuli/foods\nectarine.jpg	1	4	1	nectarine	1	G	4	0	87	0		0	0	158.667914300051	158.767897900019
36430.5	0.0999848999781534	488	satiated	stimuli/foods\watermelon.jpg	1	4	1	watermelon	1	P	11	0	279	0		0	0	158.817911400052	158.91789630003
36468	0.0999825000180863	489	satiated	stimuli/non_foods\non-food_inanimate_folding_chair.jpg	1	4	1	non-food_inanimate_folding_chair	0	B	0	0	182	0		0	0	158.967913800036	159.067896300054
36505.5	0.0999810000066645	490	satiated	stimuli/non_foods\non-food_inanimate_skateboard.jpg	1	4	1	non-food_inanimate_skateboard	0	S	13	0	208	0		0	0	159.117909700028	159.217890700034
36543	0.0999998000334017	491	satiated	stimuli/foods\pumpkin.jpg	1	4	1	pumpkin	1	L	8	0	250	0		0	0	159.267903900007	159.36790370004
36580.5	0.0999533999711275	492	satiated	stimuli/foods\minestrone_soup.jpg	1	4	1	minestrone_soup	1	W	16	0	82	0		0	0	159.417914800055	159.517868200026
36618	0.0999822000158019	493	satiated	stimuli/non_foods\non-food_inanimate_scissors.jpg	1	4	1	non-food_inanimate_scissors	0	T	14	0	205	0		0	0	159.567912800005	159.667895000021
36655.5	0.0999849000363611	494	satiated	stimuli/foods\spring_onions.jpg	1	4	1	spring_onions	1	S	13	0	269	0		0	0	159.717910700012	159.817895600048
36693	0.0999846000340767	495	satiated	stimuli/foods\fries.jpg	1	4	1	fries	1	Z	18	0	52	0		0	0	159.867906600004	159.967891200038
36730.5	0.0999908999656327	496	satiated	stimuli/non_foods\non-food_inanimate_orchid.jpg	1	4	1	non-food_inanimate_orchid	0	C	1	0	198	0		0	0	160.017901600047	160.117892500013
36768	0.0999864999903366	497	satiated	stimuli/non_foods\non-food_inanimate_protractor.jpg	1	4	1	non-food_inanimate_protractor	0	J	6	0	201	0		0	0	160.167904600035	160.267891100026
36805.5	0.0999470999813639	498	satiated	stimuli/non_foods\non-food_animate_baby_sitting.jpg	1	4	1	non-food_animate_baby_sitting	0	C	1	0	93	0		0	0	160.317939600034	160.417886700016
36843	0.0999838999705389	499	satiated	stimuli/foods\rice_cake.jpg	1	4	1	rice_cake	1	L	8	0	258	0		0	0	160.467899900046	160.567883800017
36880.5	0.0999879000009969	500	satiated	stimuli/non_foods\non-food_inanimate_cactus_pot_plant.jpg	1	4	1	non-food_inanimate_cactus_pot_plant	0	W	16	0	169	0		0	0	160.617894600029	160.71788250003
36918	0.0999819000135176	501	satiated	stimuli/foods\mandarin.jpg	1	4	1	mandarin	1	N	10	0	79	0		0	0	160.767892400036	160.867874300049
36955.5	0.0999883000040427	502	satiated	stimuli/non_foods\non-food_animate_caterpillar.jpg	1	4	1	non-food_animate_caterpillar	0	J	6	0	99	0		0	0	160.917894500017	161.017882800021
36993	0.099987699999474	503	satiated	stimuli/foods\potatoes.jpg	1	4	1	potatoes	1	K	7	0	248	0		0	0	161.067887600046	161.167875300045
37030.5	0.0999895000131801	504	satiated	stimuli/foods\cannoli.jpg	1	4	1	cannoli	1	X	17	0	17	0		0	0	161.217889200023	161.317878700036
37068	0.0999869999941438	505	satiated	stimuli/foods\lentils.jpg	1	4	1	lentils	1	M	9	0	74	0		0	0	161.367888100038	161.467875100032
37105.5	0.0999882000032812	506	satiated	stimuli/foods\chocolate_pudding.jpg	1	4	1	chocolate_pudding	1	J	6	0	29	0		0	0	161.51788530004	161.617873500043
37143	0.0999923000345007	507	satiated	stimuli/non_foods\non-food_inanimate_chair.jpg	1	4	1	non-food_inanimate_chair	0	D	2	0	172	0		0	0	161.667885500006	161.767877800041
37180.5	0.0999890999519266	508	satiated	stimuli/foods\oyster.jpg	1	4	1	oyster	1	F	3	0	233	0		0	0	161.817880400049	161.917869500001
37218	0.100009700050578	509	satiated	stimuli/non_foods\non-food_inanimate_bowling_ball.jpg	1	4	1	non-food_inanimate_bowling_ball	0	X	17	0	162	0		0	0	161.967878800002	162.067888500053
37255.5	0.0999455999699421	510	satiated	stimuli/non_foods\non-food_animate_baby_crawling.jpg	1	4	1	non-food_animate_baby_crawling	0	P	11	0	92	0		0	0	162.117919600045	162.217865200015
37293	0.0999861999880522	511	satiated	stimuli/foods\green_olives.jpg	1	4	1	green_olives	1	L	8	0	62	0		0	0	162.267876200029	162.367862400017
37330.5	0.0999905999633484	512	satiated	stimuli/foods\peach.jpg	1	4	1	peach	1	X	17	0	238	0		0	0	162.41787590005	162.517866500013
37368	0.0999868999933824	513	satiated	stimuli/non_foods\non-food_inanimate_desk.jpg	1	4	1	non-food_inanimate_desk	0	S	13	0	178	0		0	0	162.567874900007	162.667861800001
37405.5	0.0999731000047177	514	satiated	stimuli/foods\pancakes.jpg	1	4	1	pancakes	1	K	7	0	234	0		0	0	162.717871300003	162.817844400008
37443	0.0999907999648713	515	satiated	stimuli/non_foods\non-food_inanimate_couch.jpg	1	4	1	non-food_inanimate_couch	0	W	16	0	176	0		0	0	162.867859300051	162.967850100016
37480.5	0.0999971000128426	516	satiated	stimuli/foods\frankfurter_and_provolone_salad.jpg	1	4	1	frankfurter_and_provolone_salad	1	J	6	0	49	0		0	0	163.017860700027	163.11785780004
37518	0.0999752000207081	517	satiated	stimuli/non_foods\non-food_inanimate_guitar.jpg	1	4	1	non-food_inanimate_guitar	0	G	4	0	185	0		0	0	163.167881300033	163.267856500053
37555.5	0.0999851999804378	518	satiated	stimuli/non_foods\non-food_animate_iguana.jpg	1	4	1	non-food_animate_iguana	0	P	11	0	121	0		0	0	163.317866100057	163.417851300037
37593	0.0999766000313684	519	satiated	stimuli/non_foods\non-food_animate_grasshopper.jpg	1	4	1	non-food_animate_grasshopper	0	R	12	0	117	0		0	0	163.467863700003	163.567840300035
37630.5	0.0999867000500672	520	satiated	stimuli/foods\salami.jpg	1	4	1	salami	1	L	8	0	263	0		0	0	163.617852900003	163.717839600053
37668	0.0999853999819607	521	satiated	stimuli/foods\potato_chips.jpg	1	4	1	potato_chips	1	G	4	0	247	0		0	0	163.767855000042	163.867840400024
37705.5	0.099978199985344	522	satiated	stimuli/foods\onion.jpg	1	4	1	onion	1	J	6	0	229	0		0	0	163.917869000055	164.017847200041
37743	0.0999798999982886	523	satiated	stimuli/foods\cabbage.jpg	1	4	1	cabbage	1	P	11	0	16	0		0	0	164.067841400043	164.167821300041
37780.5	0.0999817000119947	524	satiated	stimuli/non_foods\non-food_animate_duck.jpg	1	4	1	non-food_animate_duck	0	R	12	0	109	0		0	0	164.217852300033	164.317834000045
37818	0.0999872999964282	525	satiated	stimuli/non_foods\non-food_animate_cheetah.jpg	1	4	1	non-food_animate_cheetah	0	C	1	0	100	0		0	0	164.367852300056	164.467839600053
37855.5	0.0999878000002354	526	satiated	stimuli/foods\pear.jpg	1	4	1	pear	1	V	15	0	239	0		0	0	164.517849900003	164.617837700003
37893	0.0999823000165634	527	satiated	stimuli/non_foods\non-food_animate_mouse.jpg	1	4	1	non-food_animate_mouse	0	T	14	0	131	0		0	0	164.667849800026	164.767832100042
37930.5	0.100005600019358	528	satiated	stimuli/foods\orange.jpg	1	4	1	orange	1	R	12	0	230	0		0	0	164.817831400025	164.917837000045
37968	0.0999513000133447	529	satiated	stimuli/foods\pea_pod.jpg	1	4	1	pea_pod	1	C	1	0	237	0		0	0	164.967868400039	165.067819700052
38005.5	0.0999995999736711	530	satiated	stimuli/non_foods\non-food_inanimate_moss.jpg	1	4	1	non-food_inanimate_moss	0	D	2	0	194	0		0	0	165.117836000049	165.217835600022
38043	0.0999773000366986	531	satiated	stimuli/foods\cinnamon_sroll.jpg	1	4	1	cinnamon_sroll	1	G	4	0	31	0		0	0	165.267844300019	165.367821600055
38080.5	0.0999850000371225	532	satiated	stimuli/foods\grapes.jpg	1	4	1	grapes	1	Z	18	0	60	0		0	0	165.417832800013	165.51781780005
38118	0.0999786000465974	533	satiated	stimuli/foods\figs.jpg	1	4	1	figs	1	I	21	1	48	0		0	0	165.567851	165.667829600046
38155.5	0.100012000009883	534	satiated	stimuli/non_foods\non-food_inanimate_sun_flower.jpg	1	4	1	non-food_inanimate_sun_flower	0	M	9	0	216	0		0	0	165.717835800024	165.817847800034
38193	0.0999832999659702	535	satiated	stimuli/foods\baked_lamb_with_potatoes.jpg	1	4	1	baked_lamb_with_potatoes	1	V	15	0	8	0		0	0	165.867827000038	165.967810300004
38230.5	0.100000999984331	536	satiated	stimuli/non_foods\non-food_inanimate_nailpolish.jpg	1	4	1	non-food_inanimate_nailpolish	0	R	12	0	195	0		0	0	166.017816100037	166.117817100021
38268	0.0999669000157155	537	satiated	stimuli/non_foods\non-food_animate_kangaroo.jpg	1	4	1	non-food_animate_kangaroo	0	C	1	0	122	0		0	0	166.167832300009	166.267799200024
38305.5	0.0999889000086114	538	satiated	stimuli/non_foods\non-food_inanimate_bicycle.jpg	1	4	1	non-food_inanimate_bicycle	0	M	9	0	161	0		0	0	166.31782940001	166.417818300019
38343	0.0999618000350893	539	satiated	stimuli/foods\broccoli.jpg	1	4	1	broccoli	1	G	4	0	13	0		0	0	166.467827000015	166.56778880005
38380.5	0.0999873999971896	540	satiated	stimuli/non_foods\non-food_inanimate_towel.jpg	1	4	1	non-food_inanimate_towel	0	R	12	0	221	0		0	0	166.617824900022	166.717812300019
38418	0.100008399982471	541	satiated	stimuli/non_foods\non-food_animate_monkey.jpg	1	4	1	non-food_animate_monkey	0	Z	18	0	130	0		0	0	166.767803400056	166.867811800039
38455.5	0.0999937999877147	542	satiated	stimuli/non_foods\non-food_animate_student_female.jpg	1	4	1	non-food_animate_student_female	0	N	10	0	151	0		0	0	166.917814400047	167.017808200035
38493	0.0999891999526881	543	satiated	stimuli/non_foods\non-food_inanimate_bush.jpg	1	4	1	non-food_inanimate_bush	0	M	9	0	167	0		0	0	167.06781940005	167.167808600003
38530.5	0.0999852999811992	544	satiated	stimuli/non_foods\non-food_animate_peacock.jpg	1	4	1	non-food_animate_peacock	0	T	14	0	134	0		0	0	167.217819900019	167.3178052
38568	0.0999879000009969	545	satiated	stimuli/foods\chilli.jpg	1	4	1	chilli	1	R	12	0	25	0		0	0	167.367834000033	167.467821900034
38605.5	0.0999578000046313	546	satiated	stimuli/foods\oven-roasted_tomatoes.jpg	1	4	1	oven-roasted_tomatoes	1	W	16	0	232	0		0	0	167.517844900023	167.617802700028
38643	0.100005400017835	547	satiated	stimuli/non_foods\non-food_inanimate_bamboo.jpg	1	4	1	non-food_inanimate_bamboo	0	T	14	0	159	0		0	0	167.667786900012	167.76779230003
38680.5	0.0999941000482067	548	satiated	stimuli/foods\mango.jpg	1	4	1	mango	1	L	8	0	80	0		0	0	167.817805700004	167.917799800052
38718	0.0999993000295945	549	satiated	stimuli/non_foods\non-food_inanimate_horn.jpg	1	4	1	non-food_inanimate_horn	0	R	12	0	190	0		0	0	167.967794299999	168.067793600028
38755.5	0.0999880000017583	550	satiated	stimuli/foods\banana.jpg	1	4	1	banana	1	X	17	0	9	0		0	0	168.117808200011	168.217796200013
38793	0.0999934999854304	551	satiated	stimuli/foods\smoked_ham.jpg	1	4	1	smoked_ham	1	K	7	0	266	0		0	0	168.267800100031	168.367793600017
38830.5	0.0999839000287466	552	satiated	stimuli/non_foods\non-food_animate_ladybug.jpg	1	4	1	non-food_animate_ladybug	0	W	16	0	124	0		0	0	168.417802500015	168.517786400043
38868	0.0999851999804378	553	satiated	stimuli/non_foods\non-food_animate_cat.jpg	1	4	1	non-food_animate_cat	0	P	11	0	98	0		0	0	168.567803500046	168.667788700026
38905.5	0.0999826000188477	554	satiated	stimuli/non_foods\non-food_inanimate_speakers.jpg	1	4	1	non-food_inanimate_speakers	0	C	1	0	212	0		0	0	168.717803000007	168.817785600026
38943	0.0999819000135176	555	satiated	stimuli/foods\croissant.jpg	1	4	1	croissant	1	V	15	0	40	0		0	0	168.867801500019	168.967783400032
38980.5	0.09999830002198	556	satiated	stimuli/non_foods\non-food_inanimate_briefcase.jpg	1	4	1	non-food_inanimate_briefcase	0	K	7	0	163	0		0	0	169.017798500019	169.117796800041
39018	0.0999910999671556	557	satiated	stimuli/foods\garlic.jpg	1	4	1	garlic	1	C	1	0	56	0		0	0	169.167791500047	169.267782600014
39055.5	0.099974500015378	558	satiated	stimuli/non_foods\non-food_animate_yellow_bug.jpg	1	4	1	non-food_animate_yellow_bug	0	H	5	0	155	0		0	0	169.317808100022	169.417782600038
39093	0.0999859999865294	559	satiated	stimuli/foods\chocolate_pralines.jpg	1	4	1	chocolate_pralines	1	D	2	0	28	0		0	0	169.467794000055	169.567780000041
39897.25	0.100007799977902	560	satiated	stimuli/non_foods\non-food_animate_parrot.jpg	1	5	1	non-food_animate_parrot	0	V	15	0	133	0		0	0	172.684414400021	172.784422199999
39934.75	0.0999732000054792	561	satiated	stimuli/foods\pancakes.jpg	1	5	1	pancakes	1	M	9	0	234	0		0	0	172.834431800002	172.934405000007
39972.25	0.099983699969016	562	satiated	stimuli/non_foods\non-food_inanimate_wrench.jpg	1	5	1	non-food_inanimate_wrench	0	S	13	0	227	0		0	0	172.984410300036	173.084394000005
40009.75	0.0999977000174113	563	satiated	stimuli/non_foods\non-food_inanimate_padlock.jpg	1	5	1	non-food_inanimate_padlock	0	X	17	0	199	0		0	0	173.134407300036	173.234405000054
40047.25	0.100001999991946	564	satiated	stimuli/foods\chilli.jpg	1	5	1	chilli	1	N	10	0	25	0		0	0	173.284395600029	173.384397600021
40084.75	0.0999828999629244	565	satiated	stimuli/foods\oregano.jpg	1	5	1	oregano	1	W	16	0	231	0		0	0	173.434411300055	173.534394200018
40122.25	0.0999867999926209	566	satiated	stimuli/foods\roasted_chicken.jpg	1	5	1	roasted_chicken	1	J	6	0	261	0		0	0	173.584408300056	173.684395100048
40159.75	0.0999825000180863	567	satiated	stimuli/non_foods\non-food_inanimate_jeans.jpg	1	5	1	non-food_inanimate_jeans	0	X	17	0	191	0		0	0	173.734408800025	173.834391300043
40197.25	0.100021999969613	568	satiated	stimuli/non_foods\non-food_animate_pigeon.jpg	1	5	1	non-food_animate_pigeon	0	T	14	0	136	0		0	0	173.884386300051	173.984408300021
40234.75	0.0999843000317924	569	satiated	stimuli/foods\fruit_flan.jpg	1	5	1	fruit_flan	1	R	12	0	53	0		0	0	174.034408300009	174.134392600041
40272.25	0.099987699999474	570	satiated	stimuli/foods\lemon.jpg	1	5	1	lemon	1	Z	18	0	72	0		0	0	174.18440300005	174.28439070005
40309.75	0.0999881000025198	571	satiated	stimuli/non_foods\non-food_inanimate_bowling_ball.jpg	1	5	1	non-food_inanimate_bowling_ball	0	T	14	0	162	0		0	0	174.334401900007	174.434390000009
40347.25	0.100005000014789	572	satiated	stimuli/foods\peas.jpg	1	5	1	peas	1	S	13	0	240	0		0	0	174.484392500017	174.584397500032
40384.75	0.0999353000079282	573	satiated	stimuli/non_foods\non-food_animate_tortoise.jpg	1	5	1	non-food_animate_tortoise	0	D	2	0	153	0		0	0	174.634427500016	174.734362800024
40422.25	0.100003899948206	574	satiated	stimuli/foods\beetroots.jpg	1	5	1	beetroots	1	G	4	0	10	0		0	0	174.78437550005	174.884379399999
40459.75	0.0999868999933824	575	satiated	stimuli/foods\papaya.jpg	1	5	1	papaya	1	L	8	0	235	0		0	0	174.934393900039	175.034380800033
40497.25	0.10000640002545	576	satiated	stimuli/foods\chocolate_pralines.jpg	1	5	1	chocolate_pralines	1	X	17	0	28	0		0	0	175.084366000025	175.18437240005
40534.75	0.0999887000070885	577	satiated	stimuli/foods\honey.jpg	1	5	1	honey	1	F	3	0	66	0		0	0	175.234382499999	175.334371200006
40572.25	0.0999875999987125	578	satiated	stimuli/foods\cannoli.jpg	1	5	1	cannoli	1	C	1	0	17	0		0	0	175.384381900018	175.484369500016
40609.75	0.0999828000203706	579	satiated	stimuli/non_foods\non-food_animate_deer.jpg	1	5	1	non-food_animate_deer	0	P	11	0	105	0		0	0	175.534378700017	175.634361500037
40647.25	0.0999893000116572	580	satiated	stimuli/foods\cereal.jpg	1	5	1	cereal	1	N	10	0	22	0		0	0	175.684373700002	175.784363000013
40684.75	0.0999705999856815	581	satiated	stimuli/foods\fries.jpg	1	5	1	fries	1	M	9	0	52	0		0	0	175.834397700033	175.934368300019
40722.25	0.0999845000333153	582	satiated	stimuli/non_foods\non-food_animate_grasshopper.jpg	1	5	1	non-food_animate_grasshopper	0	F	3	0	117	0		0	0	175.9843826	176.084367100033
40759.75	0.0999868999933824	583	satiated	stimuli/non_foods\non-food_inanimate_folding_chair.jpg	1	5	1	non-food_inanimate_folding_chair	0	C	1	0	182	0		0	0	176.134376200032	176.234363100026
40797.25	0.100010699999984	584	satiated	stimuli/foods\onion.jpg	1	5	1	onion	1	N	10	0	229	0		0	0	176.284378100012	176.384388800012
40834.75	0.0999399999855086	585	satiated	stimuli/foods\cucumber.jpg	1	5	1	cucumber	1	C	1	0	41	0		0	0	176.43441830005	176.534358300036
40872.25	0.0999870999949053	586	satiated	stimuli/foods\mortadella.jpg	1	5	1	mortadella	1	N	10	0	83	0		0	0	176.584372600017	176.684359700012
40909.75	0.0999848999781534	587	satiated	stimuli/foods\fruit_pie.jpg	1	5	1	fruit_pie	1	V	15	0	54	0		0	0	176.734373300045	176.834358200023
40947.25	0.0999857999850065	588	satiated	stimuli/foods\salami.jpg	1	5	1	salami	1	P	11	0	263	0		0	0	176.884368000028	176.984353800013
40984.75	0.099989700014703	589	satiated	stimuli/non_foods\non-food_inanimate_highlighter.jpg	1	5	1	non-food_inanimate_highlighter	0	R	12	0	189	0		0	0	177.034369900008	177.134359600022
41022.25	0.0999882000032812	590	satiated	stimuli/foods\almonds.jpg	1	5	1	almonds	1	F	3	0	0	0		0	0	177.184363700042	177.284351900045
41059.75	0.0999869999941438	591	satiated	stimuli/foods\oyster.jpg	1	5	1	oyster	1	L	8	0	233	0		0	0	177.334364700015	177.434351700009
41097.25	0.0999644999974407	592	satiated	stimuli/non_foods\non-food_animate_sea_lion.jpg	1	5	1	non-food_animate_sea_lion	0	D	2	0	143	0		0	0	177.484383700008	177.584348200005
41134.75	0.0999825000180863	593	satiated	stimuli/foods\baked_cod_with_carrots_and_green_beans.jpg	1	5	1	baked_cod_with_carrots_and_green_beans	1	M	9	0	7	0		0	0	177.634360800032	177.73434330005
41172.25	0.0999859999865294	594	satiated	stimuli/non_foods\non-food_inanimate_socks.jpg	1	5	1	non-food_inanimate_socks	0	N	10	0	211	0		0	0	177.784359600046	177.884345600032
41209.75	0.0999837999697775	595	satiated	stimuli/foods\green_beans.jpg	1	5	1	green_beans	1	H	5	0	61	0		0	0	177.934357600054	178.034341400024
41247.25	0.100011300004553	596	satiated	stimuli/foods\frankfurter_and_provolone_salad.jpg	1	5	1	frankfurter_and_provolone_salad	1	B	0	0	49	0		0	0	178.08435270004	178.184364000044
41284.75	0.0999597999616526	597	satiated	stimuli/foods\banana.jpg	1	5	1	banana	1	D	2	0	9	0		0	0	178.234381700051	178.334341500013
41322.25	0.0999871999956667	598	satiated	stimuli/non_foods\non-food_animate_yellow_bug.jpg	1	5	1	non-food_animate_yellow_bug	0	C	1	0	155	0		0	0	178.384350000008	178.484337200003
41359.75	0.0999830999644473	599	satiated	stimuli/non_foods\non-food_inanimate_headphones.jpg	1	5	1	non-food_inanimate_headphones	0	L	8	0	188	0		0	0	178.534352700051	178.634335800016
41397.25	0.0999798999982886	600	satiated	stimuli/foods\raw_ham.jpg	1	5	1	raw_ham	1	R	12	0	253	0		0	0	178.684351100004	178.784331000003
41434.75	0.0999810000066645	601	satiated	stimuli/foods\watermelon.jpg	1	5	1	watermelon	1	B	0	0	279	0		0	0	178.834349100012	178.934330100019
41472.25	0.0999887000070885	602	satiated	stimuli/non_foods\non-food_animate_ant.jpg	1	5	1	non-food_animate_ant	0	X	17	0	91	0		0	0	178.984342100041	179.084330800048
41509.75	0.0999905999633484	603	satiated	stimuli/non_foods\non-food_animate_penguin.jpg	1	5	1	non-food_animate_penguin	0	F	3	0	135	0		0	0	179.13434030005	179.234330900013
41547.25	0.0999940999899991	604	satiated	stimuli/non_foods\non-food_inanimate_table.jpg	1	5	1	non-food_inanimate_table	0	N	10	0	217	0		0	0	179.284348200017	179.384342300007
41584.75	0.0999880000017583	605	satiated	stimuli/non_foods\non-food_animate_ram.jpg	1	5	1	non-food_animate_ram	0	K	7	0	140	0		0	0	179.434339800035	179.534327800036
41622.25	0.0999806000036187	606	satiated	stimuli/non_foods\non-food_animate_squirrel.jpg	1	5	1	non-food_animate_squirrel	0	R	12	0	150	0		0	0	179.584335400024	179.684316000028
41659.75	0.0999845000333153	607	satiated	stimuli/non_foods\non-food_animate_peacock.jpg	1	5	1	non-food_animate_peacock	0	H	5	0	134	0		0	0	179.734337700007	179.83432220004
41697.25	0.100043299957179	608	satiated	stimuli/foods\cauliflower.jpg	1	5	1	cauliflower	1	R	12	0	20	0		0	0	179.884339800046	179.984383100003
41734.75	0.0999678999651223	609	satiated	stimuli/non_foods\non-food_inanimate_construction_helment.jpg	1	5	1	non-food_inanimate_construction_helment	0	X	17	0	175	0		0	0	180.034352300048	180.134320200013
41772.25	0.0999866999918595	610	satiated	stimuli/non_foods\non-food_inanimate_sun_flower.jpg	1	5	1	non-food_inanimate_sun_flower	0	H	5	0	216	0		0	0	180.184333800047	180.284320500039
41809.75	0.0999574000015855	611	satiated	stimuli/foods\chocolate_chip_cookies.jpg	1	5	1	chocolate_chip_cookies	1	K	7	0	27	0		0	0	180.334332600003	180.434290000005
41847.25	0.100027000007685	612	satiated	stimuli/foods\cabbage.jpg	1	5	1	cabbage	1	X	17	0	16	0		0	0	180.484302800032	180.58432980004
41884.75	0.100000099977478	613	satiated	stimuli/foods\croissant.jpg	1	5	1	croissant	1	L	8	0	40	0		0	0	180.634313800023	180.7343139
41922.25	0.100002000050154	614	satiated	stimuli/non_foods\non-food_inanimate_fire_extinguisher.jpg	1	5	1	non-food_inanimate_fire_extinguisher	0	S	13	0	181	0		0	0	180.784308200004	180.884310200054
41959.75	0.0999895000131801	615	satiated	stimuli/foods\potato_and_green_bean_salad.jpg	1	5	1	potato_and_green_bean_salad	1	D	2	0	246	0		0	0	180.934321400011	181.034310900024
41997.25	0.099981100007426	616	satiated	stimuli/non_foods\non-food_animate_sea_turtle.jpg	1	5	1	non-food_animate_sea_turtle	0	B	0	0	144	0		0	0	181.084323200048	181.184304300055
42034.75	0.0999879000009969	617	satiated	stimuli/non_foods\non-food_animate_Causasian_man.jpg	1	5	1	non-food_animate_Causasian_man	0	H	5	0	89	0		0	0	181.234318000032	181.334305900033
42072.25	0.0999830000218935	618	satiated	stimuli/non_foods\non-food_inanimate_stapler.jpg	1	5	1	non-food_inanimate_stapler	0	S	13	0	213	0		0	0	181.384321700025	181.484304700047
42109.75	0.0999821999575943	619	satiated	stimuli/foods\gnocchi.jpg	1	5	1	gnocchi	1	D	2	0	58	0		0	0	181.534313900047	181.634296100005
42147.25	0.100009299989324	620	satiated	stimuli/foods\bagel.jpg	1	5	1	bagel	1	J	6	0	6	0		0	0	181.684318600048	181.784327900037
42184.75	0.0999816000112332	621	satiated	stimuli/non_foods\non-food_animate_duck.jpg	1	5	1	non-food_animate_duck	0	D	2	0	109	0		0	0	181.834315000044	181.934296600055
42222.25	0.0999844999751076	622	satiated	stimuli/foods\salmon.jpg	1	5	1	salmon	1	V	15	0	264	0		0	0	181.984312600049	182.084297100024
42259.75	0.0999853000394069	623	satiated	stimuli/non_foods\non-food_inanimate_bamboo.jpg	1	5	1	non-food_inanimate_bamboo	0	W	16	0	159	0		0	0	182.134311000002	182.234296300041
42297.25	0.0999920999747701	624	satiated	stimuli/non_foods\non-food_inanimate_watering_can.jpg	1	5	1	non-food_inanimate_watering_can	0	V	15	0	225	0		0	0	182.284290600044	182.384282700019
42334.75	0.0999864000477828	625	satiated	stimuli/foods\fennel.jpg	1	5	1	fennel	1	R	12	0	47	0		0	0	182.434298000007	182.534284400055
42372.25	0.0999827000196092	626	satiated	stimuli/non_foods\non-food_animate_porcupine.jpg	1	5	1	non-food_animate_porcupine	0	C	1	0	138	0		0	0	182.584295800014	182.684278500034
42409.75	0.099987699999474	627	satiated	stimuli/non_foods\non-food_animate_baby_sitting.jpg	1	5	1	non-food_animate_baby_sitting	0	R	12	0	93	0		0	0	182.734291800007	182.834279500006
42447.25	0.0999854000401683	628	satiated	stimuli/foods\coffee_beans.jpg	1	5	1	coffee_beans	1	M	9	0	34	0		0	0	182.884303500003	182.984288900043
42484.75	0.100007500033826	629	satiated	stimuli/foods\brownie.jpg	1	5	1	brownie	1	R	12	0	14	0		0	0	183.034271200013	183.134278700047
42522.25	0.0999844000325538	630	satiated	stimuli/foods\raisins.jpg	1	5	1	raisins	1	W	16	0	252	0		0	0	183.184299100016	183.284283500048
42559.75	0.099985100037884	631	satiated	stimuli/non_foods\non-food_animate_runner.jpg	1	5	1	non-food_animate_runner	0	C	1	0	142	0		0	0	183.334294700006	183.434279800043
42597.25	0.100015599979088	632	satiated	stimuli/foods\ice_cream.jpg	1	5	1	ice_cream	1	R	12	0	68	0		0	0	183.484288900043	183.584304500022
42634.75	0.0999826000188477	633	satiated	stimuli/non_foods\non-food_animate_caterpillar.jpg	1	5	1	non-food_animate_caterpillar	0	X	17	0	99	0		0	0	183.634297800018	183.734280400036
42672.25	0.0999868999933824	634	satiated	stimuli/foods\cooked_ham.jpg	1	5	1	cooked_ham	1	K	7	0	35	0		0	0	183.784288500028	183.884275400022
42709.75	0.0999883000040427	635	satiated	stimuli/non_foods\non-food_animate_green_bug.jpg	1	5	1	non-food_animate_green_bug	0	J	6	0	118	0		0	0	183.934286400035	184.03427470004
42747.25	0.0999920999747701	636	satiated	stimuli/non_foods\non-food_inanimate_broom.jpg	1	5	1	non-food_inanimate_broom	0	Z	18	0	164	0		0	0	184.084278400056	184.184270500031
42784.75	0.0999863000470214	637	satiated	stimuli/foods\lemon_meringue_pie.jpg	1	5	1	lemon_meringue_pie	1	X	17	0	73	0		0	0	184.234284500009	184.334270800056
42822.25	0.0999872999964282	638	satiated	stimuli/non_foods\non-food_animate_slug.jpg	1	5	1	non-food_animate_slug	0	O	22	1	148	0		0	0	184.384282700019	184.484270000015
42859.75	0.0999928999808617	639	satiated	stimuli/non_foods\non-food_inanimate_gloves.jpg	1	5	1	non-food_inanimate_gloves	0	T	14	0	183	0		0	0	184.534282800043	184.634275700024
