onset	duration	eventnumber	hunger_condition	stimfilename	blockno	trialno	is_faststream	stim	food_idx	letter	letter_idx	istarget	image_number	response	keypressed	rt	correct	time_stimon	time_stimoff
6542.25	0.099974500015378	0	hunger	stimuli/foods\spring_onions.jpg	1	1	1	spring_onions	1	F	3	0	269	0		0	0	51.3376499996521	51.4376244996674
6579.75	0.100027400068939	1	hunger	stimuli/non_foods\non-food_animate_baby_sitting.jpg	1	1	1	non-food_animate_baby_sitting	0	K	7	0	93	0		0	0	51.4876424996182	51.5876698996872
6617.25	0.0999831999652088	2	hunger	stimuli/non_foods\non-food_animate_deer.jpg	1	1	1	non-food_animate_deer	0	Z	18	0	105	0		0	0	51.6376396999694	51.7376228999346
6654.75	0.10000229999423	3	hunger	stimuli/non_foods\non-food_animate_swan.jpg	1	1	1	non-food_animate_swan	0	L	8	0	152	0		0	0	51.7876359997317	51.8876382997259
6692.25	0.0999675998464227	4	hunger	stimuli/foods\chocolate_pralines.jpg	1	1	1	chocolate_pralines	1	X	17	0	28	0		0	0	51.9376517999917	52.0376193998381
6729.75	0.0999857001006603	5	hunger	stimuli/non_foods\non-food_inanimate_hammer.jpg	1	1	1	non-food_inanimate_hammer	0	M	9	0	186	0		0	0	52.0876294998452	52.1876151999459
6767.25	0.0999782998114824	6	hunger	stimuli/foods\fries.jpg	1	1	1	fries	1	G	4	0	52	0		0	0	52.2376291998662	52.3376074996777
6804.75	0.0999952000565827	7	hunger	stimuli/non_foods\non-food_animate_donkey.jpg	1	1	1	non-food_animate_donkey	0	K	7	0	107	0		0	0	52.3876102999784	52.487605500035
6842.25	0.0999929001554847	8	hunger	stimuli/non_foods\non-food_animate_seal.jpg	1	1	1	non-food_animate_seal	0	R	12	0	146	0		0	0	52.5376137997955	52.637606699951
6879.75	0.0999680999666452	9	hunger	stimuli/foods\onion.jpg	1	1	1	onion	1	K	7	0	229	0		0	0	52.6876396997832	52.7876077997498
6917.25	0.0999854002147913	10	hunger	stimuli/foods\raw_ham.jpg	1	1	1	raw_ham	1	L	8	0	253	0		0	0	52.837619099766	52.9376044999808
6954.75	0.0999888996593654	11	hunger	stimuli/foods\chilli.jpg	1	1	1	chilli	1	R	12	0	25	0		0	0	52.9876145999879	53.0876034996472
6992.25	0.0999850002117455	12	hunger	stimuli/foods\salami.jpg	1	1	1	salami	1	C	1	0	263	0		0	0	53.1376187996939	53.2376037999056
7029.75	0.0997330001555383	13	hunger	stimuli/non_foods\non-food_animate_raccoon.jpg	1	1	1	non-food_animate_raccoon	0	T	14	0	139	0		0	0	53.2878728997894	53.3876058999449
7067.25	0.09998539974913	14	hunger	stimuli/foods\waffle.jpg	1	1	1	waffle	1	X	17	0	278	0		0	0	53.4376155999489	53.537600999698
7104.75	0.0999651001766324	15	hunger	stimuli/non_foods\non-food_animate_eagle.jpg	1	1	1	non-food_animate_eagle	0	F	3	0	110	0		0	0	53.5876090996899	53.6875741998665
7142.25	0.0999906999059021	16	hunger	stimuli/non_foods\non-food_inanimate_cactus_pot_plant.jpg	1	1	1	non-food_inanimate_cactus_pot_plant	0	C	1	0	169	0		0	0	53.7376079997048	53.8375986996107
7179.75	0.100002799648792	17	hunger	stimuli/foods\potato_chips.jpg	1	1	1	potato_chips	1	G	4	0	247	0		0	0	53.8875901000574	53.9875928997062
7217.25	0.0999859999865294	18	hunger	stimuli/foods\taco.jpg	1	1	1	taco	1	H	5	0	274	0		0	0	54.0376050998457	54.1375910998322
7254.75	0.0999937001615763	19	hunger	stimuli/foods\baked_lamb_with_potatoes.jpg	1	1	1	baked_lamb_with_potatoes	1	W	16	0	8	0		0	0	54.1876041996293	54.2875978997909
7292.25	0.0999678997322917	20	hunger	stimuli/non_foods\non-food_animate_slug.jpg	1	1	1	non-food_animate_slug	0	X	17	0	148	0		0	0	54.3376209000126	54.4375887997448
7329.75	0.0999874002300203	21	hunger	stimuli/foods\hamburger.jpg	1	1	1	hamburger	1	V	15	0	64	0		0	0	54.48760079965	54.58758819988
7367.25	0.0999840996228158	22	hunger	stimuli/foods\avocado.jpg	1	1	1	avocado	1	L	8	0	5	0		0	0	54.6375988000073	54.7375828996301
7404.75	0.0999892996624112	23	hunger	stimuli/non_foods\non-food_animate_mammoth.jpg	1	1	1	non-food_animate_mammoth	0	P	11	0	128	0		0	0	54.7875920999795	54.8875813996419
7442.25	0.0999883003532887	24	hunger	stimuli/non_foods\non-food_animate_ram.jpg	1	1	1	non-food_animate_ram	0	W	16	0	140	0		0	0	54.9375954996794	55.0375838000327
7479.75	0.0999878998845816	25	hunger	stimuli/non_foods\non-food_inanimate_waterlily.jpg	1	1	1	non-food_inanimate_waterlily	0	X	17	0	226	0		0	0	55.0875936998054	55.18758159969
7517.25	0.0999909997917712	26	hunger	stimuli/non_foods\non-food_animate_squirrel.jpg	1	1	1	non-food_animate_squirrel	0	L	8	0	150	0		0	0	55.2375888000242	55.337579799816
7554.75	0.0999863999895751	27	hunger	stimuli/foods\cupcake.jpg	1	1	1	cupcake	1	K	7	0	42	0		0	0	55.3875902998261	55.4875766998157
7592.25	0.0999845000915229	28	hunger	stimuli/foods\ginger_root.jpg	1	1	1	ginger_root	1	X	17	0	57	0		0	0	55.5375900999643	55.6375746000558
7629.75	0.0999888000078499	29	hunger	stimuli/foods\figs.jpg	1	1	1	figs	1	A	19	1	48	0		0	0	55.6875859997235	55.7875747997314
7667.25	0.0999816996045411	30	hunger	stimuli/foods\lemon.jpg	1	1	1	lemon	1	K	7	0	72	0		0	0	55.8375887000002	55.9375703996047
7704.75	0.0999886998906732	31	hunger	stimuli/foods\savory_pie.jpg	1	1	1	savory_pie	1	F	3	0	265	0		0	0	55.9875817997381	56.0875704996288
7742.25	0.0999659998342395	32	hunger	stimuli/non_foods\non-food_inanimate_sun_flower.jpg	1	1	1	non-food_inanimate_sun_flower	0	D	2	0	216	1	a	0.541843099985272	1	56.1376038999297	56.2375698997639
7779.75	0.0999861001037061	33	hunger	stimuli/non_foods\non-food_inanimate_padlock.jpg	1	1	1	non-food_inanimate_padlock	0	K	7	0	199	0		0	0	56.2875816999003	56.387567800004
7817.25	0.0999693996272981	34	hunger	stimuli/non_foods\non-food_inanimate_canoe.jpg	1	1	1	non-food_inanimate_canoe	0	X	17	0	170	0		0	0	56.4375799000263	56.5375492996536
7854.75	0.0999894002452493	35	hunger	stimuli/non_foods\non-food_inanimate_moss.jpg	1	1	1	non-food_inanimate_moss	0	H	5	0	194	0		0	0	56.5875570997596	56.6875465000048
7892.25	0.0999875999987125	36	hunger	stimuli/foods\strawberry.jpg	1	1	1	strawberry	1	Z	18	0	272	0		0	0	56.7375727999024	56.8375603999011
7929.75	0.0999819003045559	37	hunger	stimuli/non_foods\non-food_inanimate_tulip.jpg	1	1	1	non-food_inanimate_tulip	0	N	10	0	224	0		0	0	56.8875778997317	56.9875598000363
7967.25	0.0999826001934707	38	hunger	stimuli/foods\pepperoni_pizza.jpg	1	1	1	pepperoni_pizza	1	R	12	0	241	0		0	0	57.037572699599	57.1375552997924
8004.75	0.100005600135773	39	hunger	stimuli/non_foods\non-food_animate_kangaroo.jpg	1	1	1	non-food_animate_kangaroo	0	N	10	0	122	0		0	0	57.18756939983	57.2875749999657
8042.25	0.0999867999926209	40	hunger	stimuli/non_foods\non-food_inanimate_headphones.jpg	1	1	1	non-food_inanimate_headphones	0	T	14	0	188	0		0	0	57.3375658998266	57.4375526998192
8079.75	0.0999569003470242	41	hunger	stimuli/foods\green_olives.jpg	1	1	1	green_olives	1	B	0	0	62	0		0	0	57.4875669996254	57.5875238999724
8117.25	0.0999729000031948	42	hunger	stimuli/foods\potatoes.jpg	1	1	1	potatoes	1	S	13	0	248	0		0	0	57.6375762997195	57.7375491997227
8154.75	0.0999838998541236	43	hunger	stimuli/non_foods\non-food_inanimate_skateboard.jpg	1	1	1	non-food_inanimate_skateboard	0	G	4	0	208	0		0	0	57.7875624997541	57.8875463996083
8192.25	0.0999861997552216	44	hunger	stimuli/non_foods\non-food_inanimate_nailpolish.jpg	1	1	1	non-food_inanimate_nailpolish	0	C	1	0	195	0		0	0	57.9375586998649	58.0375448996201
8229.75	0.0999881997704506	45	hunger	stimuli/foods\oyster.jpg	1	1	1	oyster	1	W	16	0	233	0		0	0	58.0875587998889	58.1875469996594
8267.25	0.0999863999895751	46	hunger	stimuli/non_foods\non-food_animate_woman.jpg	1	1	1	non-food_animate_woman	0	P	11	0	154	0		0	0	58.2375550996512	58.3375414996408
8304.75	0.0999863003380597	47	hunger	stimuli/non_foods\non-food_animate_elephant.jpg	1	1	1	non-food_animate_elephant	0	J	6	0	111	0		0	0	58.3875563996844	58.4875427000225
8342.25	0.099980799946934	48	hunger	stimuli/non_foods\non-food_inanimate_clover.jpg	1	1	1	non-food_inanimate_clover	0	V	15	0	174	0		0	0	58.5375540000387	58.6375347999856
8379.75	0.0999821997247636	49	hunger	stimuli/non_foods\non-food_inanimate_grass.jpg	1	1	1	non-food_inanimate_grass	0	L	8	0	184	0		0	0	58.6875451998785	58.7875273996033
8417.25	0.0999944000504911	50	hunger	stimuli/non_foods\non-food_animate_caterpillar.jpg	1	1	1	non-food_animate_caterpillar	0	S	13	0	99	0		0	0	58.8375443997793	58.9375387998298
8454.75	0.0999929001554847	51	hunger	stimuli/foods\omelette.jpg	1	1	1	omelette	1	G	4	0	228	0		0	0	58.9875379996374	59.0875308997929
8492.25	0.0999913001433015	52	hunger	stimuli/non_foods\non-food_animate_butterfly.jpg	1	1	1	non-food_animate_butterfly	0	H	5	0	96	0		0	0	59.1375519996509	59.2375432997942
8529.75	0.0999914999119937	53	hunger	stimuli/foods\minestrone_soup.jpg	1	1	1	minestrone_soup	1	W	16	0	82	0		0	0	59.2875386998057	59.3875301997177
8567.25	0.0999859999865294	54	hunger	stimuli/non_foods\non-food_inanimate_construction_helment.jpg	1	1	1	non-food_inanimate_construction_helment	0	T	14	0	175	0		0	0	59.4375416999683	59.5375276999548
8604.75	0.0999894998967648	55	hunger	stimuli/non_foods\non-food_inanimate_buds.jpg	1	1	1	non-food_inanimate_buds	0	H	5	0	166	0		0	0	59.5875399997458	59.6875294996426
8642.25	0.0999875999987125	56	hunger	stimuli/non_foods\non-food_animate_dachshund.jpg	1	1	1	non-food_animate_dachshund	0	J	6	0	104	0		0	0	59.7375381998718	59.8375257998705
8679.75	0.0999782998114824	57	hunger	stimuli/foods\stew_with_potatoes_and_carrots.jpg	1	1	1	stew_with_potatoes_and_carrots	1	P	11	0	271	0		0	0	59.8875355999917	59.9875138998032
8717.25	0.0999840996228158	58	hunger	stimuli/foods\frankfurter_and_provolone_salad.jpg	1	1	1	frankfurter_and_provolone_salad	1	M	9	0	49	0		0	0	60.0375369000249	60.1375209996477
8754.75	0.100019900128245	59	hunger	stimuli/non_foods\non-food_animate_young_girl.jpg	1	1	1	non-food_animate_young_girl	0	F	3	0	157	0		0	0	60.1875351998024	60.2875550999306
8792.25	0.0999866002239287	60	hunger	stimuli/non_foods\non-food_inanimate_desk.jpg	1	1	1	non-food_inanimate_desk	0	G	4	0	178	0		0	0	60.3375363997184	60.4375229999423
8829.75	0.0999648002907634	61	hunger	stimuli/non_foods\non-food_inanimate_guitar.jpg	1	1	1	non-food_inanimate_guitar	0	F	3	0	185	0		0	0	60.4875304996967	60.5874952999875
8867.25	0.100008599925786	62	hunger	stimuli/non_foods\non-food_animate_grasshopper.jpg	1	1	1	non-food_animate_grasshopper	0	Z	18	0	117	0		0	0	60.6375071997754	60.7375157997012
8904.75	0.0999837000854313	63	hunger	stimuli/foods\honey.jpg	1	1	1	honey	1	M	9	0	66	0		0	0	60.7875271998346	60.88751089992
8942.25	0.0999948000535369	64	hunger	stimuli/non_foods\non-food_animate_baby_crawling.jpg	1	1	1	non-food_animate_baby_crawling	0	W	16	0	92	0		0	0	60.9375258996151	61.0375206996687
8979.75	0.0999777996912599	65	hunger	stimuli/foods\artichoke.jpg	1	1	1	artichoke	1	Z	18	0	3	0		0	0	61.0875329999253	61.1875107996166
9017.25	0.0999869997613132	66	hunger	stimuli/non_foods\non-food_animate_dolphin.jpg	1	1	1	non-food_animate_dolphin	0	F	3	0	106	0		0	0	61.2375202998519	61.3375072996132
9054.75	0.0999874998815358	67	hunger	stimuli/foods\brownie.jpg	1	1	1	brownie	1	R	12	0	14	0		0	0	61.3875011997297	61.4874886996113
9092.25	0.100006300024688	68	hunger	stimuli/foods\garlic.jpg	1	1	1	garlic	1	F	3	0	56	0		0	0	61.5375014999881	61.6375078000128
9129.75	0.0999811999499798	69	hunger	stimuli/non_foods\non-food_animate_giraffe.jpg	1	1	1	non-food_animate_giraffe	0	X	17	0	115	0		0	0	61.6875172997825	61.7874984997325
9167.25	0.0999644999392331	70	hunger	stimuli/foods\carrot.jpg	1	1	1	carrot	1	B	0	0	19	0		0	0	61.8375140000135	61.9374784999527
9204.75	0.0999978999607265	71	hunger	stimuli/foods\lollies.jpg	1	1	1	lollies	1	J	6	0	78	0		0	0	61.9874991998076	62.0874970997684
9242.25	0.0999866998754442	72	hunger	stimuli/non_foods\non-food_animate_ant.jpg	1	1	1	non-food_animate_ant	0	P	11	0	91	0		0	0	62.137510499917	62.2374971997924
9279.75	0.0999886002391577	73	hunger	stimuli/foods\red_cabbage.jpg	1	1	1	red_cabbage	1	R	12	0	256	0		0	0	62.2875104998238	62.387499100063
9317.25	0.0999821000732481	74	hunger	stimuli/non_foods\non-food_inanimate_socks.jpg	1	1	1	non-food_inanimate_socks	0	M	9	0	211	0		0	0	62.4375087996013	62.5374908996746
9354.75	0.0999921001493931	75	hunger	stimuli/foods\grilled_chicken_breast.jpg	1	1	1	grilled_chicken_breast	1	N	10	0	63	0		0	0	62.5875069997273	62.6874990998767
9392.25	0.0999949998222291	76	hunger	stimuli/non_foods\non-food_animate_clown.jpg	1	1	1	non-food_animate_clown	0	J	6	0	102	0		0	0	62.7374991998076	62.8374941996299
9429.75	0.099984799977392	77	hunger	stimuli/foods\pumpkin.jpg	1	1	1	pumpkin	1	K	7	0	250	0		0	0	62.887503199745	62.9874879997224
9467.25	0.0999873001128435	78	hunger	stimuli/non_foods\non-food_animate_mouse.jpg	1	1	1	non-food_animate_mouse	0	H	5	0	131	0		0	0	63.0374989998527	63.1374862999655
9504.75	0.0999874998815358	79	hunger	stimuli/foods\green_beans.jpg	1	1	1	green_beans	1	T	14	0	61	0		0	0	63.1874983999878	63.2874858998694
9542.25	0.0999888000078499	80	hunger	stimuli/foods\salmon.jpg	1	1	1	salmon	1	M	9	0	264	0		0	0	63.3374982997775	63.4374870997854
9579.75	0.099991500377655	81	hunger	stimuli/non_foods\non-food_animate_lion.jpg	1	1	1	non-food_animate_lion	0	F	3	0	125	0		0	0	63.4874926996417	63.5874842000194
9617.25	0.0999897997826338	82	hunger	stimuli/non_foods\non-food_inanimate_table.jpg	1	1	1	non-food_inanimate_table	0	H	5	0	217	0		0	0	63.6374923000112	63.7374820997939
9654.75	0.0999676999635994	83	hunger	stimuli/non_foods\non-food_animate_lizard.jpg	1	1	1	non-food_animate_lizard	0	T	14	0	126	0		0	0	63.7874936996959	63.8874613996595
9692.25	0.0999855999834836	84	hunger	stimuli/non_foods\non-food_inanimate_couch.jpg	1	1	1	non-food_inanimate_couch	0	H	5	0	176	0		0	0	63.9374889996834	64.0374745996669
9729.75	0.099987399764359	85	hunger	stimuli/foods\potato_and_green_bean_salad.jpg	1	1	1	potato_and_green_bean_salad	1	X	17	0	246	0		0	0	64.0874888999388	64.1874762997031
9767.25	0.0999949001707137	86	hunger	stimuli/foods\fruit_salad.jpg	1	1	1	fruit_salad	1	H	5	0	55	0		0	0	64.2374720997177	64.3374669998884
9804.75	0.100006999913603	87	hunger	stimuli/non_foods\non-food_inanimate_alarm_clock.jpg	1	1	1	non-food_inanimate_alarm_clock	0	X	17	0	158	0		0	0	64.3874654998071	64.4874724997208
9842.25	0.0999239003285766	88	hunger	stimuli/non_foods\non-food_inanimate_jeans.jpg	1	1	1	non-food_inanimate_jeans	0	R	12	0	191	0		0	0	64.5375460996293	64.6374699999578
9879.75	0.0999858998693526	89	hunger	stimuli/foods\pasta_carbonara.jpg	1	1	1	pasta_carbonara	1	V	15	0	236	0		0	0	64.6874811998568	64.7874670997262
9917.25	0.0999831999652088	90	hunger	stimuli/foods\blackberry.jpg	1	1	1	blackberry	1	R	12	0	11	0		0	0	64.8374800998718	64.937463299837
9954.75	0.0999949998222291	91	hunger	stimuli/non_foods\non-food_animate_runner.jpg	1	1	1	non-food_animate_runner	0	G	4	0	142	0		0	0	64.9874686999246	65.0874636997469
9992.25	0.0999854002147913	92	hunger	stimuli/foods\fennel.jpg	1	1	1	fennel	1	W	16	0	47	0		0	0	65.1374777997844	65.2374631999992
10029.75	0.0999857997521758	93	hunger	stimuli/non_foods\non-food_inanimate_teddy_bear.jpg	1	1	1	non-food_inanimate_teddy_bear	0	G	4	0	218	0		0	0	65.2874739998952	65.3874597996473
10067.25	0.0999851999804378	94	hunger	stimuli/foods\capsicum.jpg	1	1	1	capsicum	1	B	0	0	18	0		0	0	65.4374708998948	65.5374560998753
10104.75	0.0999851999804378	95	hunger	stimuli/foods\orange.jpg	1	1	1	orange	1	P	11	0	230	0		0	0	65.5874719000421	65.6874571000226
10142.25	0.0999842998571694	96	hunger	stimuli/non_foods\non-food_animate_ladybug.jpg	1	1	1	non-food_animate_ladybug	0	O	22	1	124	0		0	0	65.737471499946	65.8374557998031
10179.75	0.0999771999195218	97	hunger	stimuli/non_foods\non-food_animate_green_bug.jpg	1	1	1	non-food_animate_green_bug	0	Z	18	0	118	0		0	0	65.8874669997022	65.9874441996217
10217.25	0.0999875999987125	98	hunger	stimuli/non_foods\non-food_inanimate_bowling_ball.jpg	1	1	1	non-food_inanimate_bowling_ball	0	G	4	0	162	0		0	0	66.0374647998251	66.1374523998238
10254.75	0.0999831003136933	99	hunger	stimuli/non_foods\non-food_animate_snail.jpg	1	1	1	non-food_animate_snail	0	C	1	0	149	1	a	0.541818699799478	1	66.1874663997442	66.2874495000578
10292.25	0.0999695002101362	100	hunger	stimuli/foods\rice_cake.jpg	1	1	1	rice_cake	1	R	12	0	258	0		0	0	66.33747629961	66.4374457998201
10329.75	0.0999863999895751	101	hunger	stimuli/foods\corncob.jpg	1	1	1	corncob	1	J	6	0	37	0		0	0	66.4874586998485	66.5874450998381
10367.25	0.0999793000519276	102	hunger	stimuli/foods\chocolate_pudding.jpg	1	1	1	chocolate_pudding	1	N	10	0	29	0		0	0	66.6374623999	66.7374416999519
10404.75	0.0999869001097977	103	hunger	stimuli/non_foods\non-food_animate_rhino.jpg	1	1	1	non-food_animate_rhino	0	S	13	0	141	0		0	0	66.7874559997581	66.8874428998679
10442.25	0.0999885997734964	104	hunger	stimuli/non_foods\non-food_inanimate_rope.jpg	1	1	1	non-food_inanimate_rope	0	V	15	0	204	0		0	0	66.9374505998567	67.0374391996302
10479.75	0.0999880000017583	105	hunger	stimuli/non_foods\non-food_inanimate_bicycle.jpg	1	1	1	non-food_inanimate_bicycle	0	H	5	0	161	0		0	0	67.0874498998746	67.1874378998764
10517.25	0.0999845000915229	106	hunger	stimuli/non_foods\non-food_animate_bee.jpg	1	1	1	non-food_animate_bee	0	M	9	0	95	0		0	0	67.2374521996826	67.3374366997741
10554.75	0.0999568998813629	107	hunger	stimuli/non_foods\non-food_animate_polar_bear.jpg	1	1	1	non-food_animate_polar_bear	0	N	10	0	137	0		0	0	67.3874512999319	67.4874081998132
10592.25	0.0999973998405039	108	hunger	stimuli/foods\pear.jpg	1	1	1	pear	1	X	17	0	239	0		0	0	67.5374394999817	67.6374368998222
10629.75	0.100003900006413	109	hunger	stimuli/foods\chocolate_bar.jpg	1	1	1	chocolate_bar	1	D	2	0	26	0		0	0	67.6874245996587	67.7874284996651
10667.25	0.0999565999954939	110	hunger	stimuli/non_foods\non-food_inanimate_nettle.jpg	1	1	1	non-food_inanimate_nettle	0	N	10	0	197	0		0	0	67.8374425000511	67.9373991000466
10704.75	0.100014900323004	111	hunger	stimuli/non_foods\non-food_inanimate_bucket.jpg	1	1	1	non-food_inanimate_bucket	0	F	3	0	165	0		0	0	67.9874298996292	68.0874447999522
10742.25	0.0999660999514163	112	hunger	stimuli/non_foods\non-food_inanimate_leaf.jpg	1	1	1	non-food_inanimate_leaf	0	B	0	0	192	0		0	0	68.137461300008	68.2374273999594
10779.75	0.0999854002147913	113	hunger	stimuli/non_foods\non-food_animate_monkey.jpg	1	1	1	non-food_animate_monkey	0	N	10	0	130	0		0	0	68.2874363996089	68.3874217998236
10817.25	0.099984799977392	114	hunger	stimuli/foods\toasted_bread_with_tomatoes.jpg	1	1	1	toasted_bread_with_tomatoes	1	H	5	0	275	0		0	0	68.4374392000027	68.5374239999801
10854.75	0.0999874002300203	115	hunger	stimuli/non_foods\non-food_animate_fox.jpg	1	1	1	non-food_animate_fox	0	F	3	0	112	0		0	0	68.5874330997467	68.6874204999767
10892.25	0.100014199968427	116	hunger	stimuli/foods\fruit_pie.jpg	1	1	1	fruit_pie	1	N	10	0	54	0		0	0	68.7374066999182	68.8374208998866
10929.75	0.099979099817574	117	hunger	stimuli/foods\risotto_with_zucchini.jpg	1	1	1	risotto_with_zucchini	1	Z	18	0	260	0		0	0	68.8874343000352	68.9874133998528
10967.25	0.0999826001934707	118	hunger	stimuli/foods\broccoli.jpg	1	1	1	broccoli	1	W	16	0	13	0		0	0	69.0374309998006	69.137413599994
11004.75	0.0999990999698639	119	hunger	stimuli/non_foods\non-food_animate_sea_lion.jpg	1	1	1	non-food_animate_sea_lion	0	F	3	0	143	0		0	0	69.1874282998033	69.2874273997732
11042.25	0.0999961998313665	120	hunger	stimuli/foods\roasted_chicken.jpg	1	1	1	roasted_chicken	1	W	16	0	261	0		0	0	69.3374065998942	69.4374027997255
11079.75	0.100001000333577	121	hunger	stimuli/non_foods\non-food_animate_peacock.jpg	1	1	1	non-food_animate_peacock	0	R	12	0	134	0		0	0	69.4874092997052	69.5874103000388
11117.25	0.0999612002633512	122	hunger	stimuli/foods\cream_donuts.jpg	1	1	1	cream_donuts	1	M	9	0	39	0		0	0	69.6374255996197	69.7373867998831
11154.75	0.100007600151002	123	hunger	stimuli/foods\banana.jpg	1	1	1	banana	1	G	4	0	9	0		0	0	69.787398299668	69.887405899819
11192.25	0.0999675001949072	124	hunger	stimuli/non_foods\non-food_inanimate_stapler.jpg	1	1	1	non-food_inanimate_stapler	0	U	23	1	213	0		0	0	69.9374384996481	70.037405999843
11229.75	0.0999742997810245	125	hunger	stimuli/foods\cooked_ham.jpg	1	1	1	cooked_ham	1	D	2	0	35	0		0	0	70.0874200998805	70.1873943996616
11267.25	0.099967600312084	126	hunger	stimuli/foods\grapefruits.jpg	1	1	1	grapefruits	1	X	17	0	59	0		0	0	70.237407699693	70.3373753000051
11304.75	0.100016799755394	127	hunger	stimuli/non_foods\non-food_inanimate_stoplight.jpg	1	1	1	non-food_inanimate_stoplight	0	M	9	0	214	0		0	0	70.3873878000304	70.4874045997858
11342.25	0.0999912000261247	128	hunger	stimuli/non_foods\non-food_inanimate_speakers.jpg	1	1	1	non-food_inanimate_speakers	0	L	8	0	212	0		0	0	70.53740559984	70.6373967998661
11379.75	0.0999575001187623	129	hunger	stimuli/foods\pea_pod.jpg	1	1	1	pea_pod	1	X	17	0	237	0		0	0	70.6874112999067	70.7873688000254
11417.25	0.099991500377655	130	hunger	stimuli/foods\museli_bars.jpg	1	1	1	museli_bars	1	H	5	0	84	0		0	0	70.8374047996476	70.9373963000253
11454.75	0.0999941998161376	131	hunger	stimuli/non_foods\non-food_inanimate_fire_extinguisher.jpg	1	1	1	non-food_inanimate_fire_extinguisher	0	V	15	0	181	0		0	0	70.9873954998329	71.0873896996491
11492.25	0.0999720999971032	132	hunger	stimuli/foods\coconut.jpg	1	1	1	coconut	1	H	5	0	33	0		0	0	71.1374061997049	71.237378299702
11529.75	0.0999823999591172	133	hunger	stimuli/foods\pork_and_rice.jpg	1	1	1	pork_and_rice	1	B	0	0	245	0		0	0	71.2874034997076	71.3873858996667
11567.25	0.0999873001128435	134	hunger	stimuli/foods\cabbage.jpg	1	1	1	cabbage	1	P	11	0	16	0		0	0	71.4374039997347	71.5373912998475
11604.75	0.0999791999347508	135	hunger	stimuli/foods\coffee_beans.jpg	1	1	1	coffee_beans	1	F	3	0	34	0		0	0	71.5874071996659	71.6873863996007
11642.25	0.0999970003031194	136	hunger	stimuli/non_foods\non-food_inanimate_bamboo.jpg	1	1	1	non-food_inanimate_bamboo	0	L	8	0	159	0		0	0	71.7373957997188	71.8373928000219
11679.75	0.0999435000121593	137	hunger	stimuli/non_foods\non-food_inanimate_pine_cone.jpg	1	1	1	non-food_inanimate_pine_cone	0	J	6	0	200	0		0	0	71.8874325999059	71.987376099918
11717.25	0.0999851999804378	138	hunger	stimuli/non_foods\non-food_animate_cow.jpg	1	1	1	non-food_animate_cow	0	W	16	0	103	0		0	0	72.0373950996436	72.1373802996241
11754.75	0.0999811999499798	139	hunger	stimuli/non_foods\non-food_inanimate_shell.jpg	1	1	1	non-food_inanimate_shell	0	G	4	0	206	0		0	0	72.1873989999294	72.2873801998794
12867.25	0.0999556998722255	140	hunger	stimuli/foods\mango.jpg	1	2	1	mango	1	L	8	0	80	0		0	0	76.6373693998903	76.7373250997625
12904.75	0.0999848996289074	141	hunger	stimuli/foods\fried_calamari.jpg	1	2	1	fried_calamari	1	F	3	0	50	0		0	0	76.7873398000374	76.8873246996664
12942.25	0.0999810001812875	142	hunger	stimuli/foods\almonds.jpg	1	2	1	almonds	1	L	8	0	0	0		0	0	76.9373416998424	77.0373227000237
12979.75	0.0999845000915229	143	hunger	stimuli/foods\brie.jpg	1	2	1	brie	1	S	13	0	12	0		0	0	77.0873361998238	77.1873206999153
13017.25	0.100000199861825	144	hunger	stimuli/foods\grapes.jpg	1	2	1	grapes	1	H	5	0	60	0		0	0	77.2373196999542	77.3373198998161
13054.75	0.0999829000793397	145	hunger	stimuli/non_foods\non-food_inanimate_bush.jpg	1	2	1	non-food_inanimate_bush	0	F	3	0	167	0		0	0	77.3873337996192	77.4873166996986
13092.25	0.100037400145084	146	hunger	stimuli/non_foods\non-food_animate_Causasian_man.jpg	1	2	1	non-food_animate_Causasian_man	0	C	1	0	89	0		0	0	77.5373306996189	77.637368099764
13129.75	0.0999759999103844	147	hunger	stimuli/foods\mandarin.jpg	1	2	1	mandarin	1	Z	18	0	79	0		0	0	77.6873314999975	77.7873074999079
13167.25	0.0999829997308552	148	hunger	stimuli/non_foods\non-food_animate_cat.jpg	1	2	1	non-food_animate_cat	0	H	5	0	98	0		0	0	77.8373213000596	77.9373042997904
13204.75	0.0999755002558231	149	hunger	stimuli/non_foods\non-food_animate_parrot.jpg	1	2	1	non-food_animate_parrot	0	L	8	0	133	0		0	0	77.9873282997869	78.0873038000427
13242.25	0.0999898998998106	150	hunger	stimuli/foods\raw_sausage.jpg	1	2	1	raw_sausage	1	W	16	0	254	0		0	0	78.1373160998337	78.2373059997335
13279.75	0.0999825997278094	151	hunger	stimuli/non_foods\non-food_animate_dragonfly.jpg	1	2	1	non-food_animate_dragonfly	0	G	4	0	108	0		0	0	78.2873275000602	78.387310099788
13317.25	0.0999667001888156	152	hunger	stimuli/foods\cherry.jpg	1	2	1	cherry	1	C	1	0	23	0		0	0	78.4373404998332	78.537307200022
13354.75	0.0999591997824609	153	hunger	stimuli/non_foods\non-food_animate_tortoise.jpg	1	2	1	non-food_animate_tortoise	0	F	3	0	153	0		0	0	78.5873206998222	78.6872798996046
13392.25	0.0999869001097977	154	hunger	stimuli/foods\peach.jpg	1	2	1	peach	1	V	15	0	238	0		0	0	78.7373166996986	78.8373035998084
13429.75	0.0999925001524389	155	hunger	stimuli/non_foods\non-food_inanimate_rack.jpg	1	2	1	non-food_inanimate_rack	0	J	6	0	202	0		0	0	78.8872965998016	78.9872890999541
13467.25	0.0999777996912599	156	hunger	stimuli/non_foods\non-food_inanimate_hay.jpg	1	2	1	non-food_inanimate_hay	0	V	15	0	187	0		0	0	79.0373092000373	79.1372869997285
13504.75	0.0999841000884771	157	hunger	stimuli/foods\spaghetti_with_meat_sauce.jpg	1	2	1	spaghetti_with_meat_sauce	1	Z	18	0	267	0		0	0	79.1873049996793	79.2872890997678
13542.25	0.0999977998435497	158	hunger	stimuli/non_foods\non-food_animate_porcupine.jpg	1	2	1	non-food_animate_porcupine	0	H	5	0	138	0		0	0	79.3372980998829	79.4372958997265
13579.75	0.0999857997521758	159	hunger	stimuli/non_foods\non-food_inanimate_lighter.jpg	1	2	1	non-food_inanimate_lighter	0	S	13	0	193	0		0	0	79.4873223998584	79.5873081996106
13617.25	0.0999793000519276	160	hunger	stimuli/non_foods\non-food_inanimate_ring.jpg	1	2	1	non-food_inanimate_ring	0	F	3	0	203	0		0	0	79.6373117999174	79.7372910999693
13654.75	0.0999852996319532	161	hunger	stimuli/non_foods\non-food_animate_frog.jpg	1	2	1	non-food_animate_frog	0	A	19	1	113	0		0	0	79.7873076000251	79.887292899657
13692.25	0.100004100240767	162	hunger	stimuli/non_foods\non-food_inanimate_wrench.jpg	1	2	1	non-food_inanimate_wrench	0	G	4	0	227	0		0	0	79.9372886996716	80.0372927999124
13729.75	0.100002999883145	163	hunger	stimuli/foods\celery.jpg	1	2	1	celery	1	R	12	0	21	1	a	0.391822799574584	1	80.0873068999499	80.1873098998331
13767.25	0.0999579001218081	164	hunger	stimuli/non_foods\non-food_animate_pigeon.jpg	1	2	1	non-food_animate_pigeon	0	N	10	0	136	0		0	0	80.2373315999284	80.3372895000502
13804.75	0.0999858998693526	165	hunger	stimuli/foods\apple.jpg	1	2	1	apple	1	J	6	0	1	0		0	0	80.3873005998321	80.4872864997014
13842.25	0.0999867999926209	166	hunger	stimuli/non_foods\non-food_inanimate_toilet.jpg	1	2	1	non-food_inanimate_toilet	0	B	0	0	220	0		0	0	80.5372926997952	80.6372794997878
13879.75	0.0999840004369617	167	hunger	stimuli/non_foods\non-food_inanimate_cap.jpg	1	2	1	non-food_inanimate_cap	0	F	3	0	171	0		0	0	80.6872957996093	80.7872798000462
13917.25	0.0999799999408424	168	hunger	stimuli/foods\rockmelon.jpg	1	2	1	rockmelon	1	Z	18	0	262	0		0	0	80.8372968998738	80.9372768998146
13954.75	0.0999859003350139	169	hunger	stimuli/foods\hazelnuts.jpg	1	2	1	hazelnuts	1	H	5	0	65	0		0	0	80.9872895996086	81.0872754999436
13992.25	0.100007800385356	170	hunger	stimuli/non_foods\non-food_animate_iguana.jpg	1	2	1	non-food_animate_iguana	0	R	12	0	121	0		0	0	81.1372896996327	81.237297500018
14029.75	0.0999621995724738	171	hunger	stimuli/foods\gnocchi.jpg	1	2	1	gnocchi	1	P	11	0	58	0		0	0	81.2873104000464	81.3872725996189
14067.25	0.0999873001128435	172	hunger	stimuli/foods\lamb_chops.jpg	1	2	1	lamb_chops	1	T	14	0	70	0		0	0	81.4372835997492	81.5372708998621
14104.75	0.0999880000017583	173	hunger	stimuli/foods\mortadella.jpg	1	2	1	mortadella	1	L	8	0	83	0		0	0	81.5872808997519	81.6872688997537
14142.25	0.0999978999607265	174	hunger	stimuli/non_foods\non-food_animate_killer_whale.jpg	1	2	1	non-food_animate_killer_whale	0	H	5	0	123	0		0	0	81.737279499881	81.8372773998417
14179.75	0.0999941001646221	175	hunger	stimuli/non_foods\non-food_animate_seahorse.jpg	1	2	1	non-food_animate_seahorse	0	G	4	0	145	0		0	0	81.8872884996235	81.9872825997882
14217.25	0.0999816996045411	176	hunger	stimuli/foods\oven-roasted_tomatoes.jpg	1	2	1	oven-roasted_tomatoes	1	B	0	0	232	0		0	0	82.0372818000615	82.137263499666
14254.75	0.0999839999713004	177	hunger	stimuli/non_foods\non-food_inanimate_suitcase.jpg	1	2	1	non-food_inanimate_suitcase	0	L	8	0	215	0		0	0	82.1872764998116	82.2872604997829
14292.25	0.0999857997521758	178	hunger	stimuli/foods\papaya.jpg	1	2	1	papaya	1	K	7	0	235	0		0	0	82.3372756000608	82.437261399813
14329.75	0.0999877997674048	179	hunger	stimuli/foods\pomegranate.jpg	1	2	1	pomegranate	1	V	15	0	244	0		0	0	82.4872707999311	82.5872585996985
14367.25	0.0999583997763693	180	hunger	stimuli/non_foods\non-food_inanimate_orchid.jpg	1	2	1	non-food_inanimate_orchid	0	G	4	0	198	0		0	0	82.6372739998624	82.7372323996387
14404.75	0.0999847003258765	181	hunger	stimuli/non_foods\non-food_animate_llama.jpg	1	2	1	non-food_animate_llama	0	M	9	0	127	0		0	0	82.7872698996216	82.8872545999475
14442.25	0.100003200117499	182	hunger	stimuli/foods\chestnut.jpg	1	2	1	chestnut	1	D	2	0	24	0		0	0	82.9372679996304	83.0372711997479
14479.75	0.0999652999453247	183	hunger	stimuli/non_foods\non-food_animate_cheetah.jpg	1	2	1	non-food_animate_cheetah	0	R	12	0	100	0		0	0	83.0872875996865	83.1872528996319
14517.25	0.0999831999652088	184	hunger	stimuli/non_foods\non-food_inanimate_briefcase.jpg	1	2	1	non-food_inanimate_briefcase	0	C	1	0	163	0		0	0	83.2372675999068	83.337250799872
14554.75	0.0999901997856796	185	hunger	stimuli/non_foods\non-food_inanimate_tree.jpg	1	2	1	non-food_inanimate_tree	0	Z	18	0	223	0		0	0	83.3872624998912	83.4872526996769
14592.25	0.0999906999059021	186	hunger	stimuli/non_foods\non-food_animate_camel.jpg	1	2	1	non-food_animate_camel	0	W	16	0	97	0		0	0	83.5372608997859	83.6372515996918
14629.75	0.0999878998845816	187	hunger	stimuli/non_foods\non-food_animate_gorilla.jpg	1	2	1	non-food_animate_gorilla	0	Z	18	0	116	0		0	0	83.6872566998936	83.7872445997782
14667.25	0.0999720999971032	188	hunger	stimuli/foods\cinnamon.jpg	1	2	1	cinnamon	1	B	0	0	30	0		0	0	83.8372716996819	83.937243799679
14704.75	0.09998539974913	189	hunger	stimuli/non_foods\non-food_inanimate_watering_can.jpg	1	2	1	non-food_inanimate_watering_can	0	P	11	0	225	0		0	0	83.9872568999417	84.0872422996908
14742.25	0.0999583001248538	190	hunger	stimuli/non_foods\non-food_animate_owl.jpg	1	2	1	non-food_animate_owl	0	X	17	0	132	0		0	0	84.1372555997223	84.2372138998471
14779.75	0.0999833000823855	191	hunger	stimuli/foods\linguine_with_clams.jpg	1	2	1	linguine_with_clams	1	V	15	0	77	0		0	0	84.2872470999137	84.387230399996
14817.25	0.0999846002086997	192	hunger	stimuli/foods\hotdog.jpg	1	2	1	hotdog	1	U	23	1	67	0		0	0	84.4372521997429	84.5372367999516
14854.75	0.0999967996031046	193	hunger	stimuli/foods\pancakes.jpg	1	2	1	pancakes	1	Z	18	0	234	0		0	0	84.5872402000241	84.6872369996272
14892.25	0.0999858998693526	194	hunger	stimuli/foods\ice_cream.jpg	1	2	1	ice_cream	1	R	12	0	68	0		0	0	84.7372496998869	84.8372355997562
14929.75	0.0999718001112342	195	hunger	stimuli/non_foods\non-food_animate_skunk.jpg	1	2	1	non-food_animate_skunk	0	G	4	0	147	0		0	0	84.8872435996309	84.9872153997421
14967.25	0.099984799977392	196	hunger	stimuli/foods\cauliflower.jpg	1	2	1	cauliflower	1	D	2	0	20	0		0	0	85.0372448000126	85.13722959999
15004.75	0.0999826998449862	197	hunger	stimuli/foods\chocolate_chip_cookies.jpg	1	2	1	chocolate_chip_cookies	1	M	9	0	27	0		0	0	85.1872449000366	85.2872275998816
15042.25	0.0999782001599669	198	hunger	stimuli/foods\cracker.jpg	1	2	1	cracker	1	L	8	0	38	1	a	0.893206799868494	1	85.3372406996787	85.4372188998386
15079.75	0.0999540998600423	199	hunger	stimuli/non_foods\non-food_inanimate_chandelier.jpg	1	2	1	non-food_inanimate_chandelier	0	R	12	0	173	0		0	0	85.4872649000026	85.5872189998627
15117.25	0.0999700999818742	200	hunger	stimuli/non_foods\non-food_inanimate_toy_airplane.jpg	1	2	1	non-food_inanimate_toy_airplane	0	V	15	0	222	0		0	0	85.6372384997085	85.7372085996903
15154.75	0.0999894998967648	201	hunger	stimuli/foods\bagel.jpg	1	2	1	bagel	1	F	3	0	6	0		0	0	85.7872281000018	85.8872175998986
15192.25	0.0999854998663068	202	hunger	stimuli/non_foods\non-food_inanimate_fern.jpg	1	2	1	non-food_inanimate_fern	0	N	10	0	180	0		0	0	85.9372351998463	86.0372206997126
15229.75	0.0999775999225676	203	hunger	stimuli/non_foods\non-food_inanimate_skirt.jpg	1	2	1	non-food_inanimate_skirt	0	H	5	0	209	0		0	0	86.0872337999754	86.1872113998979
15267.25	0.0999782001599669	204	hunger	stimuli/non_foods\non-food_animate_yellow_bug.jpg	1	2	1	non-food_animate_yellow_bug	0	F	3	0	155	0		0	0	86.2372245998122	86.3372027999721
15304.75	0.099982799962163	205	hunger	stimuli/foods\cannoli.jpg	1	2	1	cannoli	1	N	10	0	17	0		0	0	86.3872206998058	86.4872034997679
15342.25	0.100004999898374	206	hunger	stimuli/foods\lettuce.jpg	1	2	1	lettuce	1	M	9	0	75	0		0	0	86.5371996997856	86.6372046996839
15379.75	0.0999819003045559	207	hunger	stimuli/non_foods\non-food_animate_student_female.jpg	1	2	1	non-food_animate_student_female	0	V	15	0	151	0		0	0	86.6872198996134	86.787201799918
15417.25	0.0999802998267114	208	hunger	stimuli/foods\donut.jpg	1	2	1	donut	1	G	4	0	44	0		0	0	86.8372166999616	86.9371969997883
15454.75	0.0999954002909362	209	hunger	stimuli/foods\steak.jpg	1	2	1	steak	1	B	0	0	270	0		0	0	86.9872128996067	87.0872082998976
15492.25	0.0999664999544621	210	hunger	stimuli/non_foods\non-food_inanimate_broom.jpg	1	2	1	non-food_inanimate_broom	0	M	9	0	164	0		0	0	87.137220100034	87.2371865999885
15529.75	0.099932000041008	211	hunger	stimuli/non_foods\non-food_animate_young_boy.jpg	1	2	1	non-food_animate_young_boy	0	F	3	0	156	0		0	0	87.2872708998621	87.3872028999031
15567.25	0.0999858998693526	212	hunger	stimuli/foods\wafer.jpg	1	2	1	wafer	1	J	6	0	277	0		0	0	87.4372147000395	87.5372005999088
15604.75	0.0999867999926209	213	hunger	stimuli/non_foods\non-food_animate_millipede.jpg	1	2	1	non-food_animate_millipede	0	X	17	0	129	0		0	0	87.5872157998383	87.6872025998309
15642.25	0.0999849000945687	214	hunger	stimuli/non_foods\non-food_inanimate_towel.jpg	1	2	1	non-food_inanimate_towel	0	D	2	0	221	0		0	0	87.7372138998471	87.8371987999417
15679.75	0.0999781000427902	215	hunger	stimuli/foods\raisins.jpg	1	2	1	raisins	1	T	14	0	252	0		0	0	87.8872074997053	87.987185599748
15717.25	0.0999904000200331	216	hunger	stimuli/non_foods\non-food_inanimate_tent.jpg	1	2	1	non-food_inanimate_tent	0	V	15	0	219	0		0	0	88.037206699606	88.1371970996261
15754.75	0.0999818998388946	217	hunger	stimuli/foods\fruit_flan.jpg	1	2	1	fruit_flan	1	S	13	0	53	0		0	0	88.1872085998766	88.2871904997155
15792.25	0.0999651998281479	218	hunger	stimuli/non_foods\non-food_inanimate_drum_set.jpg	1	2	1	non-food_inanimate_drum_set	0	H	5	0	179	0		0	0	88.3372253999114	88.4371905997396
15829.75	0.0999881001189351	219	hunger	stimuli/non_foods\non-food_inanimate_soccer_ball.jpg	1	2	1	non-food_inanimate_soccer_ball	0	C	1	0	210	0		0	0	88.4872046997771	88.587192799896
15867.25	0.0999870002269745	220	hunger	stimuli/foods\pineapple.jpg	1	2	1	pineapple	1	B	0	0	243	0		0	0	88.6372006996535	88.7371876998805
15904.75	0.0999872996471822	221	hunger	stimuli/foods\cooked_prawn.jpg	1	2	1	cooked_prawn	1	K	7	0	36	0		0	0	88.7871995000169	88.8871867996641
15942.25	0.0999945001676679	222	hunger	stimuli/foods\tomato.jpg	1	2	1	tomato	1	J	6	0	276	0		0	0	88.9371989998035	89.0371934999712
15979.75	0.0999451000243425	223	hunger	stimuli/non_foods\non-food_animate_penguin.jpg	1	2	1	non-food_animate_penguin	0	M	9	0	135	0		0	0	89.0872376998886	89.187182799913
16017.25	0.0999850002117455	224	hunger	stimuli/foods\cinnamon_sroll.jpg	1	2	1	cinnamon_sroll	1	S	13	0	31	0		0	0	89.237196999602	89.3371819998138
16054.75	0.0999811999499798	225	hunger	stimuli/foods\apricot.jpg	1	2	1	apricot	1	M	9	0	2	0		0	0	89.3871935997158	89.4871747996658
16092.25	0.0999884000048041	226	hunger	stimuli/foods\asparagus.jpg	1	2	1	asparagus	1	X	17	0	4	0		0	0	89.5371905998327	89.6371789998375
16129.75	0.0999838002026081	227	hunger	stimuli/non_foods\non-food_inanimate_cupboard.jpg	1	2	1	non-food_inanimate_cupboard	0	R	12	0	177	0		0	0	89.6871897997335	89.7871735999361
16167.25	0.0999841000884771	228	hunger	stimuli/foods\brussel_sprouts.jpg	1	2	1	brussel_sprouts	1	L	8	0	15	0		0	0	89.8371885996312	89.9371726997197
16204.75	0.0999900000169873	229	hunger	stimuli/non_foods\non-food_animate_hummingbird.jpg	1	2	1	non-food_animate_hummingbird	0	Z	18	0	120	0		0	0	89.9871839997359	90.0871739997528
16242.25	0.0999696999788284	230	hunger	stimuli/foods\eggplant.jpg	1	2	1	eggplant	1	C	1	0	46	0		0	0	90.1372002996504	90.2371699996293
16279.75	0.0999904000200331	231	hunger	stimuli/non_foods\non-food_animate_alligator.jpg	1	2	1	non-food_animate_alligator	0	J	6	0	90	0		0	0	90.287181599997	90.387172000017
16317.25	0.0999993998557329	232	hunger	stimuli/non_foods\non-food_inanimate_button.jpg	1	2	1	non-food_inanimate_button	0	B	0	0	168	0		0	0	90.4371674000286	90.5371667998843
16354.75	0.0999859999865294	233	hunger	stimuli/non_foods\non-food_animate_sea_turtle.jpg	1	2	1	non-food_animate_sea_turtle	0	D	2	0	144	0		0	0	90.5871784999035	90.6871644998901
16392.25	0.0999920000322163	234	hunger	stimuli/foods\radish.jpg	1	2	1	radish	1	Z	18	0	251	0		0	0	90.7371818996035	90.8371738996357
16429.75	0.0999647001735866	235	hunger	stimuli/non_foods\non-food_animate_duck.jpg	1	2	1	non-food_animate_duck	0	M	9	0	109	0		0	0	90.8871950996108	90.9871597997844
16467.25	0.0999878998845816	236	hunger	stimuli/foods\fried_zucchini.jpg	1	2	1	fried_zucchini	1	W	16	0	51	0		0	0	91.0371715999208	91.1371594998054
16504.75	0.0999869997613132	237	hunger	stimuli/foods\clams.jpg	1	2	1	clams	1	D	2	0	32	0		0	0	91.1871727998368	91.2871597995982
16542.25	0.0999966999515891	238	hunger	stimuli/non_foods\non-food_inanimate_scissors.jpg	1	2	1	non-food_inanimate_scissors	0	H	5	0	205	0		0	0	91.3371516000479	91.4371482999995
16579.75	0.0999950999394059	239	hunger	stimuli/non_foods\non-food_inanimate_bed.jpg	1	2	1	non-food_inanimate_bed	0	Z	18	0	160	0		0	0	91.4871616996825	91.5871567996219
16617.25	0.0999916000291705	240	hunger	stimuli/foods\red_beans.jpg	1	2	1	red_beans	1	G	4	0	255	0		0	0	91.6371605996974	91.7371521997266
16654.75	0.0999622996896505	241	hunger	stimuli/foods\beetroots.jpg	1	2	1	beetroots	1	D	2	0	10	0		0	0	91.7871594000608	91.8871216997504
16692.25	0.0999688999727368	242	hunger	stimuli/non_foods\non-food_animate_chicken.jpg	1	2	1	non-food_animate_chicken	0	X	17	0	101	0		0	0	91.9371869000606	92.0371558000334
16729.75	0.0999809997156262	243	hunger	stimuli/foods\prawn.jpg	1	2	1	prawn	1	N	10	0	249	0		0	0	92.0871677999385	92.1871487996541
16767.25	0.099982799962163	244	hunger	stimuli/foods\baked_cod_with_carrots_and_green_beans.jpg	1	2	1	baked_cod_with_carrots_and_green_beans	1	R	12	0	7	0		0	0	92.2371608000249	92.337143599987
16804.75	0.0999880000017583	245	hunger	stimuli/non_foods\non-food_animate_horse.jpg	1	2	1	non-food_animate_horse	0	L	8	0	119	0		0	0	92.3871577996761	92.4871457996778
16842.25	0.0999917997978628	246	hunger	stimuli/non_foods\non-food_animate_bat.jpg	1	2	1	non-food_animate_bat	0	P	11	0	94	0		0	0	92.5371619998477	92.6371537996456
16879.75	0.0999655998311937	247	hunger	stimuli/non_foods\non-food_inanimate_chair.jpg	1	2	1	non-food_inanimate_chair	0	L	8	0	172	0		0	0	92.6871572998352	92.7871228996664
16917.25	0.0999865997582674	248	hunger	stimuli/foods\watermelon.jpg	1	2	1	watermelon	1	S	13	0	279	0		0	0	92.8371542999521	92.9371408997104
16954.75	0.0999770001508296	249	hunger	stimuli/non_foods\non-food_inanimate_horn.jpg	1	2	1	non-food_inanimate_horn	0	R	12	0	190	0		0	0	92.9871506998315	93.0871276999824
16992.25	0.100001899991184	250	hunger	stimuli/non_foods\non-food_inanimate_folding_chair.jpg	1	2	1	non-food_inanimate_folding_chair	0	F	3	0	182	0		0	0	93.1371383997612	93.2371402997524
17029.75	0.0999860996380448	251	hunger	stimuli/foods\kiwi.jpg	1	2	1	kiwi	1	N	10	0	69	0		0	0	93.287142300047	93.387128399685
17067.25	0.0999814998358488	252	hunger	stimuli/non_foods\non-food_inanimate_short_sleeved_shirt.jpg	1	2	1	non-food_inanimate_short_sleeved_shirt	0	J	6	0	207	0		0	0	93.4371491000056	93.5371305998415
17104.75	0.0999902002513409	253	hunger	stimuli/foods\cucumber.jpg	1	2	1	cucumber	1	T	14	0	41	0		0	0	93.5871468996629	93.6871370999143
17142.25	0.099968200083822	254	hunger	stimuli/foods\peas.jpg	1	2	1	peas	1	M	9	0	240	0		0	0	93.737152799964	93.8371210000478
17179.75	0.099985099863261	255	hunger	stimuli/foods\croissant.jpg	1	2	1	croissant	1	P	11	0	40	0		0	0	93.8871360998601	93.9871211997233
17217.25	0.0999858998693526	256	hunger	stimuli/foods\spinach.jpg	1	2	1	spinach	1	K	7	0	268	0		0	0	94.0371294999495	94.1371153998189
17254.75	0.0999742997810245	257	hunger	stimuli/foods\swordfish.jpg	1	2	1	swordfish	1	R	12	0	273	0		0	0	94.1871263999492	94.2871006997302
17292.25	0.0999837997369468	258	hunger	stimuli/foods\smoked_ham.jpg	1	2	1	smoked_ham	1	X	17	0	266	0		0	0	94.3371526999399	94.4371364996769
17329.75	0.0999810001812875	259	hunger	stimuli/non_foods\non-food_animate_Asian_man.jpg	1	2	1	non-food_animate_Asian_man	0	V	15	0	88	0		0	0	94.487135599833	94.5871166000143
17367.25	0.0999843003228307	260	hunger	stimuli/foods\lentils.jpg	1	2	1	lentils	1	G	4	0	74	0		0	0	94.6371346996166	94.7371189999394
17404.75	0.0999865997582674	261	hunger	stimuli/non_foods\non-food_inanimate_protractor.jpg	1	2	1	non-food_inanimate_protractor	0	S	13	0	201	0		0	0	94.7871288000606	94.8871153998189
17442.25	0.0999850002117455	262	hunger	stimuli/foods\lime.jpg	1	2	1	lime	1	C	1	0	76	0		0	0	94.937127399724	95.0371123999357
17479.75	0.0999842002056539	263	hunger	stimuli/foods\rice.jpg	1	2	1	rice	1	J	6	0	257	0		0	0	95.0871294997633	95.1871136999689
17517.25	0.0999838998541236	264	hunger	stimuli/non_foods\non-food_inanimate_gloves.jpg	1	2	1	non-food_inanimate_gloves	0	D	2	0	183	0		0	0	95.237125699874	95.3371095997281
17554.75	0.100005100015551	265	hunger	stimuli/foods\egg.jpg	1	2	1	egg	1	H	5	0	45	0		0	0	95.3871237998828	95.4871288998984
17592.25	0.0999822998419404	266	hunger	stimuli/foods\meatballs.jpg	1	2	1	meatballs	1	G	4	0	81	0		0	0	95.5371396997944	95.6371219996363
17629.75	0.0999851999804378	267	hunger	stimuli/foods\lasagna.jpg	1	2	1	lasagna	1	D	2	0	71	0		0	0	95.6871209996752	95.7871061996557
17667.25	0.0999976000748575	268	hunger	stimuli/non_foods\non-food_inanimate_nest.jpg	1	2	1	non-food_inanimate_nest	0	X	17	0	196	0		0	0	95.8371100998484	95.9371076999232
17704.75	0.0999865001067519	269	hunger	stimuli/non_foods\non-food_inanimate_highlighter.jpg	1	2	1	non-food_inanimate_highlighter	0	B	0	0	189	0		0	0	95.9871189999394	96.0871055000462
17742.25	0.0999929001554847	270	hunger	stimuli/foods\risotto_with_peas_and_asparagus_tips.jpg	1	2	1	risotto_with_peas_and_asparagus_tips	1	D	2	0	259	0		0	0	96.1371093997732	96.2371022999287
17779.75	0.0999688999727368	271	hunger	stimuli/foods\cereal.jpg	1	2	1	cereal	1	B	0	0	22	0		0	0	96.2871297998354	96.3870986998081
17817.25	0.0999857997521758	272	hunger	stimuli/foods\nectarine.jpg	1	2	1	nectarine	1	T	14	0	87	0		0	0	96.4371096999384	96.5370954996906
17854.75	0.0999898998998106	273	hunger	stimuli/non_foods\non-food_animate_german_shepherd.jpg	1	2	1	non-food_animate_german_shepherd	0	P	11	0	114	0		0	0	96.5871065999381	96.6870964998379
17892.25	0.0999837000854313	274	hunger	stimuli/foods\mushroom.jpg	1	2	1	mushroom	1	D	2	0	85	0		0	0	96.7371077998541	96.8370914999396
17929.75	0.0999855999834836	275	hunger	stimuli/foods\dates.jpg	1	2	1	dates	1	R	12	0	43	0		0	0	96.8871067999862	96.9870923999697
17967.25	0.0999871999956667	276	hunger	stimuli/foods\lemon_meringue_pie.jpg	1	2	1	lemon_meringue_pie	1	G	4	0	73	0		0	0	97.0371035998687	97.1370907998644
18004.75	0.0999850002117455	277	hunger	stimuli/foods\oregano.jpg	1	2	1	oregano	1	K	7	0	231	0		0	0	97.1871055997908	97.2870906000026
18042.25	0.0999989002011716	278	hunger	stimuli/foods\mussels.jpg	1	2	1	mussels	1	N	10	0	86	0		0	0	97.337099999655	97.4370988998562
18079.75	0.0999855999834836	279	hunger	stimuli/foods\pickles.jpg	1	2	1	pickles	1	M	9	0	242	0		0	0	97.4870989997871	97.5870845997706
19279.75	0.0999769000336528	280	hunger	stimuli/foods\celery.jpg	1	3	1	celery	1	M	9	0	21	0		0	0	102.287051999941	102.387028899975
19317.25	0.0999877001158893	281	hunger	stimuli/non_foods\non-food_animate_gorilla.jpg	1	3	1	non-food_animate_gorilla	0	H	5	0	116	0		0	0	102.43704439979	102.537032099906
19354.75	0.0999829000793397	282	hunger	stimuli/foods\dates.jpg	1	3	1	dates	1	M	9	0	43	0		0	0	102.587045599706	102.687028499786
19392.25	0.0999877001158893	283	hunger	stimuli/foods\swordfish.jpg	1	3	1	swordfish	1	J	6	0	273	0		0	0	102.737037899904	102.83702560002
19429.75	0.100000200327486	284	hunger	stimuli/non_foods\non-food_animate_ant.jpg	1	3	1	non-food_animate_ant	0	H	5	0	91	0		0	0	102.887039399706	102.987039600033
19467.25	0.0999857997521758	285	hunger	stimuli/non_foods\non-food_inanimate_shell.jpg	1	3	1	non-food_inanimate_shell	0	C	1	0	206	0		0	0	103.037036099937	103.137021899689
19504.75	0.09998709987849	286	hunger	stimuli/non_foods\non-food_inanimate_buds.jpg	1	3	1	non-food_inanimate_buds	0	V	15	0	166	0		0	0	103.187035799958	103.287022899836
19542.25	0.0999841000884771	287	hunger	stimuli/foods\fruit_pie.jpg	1	3	1	fruit_pie	1	R	12	0	54	0		0	0	103.337034599856	103.437018699944
19579.75	0.0999718997627497	288	hunger	stimuli/non_foods\non-food_animate_bee.jpg	1	3	1	non-food_animate_bee	0	W	16	0	95	0		0	0	103.487027999945	103.586999899708
19617.25	0.0999666000716388	289	hunger	stimuli/foods\artichoke.jpg	1	3	1	artichoke	1	J	6	0	3	0		0	0	103.63704829989	103.737014899962
19654.75	0.0999857001006603	290	hunger	stimuli/non_foods\non-food_inanimate_nest.jpg	1	3	1	non-food_inanimate_nest	0	S	13	0	196	0		0	0	103.787024799734	103.887010499835
19692.25	0.0999880000017583	291	hunger	stimuli/foods\watermelon.jpg	1	3	1	watermelon	1	W	16	0	279	0		0	0	103.937022699974	104.037010699976
19729.75	0.0999687998555601	292	hunger	stimuli/foods\chocolate_pralines.jpg	1	3	1	chocolate_pralines	1	M	9	0	28	0		0	0	104.087024999782	104.186993799638
19767.25	0.0999879003502429	293	hunger	stimuli/foods\hamburger.jpg	1	3	1	hamburger	1	B	0	0	64	0		0	0	104.23701979965	104.3370077
19804.75	0.0999857001006603	294	hunger	stimuli/foods\salmon.jpg	1	3	1	salmon	1	R	12	0	264	0		0	0	104.387022699695	104.487008399796
19842.25	0.0999837000854313	295	hunger	stimuli/non_foods\non-food_inanimate_tent.jpg	1	3	1	non-food_inanimate_tent	0	G	4	0	219	0		0	0	104.53701759968	104.637001299765
19879.75	0.0999777000397444	296	hunger	stimuli/foods\cooked_ham.jpg	1	3	1	cooked_ham	1	N	10	0	35	0		0	0	104.687024399638	104.787002099678
19917.25	0.0999865001067519	297	hunger	stimuli/foods\avocado.jpg	1	3	1	avocado	1	G	4	0	5	0		0	0	104.837014799938	104.937001300044
19954.75	0.0999889001250267	298	hunger	stimuli/non_foods\non-food_animate_seahorse.jpg	1	3	1	non-food_animate_seahorse	0	C	1	0	145	0		0	0	104.987009899691	105.086998799816
19992.25	0.0999881001189351	299	hunger	stimuli/foods\prawn.jpg	1	3	1	prawn	1	L	8	0	249	0		0	0	105.137009699829	105.236997799948
20029.75	0.100003799889237	300	hunger	stimuli/foods\eggplant.jpg	1	3	1	eggplant	1	P	11	0	46	0		0	0	105.287011499982	105.387015299872
20067.25	0.0999438995495439	301	hunger	stimuli/foods\broccoli.jpg	1	3	1	broccoli	1	D	2	0	13	0		0	0	105.437049000058	105.536992899608
20104.75	0.0999840996228158	302	hunger	stimuli/foods\asparagus.jpg	1	3	1	asparagus	1	C	1	0	4	0		0	0	105.587008500006	105.686992599629
20142.25	0.0999869997613132	303	hunger	stimuli/non_foods\non-food_animate_lion.jpg	1	3	1	non-food_animate_lion	0	K	7	0	125	0		0	0	105.737000599969	105.83698759973
20179.75	0.0999889001250267	304	hunger	stimuli/non_foods\non-food_inanimate_table.jpg	1	3	1	non-food_inanimate_table	0	X	17	0	217	0		0	0	105.8870037999	105.986992700025
20217.25	0.0999825000762939	305	hunger	stimuli/foods\cupcake.jpg	1	3	1	cupcake	1	E	20	1	42	0		0	0	106.037001799792	106.136984299868
20254.75	0.0999863999895751	306	hunger	stimuli/non_foods\non-food_inanimate_button.jpg	1	3	1	non-food_inanimate_button	0	N	10	0	168	0		0	0	106.186996500008	106.286982899997
20292.25	0.0999878002330661	307	hunger	stimuli/non_foods\non-food_animate_mouse.jpg	1	3	1	non-food_animate_mouse	0	W	16	0	131	0		0	0	106.336994799785	106.436982600018
20329.75	0.099972799886018	308	hunger	stimuli/non_foods\non-food_animate_green_bug.jpg	1	3	1	non-food_animate_green_bug	0	H	5	0	118	1	a	0.443141499999911	1	106.487006899901	106.586979699787
20367.25	0.0999861997552216	309	hunger	stimuli/foods\oyster.jpg	1	3	1	oyster	1	L	8	0	233	0		0	0	106.636996599846	106.736982799601
20404.75	0.099980799946934	310	hunger	stimuli/foods\lemon.jpg	1	3	1	lemon	1	M	9	0	72	0		0	0	106.786993099842	106.886973899789
20442.25	0.0999855999834836	311	hunger	stimuli/non_foods\non-food_inanimate_bamboo.jpg	1	3	1	non-food_inanimate_bamboo	0	K	7	0	159	0		0	0	106.936983899679	107.036969499663
20479.75	0.0999720999971032	312	hunger	stimuli/non_foods\non-food_animate_frog.jpg	1	3	1	non-food_animate_frog	0	T	14	0	113	0		0	0	107.087007799651	107.186979899649
20517.25	0.0999621995724738	313	hunger	stimuli/non_foods\non-food_animate_owl.jpg	1	3	1	non-food_animate_owl	0	L	8	0	132	0		0	0	107.237010600045	107.336972799618
20554.75	0.0999869997613132	314	hunger	stimuli/foods\risotto_with_peas_and_asparagus_tips.jpg	1	3	1	risotto_with_peas_and_asparagus_tips	1	N	10	0	259	0		0	0	107.386986699887	107.486973699648
20592.25	0.0999898998998106	315	hunger	stimuli/foods\mushroom.jpg	1	3	1	mushroom	1	J	6	0	85	0		0	0	107.536979099736	107.636968999635
20629.75	0.0999859999865294	316	hunger	stimuli/non_foods\non-food_animate_woman.jpg	1	3	1	non-food_animate_woman	0	M	9	0	154	0		0	0	107.686980799772	107.786966799758
20667.25	0.0999862998723984	317	hunger	stimuli/foods\potatoes.jpg	1	3	1	potatoes	1	X	17	0	248	0		0	0	107.83698110003	107.936967399903
20704.75	0.0999854002147913	318	hunger	stimuli/non_foods\non-food_inanimate_grass.jpg	1	3	1	non-food_inanimate_grass	0	L	8	0	184	0		0	0	107.986976999789	108.086962400004
20742.25	0.0999888000078499	319	hunger	stimuli/foods\cauliflower.jpg	1	3	1	cauliflower	1	T	14	0	20	0		0	0	108.136976900045	108.236965700053
20779.75	0.0999831003136933	320	hunger	stimuli/foods\linguine_with_clams.jpg	1	3	1	linguine_with_clams	1	L	8	0	77	0		0	0	108.286978599615	108.386961699929
20817.25	0.099984799977392	321	hunger	stimuli/foods\cooked_prawn.jpg	1	3	1	cooked_prawn	1	P	11	0	36	0		0	0	108.436972599942	108.53695739992
20854.75	0.0999891995452344	322	hunger	stimuli/non_foods\non-food_inanimate_guitar.jpg	1	3	1	non-food_inanimate_guitar	0	L	8	0	185	0		0	0	108.586969600059	108.686958799604
20892.25	0.0999583001248538	323	hunger	stimuli/non_foods\non-food_animate_snail.jpg	1	3	1	non-food_animate_snail	0	H	5	0	149	0		0	0	108.736972499639	108.836930799764
20929.75	0.100017200224102	324	hunger	stimuli/non_foods\non-food_inanimate_stoplight.jpg	1	3	1	non-food_inanimate_stoplight	0	X	17	0	214	0		0	0	108.886976299807	108.986993500032
20967.25	0.099978799931705	325	hunger	stimuli/non_foods\non-food_inanimate_bowling_ball.jpg	1	3	1	non-food_inanimate_bowling_ball	0	C	1	0	162	0		0	0	109.03696659999	109.136945399921
21004.75	0.0999885001219809	326	hunger	stimuli/non_foods\non-food_animate_Causasian_man.jpg	1	3	1	non-food_animate_Causasian_man	0	V	15	0	89	0		0	0	109.186955899931	109.286944400053
21042.25	0.0999838002026081	327	hunger	stimuli/foods\radish.jpg	1	3	1	radish	1	N	10	0	251	0		0	0	109.336957399733	109.436941199936
21079.75	0.0999957998283207	328	hunger	stimuli/non_foods\non-food_inanimate_speakers.jpg	1	3	1	non-food_inanimate_speakers	0	J	6	0	212	0		0	0	109.486952399835	109.586948199663
21117.25	0.0999855999834836	329	hunger	stimuli/foods\carrot.jpg	1	3	1	carrot	1	M	9	0	19	0		0	0	109.636960399803	109.736945999786
21154.75	0.0999698997475207	330	hunger	stimuli/non_foods\non-food_animate_student_female.jpg	1	3	1	non-food_animate_student_female	0	S	13	0	151	0		0	0	109.786954700015	109.886924599763
21192.25	0.0999774998053908	331	hunger	stimuli/non_foods\non-food_animate_porcupine.jpg	1	3	1	non-food_animate_porcupine	0	Z	18	0	138	0		0	0	109.936957899947	110.036935399752
21229.75	0.0999934999272227	332	hunger	stimuli/non_foods\non-food_inanimate_nailpolish.jpg	1	3	1	non-food_inanimate_nailpolish	0	J	6	0	195	0		0	0	110.086956799962	110.186950299889
21267.25	0.0999848004430532	333	hunger	stimuli/non_foods\non-food_inanimate_wrench.jpg	1	3	1	non-food_inanimate_wrench	0	M	9	0	227	0		0	0	110.236953799613	110.336938600056
21304.75	0.0999853000976145	334	hunger	stimuli/non_foods\non-food_animate_peacock.jpg	1	3	1	non-food_animate_peacock	0	C	1	0	134	0		0	0	110.38694779994	110.486933100037
21342.25	0.0999890002422035	335	hunger	stimuli/foods\mandarin.jpg	1	3	1	mandarin	1	T	14	0	79	0		0	0	110.536947599612	110.636936599854
21379.75	0.0999961001798511	336	hunger	stimuli/foods\fennel.jpg	1	3	1	fennel	1	U	23	1	47	0		0	0	110.686953399796	110.786949499976
21417.25	0.0999555997550488	337	hunger	stimuli/non_foods\non-food_inanimate_bush.jpg	1	3	1	non-food_inanimate_bush	0	T	14	0	167	0		0	0	110.836974699982	110.936930299737
21454.75	0.0999839999713004	338	hunger	stimuli/non_foods\non-food_animate_kangaroo.jpg	1	3	1	non-food_animate_kangaroo	0	L	8	0	122	0		0	0	110.986944799777	111.086928799748
21492.25	0.0999968000687659	339	hunger	stimuli/non_foods\non-food_animate_cat.jpg	1	3	1	non-food_animate_cat	0	X	17	0	98	0		0	0	111.136922799982	111.236919600051
21529.75	0.0999654997140169	340	hunger	stimuli/non_foods\non-food_animate_caterpillar.jpg	1	3	1	non-food_animate_caterpillar	0	Z	18	0	99	1	a	0.593323600012809	1	111.286941200029	111.386906699743
21567.25	0.0999881001189351	341	hunger	stimuli/non_foods\non-food_inanimate_moss.jpg	1	3	1	non-food_inanimate_moss	0	J	6	0	194	0		0	0	111.436938699801	111.536926799919
21604.75	0.0999834998510778	342	hunger	stimuli/non_foods\non-food_animate_lizard.jpg	1	3	1	non-food_animate_lizard	0	T	14	0	126	0		0	0	111.58693780005	111.686921299901
21642.25	0.0999909997917712	343	hunger	stimuli/non_foods\non-food_animate_duck.jpg	1	3	1	non-food_animate_duck	0	K	7	0	109	0		0	0	111.736932599917	111.836923599709
21679.75	0.0999894998967648	344	hunger	stimuli/foods\hazelnuts.jpg	1	3	1	hazelnuts	1	S	13	0	65	0		0	0	111.88693040004	111.986919899937
21717.25	0.0999888996593654	345	hunger	stimuli/foods\apple.jpg	1	3	1	apple	1	X	17	0	1	0		0	0	112.036931599956	112.136920499615
21754.75	0.0999853000976145	346	hunger	stimuli/non_foods\non-food_inanimate_fern.jpg	1	3	1	non-food_inanimate_fern	0	N	10	0	180	0		0	0	112.186930799857	112.286916099954
21792.25	0.099976799916476	347	hunger	stimuli/non_foods\non-food_animate_ram.jpg	1	3	1	non-food_animate_ram	0	W	16	0	140	0		0	0	112.336909099948	112.436885899864
21829.75	0.0999871999956667	348	hunger	stimuli/foods\rice.jpg	1	3	1	rice	1	C	1	0	257	0		0	0	112.486940799747	112.586927999742
21867.25	0.0999563997611403	349	hunger	stimuli/foods\honey.jpg	1	3	1	honey	1	Z	18	0	66	0		0	0	112.636927499902	112.736883899663
21904.75	0.0999859999865294	350	hunger	stimuli/foods\nectarine.jpg	1	3	1	nectarine	1	K	7	0	87	0		0	0	112.786921399646	112.886907399632
21942.25	0.0999815003015101	351	hunger	stimuli/foods\hotdog.jpg	1	3	1	hotdog	1	T	14	0	67	0		0	0	112.936922699679	113.03690419998
21979.75	0.0999871999956667	352	hunger	stimuli/non_foods\non-food_inanimate_pine_cone.jpg	1	3	1	non-food_inanimate_pine_cone	0	F	3	0	200	0		0	0	113.086918399669	113.186905599665
22017.25	0.0999914999119937	353	hunger	stimuli/foods\pea_pod.jpg	1	3	1	pea_pod	1	X	17	0	237	0		0	0	113.236916699912	113.336908199824
22054.75	0.0999751002527773	354	hunger	stimuli/non_foods\non-food_inanimate_scissors.jpg	1	3	1	non-food_inanimate_scissors	0	D	2	0	205	0		0	0	113.386919399723	113.486894499976
22092.25	0.0999871999956667	355	hunger	stimuli/foods\grilled_chicken_breast.jpg	1	3	1	grilled_chicken_breast	1	W	16	0	63	0		0	0	113.536915799603	113.636902999599
22129.75	0.0999750001356006	356	hunger	stimuli/non_foods\non-food_animate_fox.jpg	1	3	1	non-food_animate_fox	0	D	2	0	112	0		0	0	113.686926799826	113.786901799962
22167.25	0.0999723998829722	357	hunger	stimuli/foods\gnocchi.jpg	1	3	1	gnocchi	1	J	6	0	58	0		0	0	113.836912999861	113.936885399744
22204.75	0.0999839999713004	358	hunger	stimuli/non_foods\non-food_animate_llama.jpg	1	3	1	non-food_animate_llama	0	K	7	0	127	0		0	0	113.986904900055	114.086888900027
22242.25	0.100023600272834	359	hunger	stimuli/non_foods\non-food_inanimate_padlock.jpg	1	3	1	non-food_inanimate_padlock	0	B	0	0	199	0		0	0	114.136891499627	114.2369150999
22279.75	0.0999664003029466	360	hunger	stimuli/non_foods\non-food_inanimate_skirt.jpg	1	3	1	non-food_inanimate_skirt	0	X	17	0	209	0		0	0	114.286924999673	114.386891399976
22317.25	0.0999886998906732	361	hunger	stimuli/foods\orange.jpg	1	3	1	orange	1	M	9	0	230	0		0	0	114.436902099755	114.536890799645
22354.75	0.0999796995893121	362	hunger	stimuli/foods\lime.jpg	1	3	1	lime	1	L	8	0	76	0		0	0	114.586904800031	114.686884499621
22392.25	0.0999897997826338	363	hunger	stimuli/foods\kiwi.jpg	1	3	1	kiwi	1	P	11	0	69	0		0	0	114.736896499991	114.836886299774
22429.75	0.0999878998845816	364	hunger	stimuli/non_foods\non-food_animate_yellow_bug.jpg	1	3	1	non-food_animate_yellow_bug	0	Z	18	0	155	0		0	0	114.886899599805	114.98688749969
22467.25	0.0999889997765422	365	hunger	stimuli/non_foods\non-food_inanimate_chandelier.jpg	1	3	1	non-food_inanimate_chandelier	0	D	2	0	173	0		0	0	115.03689550003	115.136884499807
22504.75	0.0999900000169873	366	hunger	stimuli/foods\raw_ham.jpg	1	3	1	raw_ham	1	B	0	0	253	0		0	0	115.186893699691	115.286883699708
22542.25	0.0999867999926209	367	hunger	stimuli/non_foods\non-food_animate_butterfly.jpg	1	3	1	non-food_animate_butterfly	0	K	7	0	96	0		0	0	115.336893899832	115.436880699825
22579.75	0.0999878002330661	368	hunger	stimuli/foods\pomegranate.jpg	1	3	1	pomegranate	1	L	8	0	244	0		0	0	115.486889499705	115.586877299938
22617.25	0.0999854998663068	369	hunger	stimuli/foods\cucumber.jpg	1	3	1	cucumber	1	C	1	0	41	0		0	0	115.636866800021	115.736852299888
22654.75	0.0999995996244252	370	hunger	stimuli/non_foods\non-food_animate_raccoon.jpg	1	3	1	non-food_animate_raccoon	0	W	16	0	139	0		0	0	115.786874799989	115.886874399614
22692.25	0.0999829000793397	371	hunger	stimuli/foods\minestrone_soup.jpg	1	3	1	minestrone_soup	1	F	3	0	82	0		0	0	115.936885599978	116.036868500058
22729.75	0.0999715002253652	372	hunger	stimuli/foods\strawberry.jpg	1	3	1	strawberry	1	P	11	0	272	0		0	0	116.086899699643	116.186871199869
22767.25	0.0999857997521758	373	hunger	stimuli/foods\mussels.jpg	1	3	1	mussels	1	N	10	0	86	0		0	0	116.236881699879	116.336867499631
22804.75	0.099987399764359	374	hunger	stimuli/non_foods\non-food_animate_dolphin.jpg	1	3	1	non-food_animate_dolphin	0	X	17	0	106	0		0	0	116.3868813999	116.486868799664
22842.25	0.09998709987849	375	hunger	stimuli/non_foods\non-food_animate_grasshopper.jpg	1	3	1	non-food_animate_grasshopper	0	P	11	0	117	0		0	0	116.53688179981	116.636868899688
22879.75	0.0999854998663068	376	hunger	stimuli/foods\fruit_salad.jpg	1	3	1	fruit_salad	1	L	8	0	55	0		0	0	116.686878100038	116.786863599904
22917.25	0.0999831003136933	377	hunger	stimuli/non_foods\non-food_inanimate_cactus_pot_plant.jpg	1	3	1	non-food_inanimate_cactus_pot_plant	0	V	15	0	169	0		0	0	116.836875899695	116.936859000009
22954.75	0.0999855003319681	378	hunger	stimuli/foods\brie.jpg	1	3	1	brie	1	G	4	0	12	0		0	0	116.986873999704	117.086859500036
22992.25	0.100011200178415	379	hunger	stimuli/foods\roasted_chicken.jpg	1	3	1	roasted_chicken	1	P	11	0	261	0		0	0	117.136873699725	117.236884899903
23029.75	0.0999861001037061	380	hunger	stimuli/non_foods\non-food_animate_cheetah.jpg	1	3	1	non-food_animate_cheetah	0	G	4	0	100	0		0	0	117.286873799749	117.386859899852
23067.25	0.0999860004521906	381	hunger	stimuli/non_foods\non-food_animate_monkey.jpg	1	3	1	non-food_animate_monkey	0	L	8	0	130	0		0	0	117.43686779961	117.536853800062
23104.75	0.0999901001341641	382	hunger	stimuli/foods\cream_donuts.jpg	1	3	1	cream_donuts	1	S	13	0	39	0		0	0	117.586866699625	117.686856799759
23142.25	0.100004800129682	383	hunger	stimuli/non_foods\non-food_animate_slug.jpg	1	3	1	non-food_animate_slug	0	D	2	0	148	0		0	0	117.736868799664	117.836873599794
23179.75	0.0999386999756098	384	hunger	stimuli/non_foods\non-food_inanimate_bed.jpg	1	3	1	non-food_inanimate_bed	0	F	3	0	160	0		0	0	117.886909699999	117.986848399974
23217.25	0.099983399733901	385	hunger	stimuli/non_foods\non-food_inanimate_ring.jpg	1	3	1	non-food_inanimate_ring	0	V	15	0	203	0		0	0	118.036872799974	118.136856199708
23254.75	0.100013299845159	386	hunger	stimuli/non_foods\non-food_animate_polar_bear.jpg	1	3	1	non-food_animate_polar_bear	0	P	11	0	137	0		0	0	118.186833899934	118.286847199779
23292.25	0.0999757000245154	387	hunger	stimuli/foods\wafer.jpg	1	3	1	wafer	1	R	12	0	277	0		0	0	118.336861599702	118.436837299727
23329.75	0.0999817000702024	388	hunger	stimuli/non_foods\non-food_animate_penguin.jpg	1	3	1	non-food_animate_penguin	0	K	7	0	135	0		0	0	118.486854199786	118.586835899856
23367.25	0.0999670997262001	389	hunger	stimuli/foods\chestnut.jpg	1	3	1	chestnut	1	H	5	0	24	0		0	0	118.636848900001	118.736815999728
23404.75	0.100009600166231	390	hunger	stimuli/foods\taco.jpg	1	3	1	taco	1	L	8	0	274	0		0	0	118.786829999648	118.886839599814
23442.25	0.0999656999483705	391	hunger	stimuli/foods\red_beans.jpg	1	3	1	red_beans	1	S	13	0	255	0		0	0	118.936873799656	119.036839499604
23479.75	0.0999855003319681	392	hunger	stimuli/foods\steak.jpg	1	3	1	steak	1	Z	18	0	270	0		0	0	119.086849699728	119.18683520006
23517.25	0.0999821997247636	393	hunger	stimuli/non_foods\non-food_animate_runner.jpg	1	3	1	non-food_animate_runner	0	B	0	0	142	0		0	0	119.236853499897	119.336835699622
23554.75	0.0999703998677433	394	hunger	stimuli/non_foods\non-food_animate_camel.jpg	1	3	1	non-food_animate_camel	0	L	8	0	97	0		0	0	119.386845699977	119.486816099845
23592.25	0.100006599910557	395	hunger	stimuli/foods\baked_lamb_with_potatoes.jpg	1	3	1	baked_lamb_with_potatoes	1	R	12	0	8	0		0	0	119.536853899714	119.636860499624
23629.75	0.0999529999680817	396	hunger	stimuli/foods\capsicum.jpg	1	3	1	capsicum	1	J	6	0	18	0		0	0	119.686866299715	119.786819299683
23667.25	0.0999742997810245	397	hunger	stimuli/non_foods\non-food_inanimate_horn.jpg	1	3	1	non-food_inanimate_horn	0	T	14	0	190	0		0	0	119.836846400052	119.936820699833
23704.75	0.0999837000854313	398	hunger	stimuli/non_foods\non-food_inanimate_waterlily.jpg	1	3	1	non-food_inanimate_waterlily	0	V	15	0	226	0		0	0	119.986844599713	120.086828299798
23742.25	0.099982799962163	399	hunger	stimuli/non_foods\non-food_inanimate_highlighter.jpg	1	3	1	non-food_inanimate_highlighter	0	Z	18	0	189	0		0	0	120.136839699931	120.236822499894
23779.75	0.100012700073421	400	hunger	stimuli/non_foods\non-food_animate_cow.jpg	1	3	1	non-food_animate_cow	0	R	12	0	103	0		0	0	120.286814199761	120.386826899834
23817.25	0.099982799962163	401	hunger	stimuli/foods\pork_and_rice.jpg	1	3	1	pork_and_rice	1	F	3	0	245	0		0	0	120.436830999795	120.536813799758
23854.75	0.0999867999926209	402	hunger	stimuli/non_foods\non-food_inanimate_protractor.jpg	1	3	1	non-food_inanimate_protractor	0	H	5	0	201	0		0	0	120.586825799663	120.686812599655
23892.25	0.0999463000334799	403	hunger	stimuli/foods\pear.jpg	1	3	1	pear	1	R	12	0	239	0		0	0	120.736865399871	120.836811699905
23929.75	0.0999903003685176	404	hunger	stimuli/foods\potato_and_green_bean_salad.jpg	1	3	1	potato_and_green_bean_salad	1	K	7	0	246	0		0	0	120.8868266996	120.986816999968
23967.25	0.0999965998344123	405	hunger	stimuli/foods\rice_cake.jpg	1	3	1	rice_cake	1	G	4	0	258	0		0	0	121.036820599809	121.136817199644
24004.75	0.0999844996258616	406	hunger	stimuli/foods\cannoli.jpg	1	3	1	cannoli	1	K	7	0	17	0		0	0	121.186829600018	121.286814099643
24042.25	0.0999777000397444	407	hunger	stimuli/foods\risotto_with_zucchini.jpg	1	3	1	risotto_with_zucchini	1	S	13	0	260	0		0	0	121.336835499853	121.436813199893
24079.75	0.0999249997548759	408	hunger	stimuli/foods\lettuce.jpg	1	3	1	lettuce	1	H	5	0	75	0		0	0	121.486883699894	121.586808699649
24117.25	0.0999631001614034	409	hunger	stimuli/non_foods\non-food_animate_mammoth.jpg	1	3	1	non-food_animate_mammoth	0	J	6	0	128	0		0	0	121.636815799866	121.736778900027
24154.75	0.0999881997704506	410	hunger	stimuli/non_foods\non-food_animate_squirrel.jpg	1	3	1	non-food_animate_squirrel	0	R	12	0	150	0		0	0	121.786822000053	121.886810199823
24192.25	0.0999792004004121	411	hunger	stimuli/foods\toasted_bread_with_tomatoes.jpg	1	3	1	toasted_bread_with_tomatoes	1	Z	18	0	275	0		0	0	121.936821299605	122.036800500005
24229.75	0.0999841000884771	412	hunger	stimuli/non_foods\non-food_animate_giraffe.jpg	1	3	1	non-food_animate_giraffe	0	K	7	0	115	0		0	0	122.086811299901	122.18679539999
24267.25	0.0999834001995623	413	hunger	stimuli/foods\ginger_root.jpg	1	3	1	ginger_root	1	Z	18	0	57	0		0	0	122.236806799658	122.336790199857
24304.75	0.100003100000322	414	hunger	stimuli/foods\pepperoni_pizza.jpg	1	3	1	pepperoni_pizza	1	F	3	0	241	0		0	0	122.386798599735	122.486801699735
24342.25	0.0999884000048041	415	hunger	stimuli/foods\mango.jpg	1	3	1	mango	1	H	5	0	80	0		0	0	122.536811599974	122.636799999978
24379.75	0.0999719998799264	416	hunger	stimuli/foods\oven-roasted_tomatoes.jpg	1	3	1	oven-roasted_tomatoes	1	W	16	0	232	0		0	0	122.686815099791	122.786787099671
24417.25	0.0999868996441364	417	hunger	stimuli/non_foods\non-food_animate_young_boy.jpg	1	3	1	non-food_animate_young_boy	0	L	8	0	156	0		0	0	122.836799100041	122.936785999686
24454.75	0.0999930999241769	418	hunger	stimuli/non_foods\non-food_inanimate_couch.jpg	1	3	1	non-food_inanimate_couch	0	W	16	0	176	0		0	0	122.986800099723	123.086793199647
24492.25	0.0999602000229061	419	hunger	stimuli/non_foods\non-food_animate_eagle.jpg	1	3	1	non-food_animate_eagle	0	F	3	0	110	0		0	0	123.136829699855	123.236789899878
25159	0.099980500061065	420	hunger	stimuli/foods\papaya.jpg	1	4	1	papaya	1	W	16	0	235	0		0	0	125.803448599763	125.903429099824
25196.5	0.0999884000048041	421	hunger	stimuli/non_foods\non-food_animate_baby_crawling.jpg	1	4	1	non-food_animate_baby_crawling	0	M	9	0	92	0		0	0	125.95343639981	126.053424799815
25234	0.0999888996593654	422	hunger	stimuli/foods\coffee_beans.jpg	1	4	1	coffee_beans	1	C	1	0	34	0		0	0	126.103438199963	126.203427099623
25271.5	0.099976500030607	423	hunger	stimuli/non_foods\non-food_inanimate_socks.jpg	1	4	1	non-food_inanimate_socks	0	K	7	0	211	0		0	0	126.253442999907	126.353419499937
25309	0.0999427000060678	424	hunger	stimuli/non_foods\non-food_inanimate_suitcase.jpg	1	4	1	non-food_inanimate_suitcase	0	J	6	0	215	0		0	0	126.403475899715	126.503418599721
25346.5	0.0999735998921096	425	hunger	stimuli/non_foods\non-food_inanimate_cap.jpg	1	4	1	non-food_inanimate_cap	0	K	7	0	171	0		0	0	126.553434799891	126.653408399783
25384	0.0999855999834836	426	hunger	stimuli/foods\donut.jpg	1	4	1	donut	1	M	9	0	44	0		0	0	126.703431299888	126.803416899871
25421.5	0.0999874002300203	427	hunger	stimuli/non_foods\non-food_animate_pigeon.jpg	1	4	1	non-food_animate_pigeon	0	C	1	0	136	0		0	0	126.853430799674	126.953418199904
25459	0.0999815999530256	428	hunger	stimuli/foods\chilli.jpg	1	4	1	chilli	1	D	2	0	25	0		0	0	127.003429699689	127.103411299642
25496.5	0.0999922999180853	429	hunger	stimuli/non_foods\non-food_inanimate_toy_airplane.jpg	1	4	1	non-food_inanimate_toy_airplane	0	J	6	0	222	0		0	0	127.153425199911	127.253417499829
25534	0.099984799977392	430	hunger	stimuli/non_foods\non-food_animate_young_girl.jpg	1	4	1	non-food_animate_young_girl	0	R	12	0	157	0		0	0	127.303424099926	127.403408899903
25571.5	0.0999961001798511	431	hunger	stimuli/foods\rockmelon.jpg	1	4	1	rockmelon	1	P	11	0	262	0		0	0	127.453422399703	127.553418499883
25609	0.100003299769014	432	hunger	stimuli/non_foods\non-food_inanimate_watering_can.jpg	1	4	1	non-food_inanimate_watering_can	0	C	1	0	225	0		0	0	127.603424199857	127.703427499626
25646.5	0.0999957001768053	433	hunger	stimuli/non_foods\non-food_inanimate_skateboard.jpg	1	4	1	non-food_inanimate_skateboard	0	X	17	0	208	0		0	0	127.753418499604	127.853414199781
25684	0.0999846998602152	434	hunger	stimuli/non_foods\non-food_inanimate_orchid.jpg	1	4	1	non-food_inanimate_orchid	0	D	2	0	198	0		0	0	127.90341719985	128.00340189971
25721.5	0.100022100377828	435	hunger	stimuli/foods\cracker.jpg	1	4	1	cracker	1	W	16	0	38	0		0	0	128.053400799632	128.15342290001
25759	0.0999489999376237	436	hunger	stimuli/foods\grapefruits.jpg	1	4	1	grapefruits	1	T	14	0	59	0		0	0	128.20343989972	128.303388899658
25796.5	0.0999790001660585	437	hunger	stimuli/foods\lollies.jpg	1	4	1	lollies	1	Z	18	0	78	0		0	0	128.353404599708	128.453383599874
25834	0.0999654997140169	438	hunger	stimuli/foods\lamb_chops.jpg	1	4	1	lamb_chops	1	L	8	0	70	0		0	0	128.503412500024	128.603377999738
25871.5	0.100006999913603	439	hunger	stimuli/non_foods\non-food_inanimate_sun_flower.jpg	1	4	1	non-food_inanimate_sun_flower	0	W	16	0	216	0		0	0	128.653388099745	128.753395099659
25909	0.0999901997856796	440	hunger	stimuli/non_foods\non-food_inanimate_headphones.jpg	1	4	1	non-food_inanimate_headphones	0	L	8	0	188	0		0	0	128.803408599924	128.90339879971
25946.5	0.0999890002422035	441	hunger	stimuli/foods\pineapple.jpg	1	4	1	pineapple	1	Z	18	0	243	0		0	0	128.953391799703	129.053380799945
25984	0.0999949998222291	442	hunger	stimuli/foods\banana.jpg	1	4	1	banana	1	F	3	0	9	0		0	0	129.103395199869	129.203390199691
26021.5	0.0999663998372853	443	hunger	stimuli/foods\cereal.jpg	1	4	1	cereal	1	B	0	0	22	0		0	0	129.253406799864	129.353373199701
26059	0.09999810019508	444	hunger	stimuli/foods\clams.jpg	1	4	1	clams	1	T	14	0	32	0		0	0	129.403385399841	129.503383500036
26096.5	0.0999878998845816	445	hunger	stimuli/non_foods\non-food_animate_german_shepherd.jpg	1	4	1	non-food_animate_german_shepherd	0	H	5	0	114	0		0	0	129.553397699725	129.653385599609
26134	0.0999892000108957	446	hunger	stimuli/non_foods\non-food_animate_deer.jpg	1	4	1	non-food_animate_deer	0	T	14	0	105	0		0	0	129.703393699601	129.803382899612
26171.5	0.100018699653447	447	hunger	stimuli/foods\potato_chips.jpg	1	4	1	potato_chips	1	N	10	0	247	0		0	0	129.853406799957	129.953425499611
26209	0.099965900182724	448	hunger	stimuli/foods\spinach.jpg	1	4	1	spinach	1	T	14	0	268	0		0	0	130.003413799684	130.103379699867
26246.5	0.09999980032444	449	hunger	stimuli/foods\green_beans.jpg	1	4	1	green_beans	1	D	2	0	61	0		0	0	130.153385199606	130.253384999931
26284	0.09998709987849	450	hunger	stimuli/non_foods\non-food_inanimate_teddy_bear.jpg	1	4	1	non-food_inanimate_teddy_bear	0	T	14	0	218	0		0	0	130.303385199979	130.403372299857
26321.5	0.0999858998693526	451	hunger	stimuli/foods\almonds.jpg	1	4	1	almonds	1	Z	18	0	0	0		0	0	130.453387700021	130.553373599891
26359	0.0999889001250267	452	hunger	stimuli/foods\lemon_meringue_pie.jpg	1	4	1	lemon_meringue_pie	1	S	13	0	73	0		0	0	130.60338359978	130.703372499906
26396.5	0.0999842002056539	453	hunger	stimuli/foods\museli_bars.jpg	1	4	1	museli_bars	1	Z	18	0	84	0		0	0	130.753387299832	130.853371500038
26434	0.0999879003502429	454	hunger	stimuli/non_foods\non-food_animate_millipede.jpg	1	4	1	non-food_animate_millipede	0	T	14	0	129	0		0	0	130.903381699696	131.003369600046
26471.5	0.0999551001004875	455	hunger	stimuli/foods\cinnamon.jpg	1	4	1	cinnamon	1	R	12	0	30	0		0	0	131.053382499609	131.15333759971
26509	0.0999830001965165	456	hunger	stimuli/non_foods\non-food_inanimate_hammer.jpg	1	4	1	non-food_inanimate_hammer	0	C	1	0	186	0		0	0	131.203382299747	131.303365299944
26546.5	0.0999782001599669	457	hunger	stimuli/foods\salami.jpg	1	4	1	salami	1	N	10	0	263	0		0	0	131.353377899621	131.453356099781
26584	0.0999862998723984	458	hunger	stimuli/non_foods\non-food_inanimate_construction_helment.jpg	1	4	1	non-food_inanimate_construction_helment	0	Z	18	0	175	0		0	0	131.503374299966	131.603360599838
26621.5	0.100033099763095	459	hunger	stimuli/non_foods\non-food_animate_sea_turtle.jpg	1	4	1	non-food_animate_sea_turtle	0	K	7	0	144	0		0	0	131.653384000063	131.753417099826
26659	0.0999753000214696	460	hunger	stimuli/foods\garlic.jpg	1	4	1	garlic	1	Z	18	0	56	0		0	0	131.803394199815	131.903369499836
26696.25	0.100002800114453	461	hunger	stimuli/non_foods\non-food_animate_iguana.jpg	1	4	1	non-food_animate_iguana	0	L	8	0	121	0		0	0	131.953358199913	132.053361000028
26734	0.0999837000854313	462	hunger	stimuli/foods\brownie.jpg	1	4	1	brownie	1	F	3	0	14	0		0	0	132.103368799668	132.203352499753
26771.5	0.0999806998297572	463	hunger	stimuli/non_foods\non-food_animate_tortoise.jpg	1	4	1	non-food_animate_tortoise	0	G	4	0	153	0		0	0	132.253371499944	132.353352199774
26809	0.0999882002361119	464	hunger	stimuli/non_foods\non-food_inanimate_clover.jpg	1	4	1	non-food_inanimate_clover	0	Z	18	0	174	0		0	0	132.403365799692	132.503353999928
26846.5	0.0999657995998859	465	hunger	stimuli/non_foods\non-food_inanimate_hay.jpg	1	4	1	non-food_inanimate_hay	0	H	5	0	187	0		0	0	132.553363800049	132.653329599649
26884	0.0999853000976145	466	hunger	stimuli/foods\spaghetti_with_meat_sauce.jpg	1	4	1	spaghetti_with_meat_sauce	1	E	20	1	267	0		0	0	132.703363499604	132.803348799702
26921.5	0.0999854002147913	467	hunger	stimuli/non_foods\non-food_inanimate_towel.jpg	1	4	1	non-food_inanimate_towel	0	G	4	0	221	0		0	0	132.853360599838	132.953346000053
26958.75	0.100016700103879	468	hunger	stimuli/non_foods\non-food_animate_chicken.jpg	1	4	1	non-food_animate_chicken	0	F	3	0	101	0		0	0	133.003328699619	133.103345399722
26996.5	0.0999924996867776	469	hunger	stimuli/non_foods\non-food_inanimate_gloves.jpg	1	4	1	non-food_inanimate_gloves	0	H	5	0	183	1	a	0.443160600028932	1	133.153356899973	133.25334939966
27034	0.0999869997613132	470	hunger	stimuli/foods\spring_onions.jpg	1	4	1	spring_onions	1	Z	18	0	269	0		0	0	133.303354599979	133.40334159974
27071.5	0.10000819992274	471	hunger	stimuli/non_foods\non-food_inanimate_lighter.jpg	1	4	1	non-food_inanimate_lighter	0	K	7	0	193	0		0	0	133.45335779991	133.553365999833
27109	0.0999579001218081	472	hunger	stimuli/foods\pancakes.jpg	1	4	1	pancakes	1	S	13	0	234	0		0	0	133.603379199747	133.703337099869
27146.5	0.0999842002056539	473	hunger	stimuli/non_foods\non-food_inanimate_soccer_ball.jpg	1	4	1	non-food_inanimate_soccer_ball	0	P	11	0	210	0		0	0	133.753351499792	133.853335699998
27184	0.0999877001158893	474	hunger	stimuli/non_foods\non-food_animate_rhino.jpg	1	4	1	non-food_animate_rhino	0	F	3	0	141	0		0	0	133.903347599786	134.003335299902
27221.5	0.0999899003654718	475	hunger	stimuli/non_foods\non-food_inanimate_leaf.jpg	1	4	1	non-food_inanimate_leaf	0	L	8	0	192	0		0	0	134.053343599662	134.153333500028
27259	0.0999904000200331	476	hunger	stimuli/foods\corncob.jpg	1	4	1	corncob	1	M	9	0	37	0		0	0	134.203341699671	134.303332099691
27296.5	0.0999825000762939	477	hunger	stimuli/non_foods\non-food_animate_bat.jpg	1	4	1	non-food_animate_bat	0	S	13	0	94	0		0	0	134.35334599996	134.453328500036
27334	0.0999855003319681	478	hunger	stimuli/non_foods\non-food_animate_seal.jpg	1	4	1	non-food_animate_seal	0	D	2	0	146	0		0	0	134.503343799617	134.603329299949
27371.5	0.0999988000839949	479	hunger	stimuli/foods\cherry.jpg	1	4	1	cherry	1	G	4	0	23	0		0	0	134.653340999968	134.753339800052
27408.75	0.099972500000149	480	hunger	stimuli/non_foods\non-food_inanimate_stapler.jpg	1	4	1	non-food_inanimate_stapler	0	C	1	0	213	0		0	0	134.803339999635	134.903312499635
27446.25	0.10000229999423	481	hunger	stimuli/foods\waffle.jpg	1	4	1	waffle	1	X	17	0	278	0		0	0	134.953322999645	135.053325299639
27483.75	0.0999841000884771	482	hunger	stimuli/foods\chocolate_pudding.jpg	1	4	1	chocolate_pudding	1	P	11	0	29	0		0	0	135.103338999674	135.203323099762
27521.5	0.0999757000245154	483	hunger	stimuli/non_foods\non-food_animate_dragonfly.jpg	1	4	1	non-food_animate_dragonfly	0	K	7	0	108	0		0	0	135.253343299963	135.353318999987
27559	0.0999622996896505	484	hunger	stimuli/non_foods\non-food_inanimate_bicycle.jpg	1	4	1	non-food_inanimate_bicycle	0	W	16	0	161	0		0	0	135.403355299961	135.50331759965
27596.25	0.0999859999865294	485	hunger	stimuli/non_foods\non-food_inanimate_tulip.jpg	1	4	1	non-food_inanimate_tulip	0	R	12	0	224	0		0	0	135.553327600006	135.653313599993
27634	0.0999858998693526	486	hunger	stimuli/foods\frankfurter_and_provolone_salad.jpg	1	4	1	frankfurter_and_provolone_salad	1	B	0	0	49	0		0	0	135.703328900039	135.803314799909
27671.5	0.0999869001097977	487	hunger	stimuli/non_foods\non-food_animate_skunk.jpg	1	4	1	non-food_animate_skunk	0	J	6	0	147	0		0	0	135.853325999808	135.953312899917
27708.75	0.0999857997521758	488	hunger	stimuli/foods\red_cabbage.jpg	1	4	1	red_cabbage	1	D	2	0	256	0		0	0	136.003324599937	136.103310399689
27746.25	0.0999928000383079	489	hunger	stimuli/non_foods\non-food_animate_clown.jpg	1	4	1	non-food_animate_clown	0	H	5	0	102	0		0	0	136.15331969969	136.253312499728
27784	0.0999912000261247	490	hunger	stimuli/foods\savory_pie.jpg	1	4	1	savory_pie	1	T	14	0	265	0		0	0	136.303323799744	136.40331499977
27821.25	0.0999896000139415	491	hunger	stimuli/non_foods\non-food_animate_parrot.jpg	1	4	1	non-food_animate_parrot	0	J	6	0	133	0		0	0	136.453315999825	136.553305599838
27858.75	0.099983099848032	492	hunger	stimuli/non_foods\non-food_inanimate_bucket.jpg	1	4	1	non-food_inanimate_bucket	0	G	4	0	165	0		0	0	136.603320599999	136.703303699847
27896.25	0.0999835999682546	493	hunger	stimuli/foods\croissant.jpg	1	4	1	croissant	1	W	16	0	40	0		0	0	136.753316699993	136.853300299961
27933.75	0.0999941001646221	494	hunger	stimuli/foods\chocolate_chip_cookies.jpg	1	4	1	chocolate_chip_cookies	1	S	13	0	27	0		0	0	136.903310599737	137.003304699901
27971.5	0.0999777000397444	495	hunger	stimuli/non_foods\non-food_inanimate_short_sleeved_shirt.jpg	1	4	1	non-food_inanimate_short_sleeved_shirt	0	H	5	0	207	0		0	0	137.053319799714	137.153297499754
28008.75	0.100007200147957	496	hunger	stimuli/foods\meatballs.jpg	1	4	1	meatballs	1	G	4	0	81	0		0	0	137.203292399645	137.303299599793
28046.25	0.0999850002117455	497	hunger	stimuli/foods\fruit_flan.jpg	1	4	1	fruit_flan	1	T	14	0	53	0		0	0	137.353310799692	137.453295799904
28083.75	0.0999888000078499	498	hunger	stimuli/foods\peas.jpg	1	4	1	peas	1	D	2	0	240	0		0	0	137.50330760004	137.603296400048
28121.25	0.0999858998693526	499	hunger	stimuli/non_foods\non-food_animate_killer_whale.jpg	1	4	1	non-food_animate_killer_whale	0	K	7	0	123	0		0	0	137.653305300046	137.753291199915
28158.75	0.0999868996441364	500	hunger	stimuli/foods\figs.jpg	1	4	1	figs	1	B	0	0	48	0		0	0	137.803303000052	137.903289899696
28196.25	0.0999857001006603	501	hunger	stimuli/non_foods\non-food_animate_alligator.jpg	1	4	1	non-food_animate_alligator	0	K	7	0	90	0		0	0	137.953302599955	138.053288300056
28233.75	0.100020200014114	502	hunger	stimuli/foods\pasta_carbonara.jpg	1	4	1	pasta_carbonara	1	B	0	0	236	0		0	0	138.103284899611	138.203305099625
28271.5	0.0999723998829722	503	hunger	stimuli/foods\lasagna.jpg	1	4	1	lasagna	1	M	9	0	71	0		0	0	138.253304699901	138.353277099784
28308.75	0.0999893001280725	504	hunger	stimuli/non_foods\non-food_animate_Asian_man.jpg	1	4	1	non-food_animate_Asian_man	0	G	4	0	88	0		0	0	138.403296299744	138.503285599872
28346.25	0.0999878002330661	505	hunger	stimuli/non_foods\non-food_inanimate_tree.jpg	1	4	1	non-food_inanimate_tree	0	D	2	0	223	0		0	0	138.553293899633	138.653281699866
28383.75	0.0999879003502429	506	hunger	stimuli/non_foods\non-food_animate_horse.jpg	1	4	1	non-food_animate_horse	0	N	10	0	119	0		0	0	138.703291599639	138.803279499989
28421.5	0.0999421002343297	507	hunger	stimuli/foods\ice_cream.jpg	1	4	1	ice_cream	1	S	13	0	68	0		0	0	138.853336599655	138.95327869989
28458.75	0.0999849997460842	508	hunger	stimuli/foods\chocolate_bar.jpg	1	4	1	chocolate_bar	1	J	6	0	26	0		0	0	139.00328970002	139.103274699766
28496.25	0.099991699680686	509	hunger	stimuli/foods\pickles.jpg	1	4	1	pickles	1	Z	18	0	242	0		0	0	139.153287800029	139.25327949971
28533.75	0.0999837000854313	510	hunger	stimuli/foods\fried_zucchini.jpg	1	4	1	fried_zucchini	1	G	4	0	51	0		0	0	139.303290299606	139.403273999691
28571.25	0.0999843999743462	511	hunger	stimuli/non_foods\non-food_inanimate_nettle.jpg	1	4	1	non-food_inanimate_nettle	0	W	16	0	197	0		0	0	139.453284800053	139.553269200027
28608.75	0.0999882002361119	512	hunger	stimuli/non_foods\non-food_inanimate_toilet.jpg	1	4	1	non-food_inanimate_toilet	0	V	15	0	220	0		0	0	139.603283399716	139.703271599952
28646.25	0.0999877001158893	513	hunger	stimuli/foods\egg.jpg	1	4	1	egg	1	R	12	0	45	0		0	0	139.753284599632	139.853272299748
28684	0.0999878002330661	514	hunger	stimuli/foods\blackberry.jpg	1	4	1	blackberry	1	W	16	0	11	0		0	0	139.90327989962	140.003267699853
28721.25	0.0999893001280725	515	hunger	stimuli/non_foods\non-food_inanimate_jeans.jpg	1	4	1	non-food_inanimate_jeans	0	H	5	0	191	0		0	0	140.053277999628	140.153267299756
28758.75	0.099980799946934	516	hunger	stimuli/non_foods\non-food_animate_swan.jpg	1	4	1	non-food_animate_swan	0	Z	18	0	152	0		0	0	140.203281099908	140.303261899855
28796.25	0.0999871999956667	517	hunger	stimuli/non_foods\non-food_inanimate_broom.jpg	1	4	1	non-food_inanimate_broom	0	S	13	0	164	0		0	0	140.353273699991	140.453260899987
28833.75	0.0999984000809491	518	hunger	stimuli/foods\raw_sausage.jpg	1	4	1	raw_sausage	1	H	5	0	254	0		0	0	140.50326779997	140.603266200051
28871.25	0.0999584998935461	519	hunger	stimuli/non_foods\non-food_animate_dachshund.jpg	1	4	1	non-food_animate_dachshund	0	I	21	1	104	0		0	0	140.653285199776	140.75324369967
28908.75	0.0999964000657201	520	hunger	stimuli/foods\baked_cod_with_carrots_and_green_beans.jpg	1	4	1	baked_cod_with_carrots_and_green_beans	1	F	3	0	7	0		0	0	140.803260999732	140.903257399797
28946.25	0.0999885997734964	521	hunger	stimuli/non_foods\non-food_animate_donkey.jpg	1	4	1	non-food_animate_donkey	0	G	4	0	107	0		0	0	140.953254200052	141.053242799826
28983.75	0.0999675001949072	522	hunger	stimuli/foods\raisins.jpg	1	4	1	raisins	1	L	8	0	252	0		0	0	141.103259199765	141.203226699959
29021.25	0.0999818001873791	523	hunger	stimuli/foods\peach.jpg	1	4	1	peach	1	P	11	0	238	1	a	0.593145099934191	1	141.253268299624	141.353250099812
29058.75	0.099989099893719	524	hunger	stimuli/foods\pumpkin.jpg	1	4	1	pumpkin	1	D	2	0	250	0		0	0	141.403260800056	141.50324989995
29096.25	0.0999880996532738	525	hunger	stimuli/foods\cinnamon_sroll.jpg	1	4	1	cinnamon_sroll	1	N	10	0	31	0		0	0	141.55326039996	141.653248499613
29134	0.0999676999635994	526	hunger	stimuli/non_foods\non-food_inanimate_briefcase.jpg	1	4	1	non-food_inanimate_briefcase	0	L	8	0	163	0		0	0	141.70327519998	141.803242899943
29171.25	0.0999718001112342	527	hunger	stimuli/non_foods\non-food_inanimate_desk.jpg	1	4	1	non-food_inanimate_desk	0	T	14	0	178	0		0	0	141.853257599752	141.953229399864
29208.75	0.0999801000580192	528	hunger	stimuli/foods\bagel.jpg	1	4	1	bagel	1	D	2	0	6	0		0	0	142.003259599674	142.103239699733
29246.25	0.0999888000078499	529	hunger	stimuli/foods\brussel_sprouts.jpg	1	4	1	brussel_sprouts	1	G	4	0	15	0		0	0	142.153252799995	142.253241600003
29283.75	0.100006700027734	530	hunger	stimuli/non_foods\non-food_inanimate_folding_chair.jpg	1	4	1	non-food_inanimate_folding_chair	0	V	15	0	182	0		0	0	142.303276899736	142.403283599764
29321.25	0.0999618000350893	531	hunger	stimuli/non_foods\non-food_inanimate_cupboard.jpg	1	4	1	non-food_inanimate_cupboard	0	L	8	0	177	0		0	0	142.453274899628	142.553236699663
29358.75	0.100016799755394	532	hunger	stimuli/foods\tomato.jpg	1	4	1	tomato	1	X	17	0	276	0		0	0	142.603249900043	142.703266699798
29396.25	0.0999863999895751	533	hunger	stimuli/foods\fried_calamari.jpg	1	4	1	fried_calamari	1	C	1	0	50	0		0	0	142.753249499947	142.853235899936
29433.75	0.0999829000793397	534	hunger	stimuli/non_foods\non-food_animate_sea_lion.jpg	1	4	1	non-food_animate_sea_lion	0	G	4	0	143	0		0	0	142.903245799709	143.003228699788
29471.25	0.0999910999089479	535	hunger	stimuli/foods\lentils.jpg	1	4	1	lentils	1	P	11	0	74	0		0	0	143.053241899703	143.153232999612
29508.75	0.099985099863261	536	hunger	stimuli/foods\cabbage.jpg	1	4	1	cabbage	1	G	4	0	16	0		0	0	143.203243699856	143.303228799719
29546.25	0.0999871003441513	537	hunger	stimuli/non_foods\non-food_inanimate_rope.jpg	1	4	1	non-food_inanimate_rope	0	X	17	0	204	0		0	0	143.353238799609	143.453225899953
29583.75	0.0999766997992992	538	hunger	stimuli/foods\grapes.jpg	1	4	1	grapes	1	H	5	0	60	0		0	0	143.503250199836	143.603226899635
29621.25	0.0999855003319681	539	hunger	stimuli/foods\green_olives.jpg	1	4	1	green_olives	1	S	13	0	62	0		0	0	143.653236999642	143.753222499974
29658.75	0.0999877997674048	540	hunger	stimuli/foods\apricot.jpg	1	4	1	apricot	1	N	10	0	2	0		0	0	143.803234999999	143.903222799767
29696.25	0.0999651001766324	541	hunger	stimuli/foods\coconut.jpg	1	4	1	coconut	1	X	17	0	33	0		0	0	143.953238099813	144.05320319999
29733.75	0.099977099802345	542	hunger	stimuli/non_foods\non-food_inanimate_canoe.jpg	1	4	1	non-food_inanimate_canoe	0	M	9	0	170	0		0	0	144.103244599886	144.203221699689
29771.25	0.0999901001341641	543	hunger	stimuli/non_foods\non-food_inanimate_fire_extinguisher.jpg	1	4	1	non-food_inanimate_fire_extinguisher	0	X	17	0	181	0		0	0	144.2532279999	144.353218100034
29808.75	0.099984799977392	544	hunger	stimuli/non_foods\non-food_animate_hummingbird.jpg	1	4	1	non-food_animate_hummingbird	0	V	15	0	120	0		0	0	144.403221999761	144.503206799738
29846.25	0.0999900000169873	545	hunger	stimuli/non_foods\non-food_inanimate_drum_set.jpg	1	4	1	non-food_inanimate_drum_set	0	N	10	0	179	0		0	0	144.553216199856	144.653206199873
29883.75	0.0999861997552216	546	hunger	stimuli/non_foods\non-food_animate_baby_sitting.jpg	1	4	1	non-food_animate_baby_sitting	0	D	2	0	93	0		0	0	144.703216800001	144.803202999756
29921.25	0.09998709987849	547	hunger	stimuli/non_foods\non-food_inanimate_alarm_clock.jpg	1	4	1	non-food_inanimate_alarm_clock	0	G	4	0	158	0		0	0	144.853222699836	144.953209799714
29958.75	0.0999786001630127	548	hunger	stimuli/foods\stew_with_potatoes_and_carrots.jpg	1	4	1	stew_with_potatoes_and_carrots	1	Z	18	0	271	0		0	0	145.003223499749	145.103202099912
29996.25	0.0999889997765422	549	hunger	stimuli/foods\smoked_ham.jpg	1	4	1	smoked_ham	1	X	17	0	266	0		0	0	145.153208700009	145.253197699785
30033.75	0.0999925998039544	550	hunger	stimuli/foods\fries.jpg	1	4	1	fries	1	M	9	0	52	0		0	0	145.303222300019	145.403214899823
30071.25	0.0999851999804378	551	hunger	stimuli/foods\beetroots.jpg	1	4	1	beetroots	1	R	12	0	10	0		0	0	145.453208199702	145.553193399683
30108.75	0.0999936000443995	552	hunger	stimuli/foods\onion.jpg	1	4	1	onion	1	B	0	0	229	0		0	0	145.603207799606	145.70320139965
30146.25	0.0999901997856796	553	hunger	stimuli/non_foods\non-food_inanimate_chair.jpg	1	4	1	non-food_inanimate_chair	0	P	11	0	172	0		0	0	145.753212600015	145.853202799801
30183.75	0.0999918002635241	554	hunger	stimuli/foods\omelette.jpg	1	4	1	omelette	1	V	15	0	228	0		0	0	145.903217899613	146.003209699877
30221.25	0.0999902002513409	555	hunger	stimuli/non_foods\non-food_animate_elephant.jpg	1	4	1	non-food_animate_elephant	0	F	3	0	111	0		0	0	146.053208899684	146.153199099936
30258.75	0.0999859999865294	556	hunger	stimuli/non_foods\non-food_inanimate_rack.jpg	1	4	1	non-food_inanimate_rack	0	P	11	0	202	0		0	0	146.203210399952	146.303196399938
30296.25	0.0999721996486187	557	hunger	stimuli/non_foods\non-food_animate_ladybug.jpg	1	4	1	non-food_animate_ladybug	0	K	7	0	124	0		0	0	146.353207699955	146.453179899603
30333.75	0.0999853000976145	558	hunger	stimuli/foods\oregano.jpg	1	4	1	oregano	1	V	15	0	231	0		0	0	146.503205699846	146.603190999944
30371.25	0.0999865997582674	559	hunger	stimuli/foods\mortadella.jpg	1	4	1	mortadella	1	K	7	0	83	0		0	0	146.653202599846	146.753189199604
31125.5	0.0999798998236656	560	hunger	stimuli/foods\pumpkin.jpg	1	5	1	pumpkin	1	X	17	0	250	0		0	0	149.669842999894	149.769822899718
31163	0.0999759999103844	561	hunger	stimuli/foods\spaghetti_with_meat_sauce.jpg	1	5	1	spaghetti_with_meat_sauce	1	V	15	0	267	0		0	0	149.819836799987	149.919812799897
31200.5	0.0999897997826338	562	hunger	stimuli/foods\rockmelon.jpg	1	5	1	rockmelon	1	D	2	0	262	0		0	0	149.969831199851	150.069820999634
31238	0.0999602000229061	563	hunger	stimuli/non_foods\non-food_animate_student_female.jpg	1	5	1	non-food_animate_student_female	0	N	10	0	151	0		0	0	150.119828699622	150.219788899645
31275.5	0.0999878998845816	564	hunger	stimuli/non_foods\non-food_animate_gorilla.jpg	1	5	1	non-food_animate_gorilla	0	S	13	0	116	0		0	0	150.269829799887	150.369817699771
31313	0.0999832996167243	565	hunger	stimuli/non_foods\non-food_animate_skunk.jpg	1	5	1	non-food_animate_skunk	0	F	3	0	147	0		0	0	150.419832400046	150.519815699663
31350.5	0.0999667001888156	566	hunger	stimuli/foods\brussel_sprouts.jpg	1	5	1	brussel_sprouts	1	J	6	0	15	0		0	0	150.569828299806	150.669794999994
31388	0.100003599654883	567	hunger	stimuli/foods\chilli.jpg	1	5	1	chilli	1	S	13	0	25	0		0	0	150.719817399979	150.819820999634
31425.5	0.099951199721545	568	hunger	stimuli/foods\museli_bars.jpg	1	5	1	museli_bars	1	T	14	0	84	0		0	0	150.869848900009	150.96980009973
31463	0.099976200144738	569	hunger	stimuli/non_foods\non-food_inanimate_shell.jpg	1	5	1	non-food_inanimate_shell	0	F	3	0	206	0		0	0	151.019823399838	151.119799599983
31500.5	0.100005600135773	570	hunger	stimuli/foods\grapes.jpg	1	5	1	grapes	1	D	2	0	60	0		0	0	151.169811199885	151.269816800021
31538	0.099985200446099	571	hunger	stimuli/non_foods\non-food_animate_duck.jpg	1	5	1	non-food_animate_duck	0	K	7	0	109	0		0	0	151.319818199612	151.419803400058
31575.5	0.099979099817574	572	hunger	stimuli/non_foods\non-food_inanimate_bowling_ball.jpg	1	5	1	non-food_inanimate_bowling_ball	0	M	9	0	162	0		0	0	151.469818199985	151.569797299802
31613	0.0999549999833107	573	hunger	stimuli/non_foods\non-food_inanimate_socks.jpg	1	5	1	non-food_inanimate_socks	0	P	11	0	211	0		0	0	151.619822999928	151.719777999911
31650.5	0.0999849997460842	574	hunger	stimuli/foods\lemon_meringue_pie.jpg	1	5	1	lemon_meringue_pie	1	M	9	0	73	0		0	0	151.769813599996	151.869798599742
31688	0.0999886002391577	575	hunger	stimuli/foods\fennel.jpg	1	5	1	fennel	1	W	16	0	47	0		0	0	151.919812299777	152.019800900016
31725.5	0.0999837997369468	576	hunger	stimuli/foods\prawn.jpg	1	5	1	prawn	1	V	15	0	249	0		0	0	152.069810899906	152.169794699643
31763	0.0999845000915229	577	hunger	stimuli/non_foods\non-food_animate_llama.jpg	1	5	1	non-food_animate_llama	0	N	10	0	127	0		0	0	152.219810399693	152.319794899784
31800.5	0.0999839999713004	578	hunger	stimuli/non_foods\non-food_inanimate_waterlily.jpg	1	5	1	non-food_inanimate_waterlily	0	T	14	0	226	0		0	0	152.369809299707	152.469793299679
31838	0.100019599776715	579	hunger	stimuli/foods\pasta_carbonara.jpg	1	5	1	pasta_carbonara	1	H	5	0	236	0		0	0	152.519792899955	152.619812499732
31875.5	0.0999749996699393	580	hunger	stimuli/non_foods\non-food_animate_fox.jpg	1	5	1	non-food_animate_fox	0	L	8	0	112	0		0	0	152.669816500042	152.769791499712
31913	0.10000679967925	581	hunger	stimuli/foods\tomato.jpg	1	5	1	tomato	1	K	7	0	276	0		0	0	152.819783099927	152.919789899606
31950.5	0.0999863999895751	582	hunger	stimuli/non_foods\non-food_inanimate_alarm_clock.jpg	1	5	1	non-food_inanimate_alarm_clock	0	P	11	0	158	0		0	0	152.969798899721	153.069785299711
31988	0.0999862002208829	583	hunger	stimuli/foods\spinach.jpg	1	5	1	spinach	1	L	8	0	268	0		0	0	153.119798899628	153.219785099849
32025.5	0.0999793000519276	584	hunger	stimuli/foods\strawberry.jpg	1	5	1	strawberry	1	B	0	0	272	0		0	0	153.269794199616	153.369773499668
32063	0.0999833000823855	585	hunger	stimuli/foods\capsicum.jpg	1	5	1	capsicum	1	R	12	0	18	0		0	0	153.41978779994	153.519771100022
32100.5	0.0999945001676679	586	hunger	stimuli/foods\garlic.jpg	1	5	1	garlic	1	T	14	0	56	0		0	0	153.569786399603	153.669780899771
32138	0.0999754001386464	587	hunger	stimuli/foods\broccoli.jpg	1	5	1	broccoli	1	H	5	0	13	0		0	0	153.719802899752	153.81977829989
32175.5	0.0999937001615763	588	hunger	stimuli/non_foods\non-food_animate_horse.jpg	1	5	1	non-food_animate_horse	0	K	7	0	119	0		0	0	153.869784599636	153.969778299797
32213	0.0999771999195218	589	hunger	stimuli/foods\potato_chips.jpg	1	5	1	potato_chips	1	F	3	0	247	0		0	0	154.019788399804	154.119765599724
32250.5	0.0999928000383079	590	hunger	stimuli/foods\cherry.jpg	1	5	1	cherry	1	J	6	0	23	0		0	0	154.169778999873	154.269771799911
32288	0.100027900189161	591	hunger	stimuli/foods\chestnut.jpg	1	5	1	chestnut	1	F	3	0	24	0		0	0	154.319787999615	154.419815899804
32325.5	0.0999704003334045	592	hunger	stimuli/foods\lollies.jpg	1	5	1	lollies	1	K	7	0	78	0		0	0	154.469797999598	154.569768399931
32363	0.0999903003685176	593	hunger	stimuli/foods\wafer.jpg	1	5	1	wafer	1	M	9	0	277	0		0	0	154.619780599605	154.719770899974
32400.5	0.0999968000687659	594	hunger	stimuli/foods\pepperoni_pizza.jpg	1	5	1	pepperoni_pizza	1	X	17	0	241	0		0	0	154.769770599902	154.86976739997
32438	0.099981099832803	595	hunger	stimuli/non_foods\non-food_animate_squirrel.jpg	1	5	1	non-food_animate_squirrel	0	E	20	1	150	0		0	0	154.919775899965	155.019756999798
32475.5	0.0999975996091962	596	hunger	stimuli/foods\cinnamon.jpg	1	5	1	cinnamon	1	K	7	0	30	0		0	0	155.069778000005	155.169775599614
32513	0.0999801997095346	597	hunger	stimuli/non_foods\non-food_inanimate_broom.jpg	1	5	1	non-food_inanimate_broom	0	B	0	0	164	0		0	0	155.219779199921	155.31975939963
32550.5	0.0999890002422035	598	hunger	stimuli/non_foods\non-food_animate_penguin.jpg	1	5	1	non-food_animate_penguin	0	H	5	0	135	0		0	0	155.369771999773	155.469761000015
32588	0.0999602000229061	599	hunger	stimuli/foods\cooked_prawn.jpg	1	5	1	cooked_prawn	1	N	10	0	36	0		0	0	155.519795599859	155.619755799882
32625.5	0.0999826998449862	600	hunger	stimuli/non_foods\non-food_animate_ram.jpg	1	5	1	non-food_animate_ram	0	V	15	0	140	0		0	0	155.669770000037	155.769752699882
32663	0.0999884000048041	601	hunger	stimuli/non_foods\non-food_animate_dachshund.jpg	1	5	1	non-food_animate_dachshund	0	X	17	0	104	0		0	0	155.819768299814	155.919756699819
32700.5	0.0999831999652088	602	hunger	stimuli/non_foods\non-food_animate_monkey.jpg	1	5	1	non-food_animate_monkey	0	Z	18	0	130	0		0	0	155.969767199829	156.069750399794
32738	0.100004999898374	603	hunger	stimuli/non_foods\non-food_inanimate_bicycle.jpg	1	5	1	non-food_inanimate_bicycle	0	D	2	0	161	0		0	0	156.119774799794	156.219779799692
32775.5	0.0999528998509049	604	hunger	stimuli/non_foods\non-food_inanimate_nailpolish.jpg	1	5	1	non-food_inanimate_nailpolish	0	V	15	0	195	0		0	0	156.269795599859	156.36974849971
32813	0.0999866998754442	605	hunger	stimuli/non_foods\non-food_animate_green_bug.jpg	1	5	1	non-food_animate_green_bug	0	R	12	0	118	0		0	0	156.419759899843	156.519746599719
32850.5	0.0999851999804378	606	hunger	stimuli/non_foods\non-food_inanimate_horn.jpg	1	5	1	non-food_inanimate_horn	0	J	6	0	190	0		0	0	156.569760799874	156.669745999854
32888	0.100001800339669	607	hunger	stimuli/non_foods\non-food_animate_bee.jpg	1	5	1	non-food_animate_bee	0	X	17	0	95	0		0	0	156.719741199631	156.819742999971
32925.5	0.0999862998723984	608	hunger	stimuli/foods\savory_pie.jpg	1	5	1	savory_pie	1	C	1	0	265	0		0	0	156.869746800046	156.969733099919
32963	0.0999747002497315	609	hunger	stimuli/non_foods\non-food_animate_parrot.jpg	1	5	1	non-food_animate_parrot	0	N	10	0	133	0		0	0	157.019756499678	157.119731199928
33000.5	0.0999726001173258	610	hunger	stimuli/foods\fried_calamari.jpg	1	5	1	fried_calamari	1	C	1	0	50	0		0	0	157.169744299725	157.269716899842
33038	0.0999834998510778	611	hunger	stimuli/non_foods\non-food_animate_young_girl.jpg	1	5	1	non-food_animate_young_girl	0	L	8	0	157	0		0	0	157.31975340005	157.419736899901
33075.5	0.0999871999956667	612	hunger	stimuli/non_foods\non-food_animate_snail.jpg	1	5	1	non-food_animate_snail	0	F	3	0	149	0		0	0	157.469746999908	157.569734199904
33113	0.0999881001189351	613	hunger	stimuli/non_foods\non-food_animate_ladybug.jpg	1	5	1	non-food_animate_ladybug	0	S	13	0	124	0		0	0	157.619748899713	157.719736999832
33150.5	0.0999841000884771	614	hunger	stimuli/foods\almonds.jpg	1	5	1	almonds	1	H	5	0	0	0		0	0	157.769747099839	157.869731199928
33188	0.100005699787289	615	hunger	stimuli/foods\green_olives.jpg	1	5	1	green_olives	1	W	16	0	62	0		0	0	157.919740799814	158.019746499602
33225.5	0.0999592998996377	616	hunger	stimuli/foods\onion.jpg	1	5	1	onion	1	B	0	0	229	0		0	0	158.069768999703	158.169728299603
33263	0.099982799962163	617	hunger	stimuli/non_foods\non-food_animate_mouse.jpg	1	5	1	non-food_animate_mouse	0	V	15	0	131	0		0	0	158.219740899745	158.319723699708
33300.5	0.0999823999591172	618	hunger	stimuli/non_foods\non-food_animate_eagle.jpg	1	5	1	non-food_animate_eagle	0	M	9	0	110	0		0	0	158.369738999754	158.469721399713
33338	0.0999902002513409	619	hunger	stimuli/non_foods\non-food_inanimate_chair.jpg	1	5	1	non-food_inanimate_chair	0	X	17	0	172	0		0	0	158.519738999661	158.619729199912
33375.5	0.0999863999895751	620	hunger	stimuli/foods\linguine_with_clams.jpg	1	5	1	linguine_with_clams	1	M	9	0	77	0		0	0	158.669733899646	158.769720299635
33413	0.0999887003563344	621	hunger	stimuli/non_foods\non-food_inanimate_cupboard.jpg	1	5	1	non-food_inanimate_cupboard	0	T	14	0	177	0		0	0	158.819731599651	158.919720300008
33450.5	0.100003600120544	622	hunger	stimuli/non_foods\non-food_inanimate_teddy_bear.jpg	1	5	1	non-food_inanimate_teddy_bear	0	S	13	0	218	0		0	0	158.969732699916	159.069736300036
33488	0.0999945001676679	623	hunger	stimuli/non_foods\non-food_inanimate_wrench.jpg	1	5	1	non-food_inanimate_wrench	0	P	11	0	227	0		0	0	159.11973109981	159.219725599978
33525.5	0.0999819999560714	624	hunger	stimuli/non_foods\non-food_animate_porcupine.jpg	1	5	1	non-food_animate_porcupine	0	B	0	0	138	0		0	0	159.269729999825	159.369711999781
33563	0.0999855999834836	625	hunger	stimuli/foods\donut.jpg	1	5	1	donut	1	C	1	0	44	0		0	0	159.419726799708	159.519712399691
33600.5	0.0999888000078499	626	hunger	stimuli/foods\cooked_ham.jpg	1	5	1	cooked_ham	1	X	17	0	35	0		0	0	159.56972579984	159.669714599848
33638	0.0999858002178371	627	hunger	stimuli/foods\fried_zucchini.jpg	1	5	1	fried_zucchini	1	Z	18	0	51	0		0	0	159.719723799732	159.819709599949
33675.5	0.0999952997080982	628	hunger	stimuli/non_foods\non-food_animate_mammoth.jpg	1	5	1	non-food_animate_mammoth	0	B	0	0	128	0		0	0	159.869715299923	159.969710599631
33713	0.0999663998372853	629	hunger	stimuli/foods\fruit_flan.jpg	1	5	1	fruit_flan	1	H	5	0	53	0		0	0	160.019720899872	160.11968729971
33750.5	0.0999859999865294	630	hunger	stimuli/non_foods\non-food_inanimate_suitcase.jpg	1	5	1	non-food_inanimate_suitcase	0	C	1	0	215	0		0	0	160.169717999641	160.269703999627
33788	0.0999866998754442	631	hunger	stimuli/foods\lamb_chops.jpg	1	5	1	lamb_chops	1	N	10	0	70	0		0	0	160.319717899896	160.419704599772
33825.5	0.0999627998098731	632	hunger	stimuli/non_foods\non-food_inanimate_speakers.jpg	1	5	1	non-food_inanimate_speakers	0	H	5	0	212	0		0	0	160.469712899998	160.569675699808
33863	0.0999889997765422	633	hunger	stimuli/non_foods\non-food_animate_dolphin.jpg	1	5	1	non-food_animate_dolphin	0	S	13	0	106	0		0	0	160.619705399964	160.719694399741
33900.5	0.0999886002391577	634	hunger	stimuli/foods\chocolate_pudding.jpg	1	5	1	chocolate_pudding	1	K	7	0	29	0		0	0	160.769703199621	160.86969179986
33938	0.0999703998677433	635	hunger	stimuli/non_foods\non-food_animate_clown.jpg	1	5	1	non-food_animate_clown	0	F	3	0	102	0		0	0	160.919705499895	161.019675899763
33975.5	0.0999922999180853	636	hunger	stimuli/non_foods\non-food_animate_donkey.jpg	1	5	1	non-food_animate_donkey	0	C	1	0	107	0		0	0	161.06970789982	161.169700199738
34013	0.0999837000854313	637	hunger	stimuli/non_foods\non-food_animate_cat.jpg	1	5	1	non-food_animate_cat	0	D	2	0	98	0		0	0	161.219708999619	161.319692699704
34050.5	0.0999854002147913	638	hunger	stimuli/foods\cream_donuts.jpg	1	5	1	cream_donuts	1	W	16	0	39	0		0	0	161.369703299832	161.469688700046
34088	0.0999447000212967	639	hunger	stimuli/foods\minestrone_soup.jpg	1	5	1	minestrone_soup	1	V	15	0	82	0		0	0	161.519743899815	161.619688599836
34125.5	0.0999875999987125	640	hunger	stimuli/foods\rice_cake.jpg	1	5	1	rice_cake	1	L	8	0	258	0		0	0	161.669699799735	161.769687399734
34163	0.0999786998145282	641	hunger	stimuli/non_foods\non-food_inanimate_bush.jpg	1	5	1	non-food_inanimate_bush	0	F	3	0	167	0		0	0	161.819703999907	161.919682699721
34200.5	0.0999944000504911	642	hunger	stimuli/foods\egg.jpg	1	5	1	egg	1	W	16	0	45	0		0	0	161.969697699882	162.069692099933
34238	0.0999843999743462	643	hunger	stimuli/non_foods\non-food_animate_raccoon.jpg	1	5	1	non-food_animate_raccoon	0	F	3	0	139	0		0	0	162.119702599943	162.219686999917
34275.5	0.0999831999652088	644	hunger	stimuli/non_foods\non-food_animate_baby_crawling.jpg	1	5	1	non-food_animate_baby_crawling	0	G	4	0	92	0		0	0	162.269698099699	162.369681299664
34313	0.0999837997369468	645	hunger	stimuli/non_foods\non-food_inanimate_skateboard.jpg	1	5	1	non-food_inanimate_skateboard	0	H	5	0	208	0		0	0	162.419693599921	162.519677399658
