onset	duration	eventnumber	hunger_condition	stimfilename	blockno	trialno	is_faststream	stim	food_idx	letter	letter_idx	istarget	image_number	response	keypressed	rt	correct	time_stimon	time_stimoff
15103.5	0.0999600000213832	0	hunger	stimuli/foods\chocolate_pudding.jpg	1	1	1	chocolate_pudding	1	G	4	0	29	0		0	0	79.9656605999917	80.0656206000131
15140.75	0.10003610001877	1	hunger	stimuli/non_foods\non-food_animate_donkey.jpg	1	1	1	non-food_animate_donkey	0	H	5	0	107	0		0	0	80.1156308000209	80.2156669000397
15178.25	0.0999831999652088	2	hunger	stimuli/non_foods\non-food_animate_duck.jpg	1	1	1	non-food_animate_duck	0	S	13	0	109	0		0	0	80.2656247999985	80.3656079999637
15215.75	0.0999882000032812	3	hunger	stimuli/foods\red_cabbage.jpg	1	1	1	red_cabbage	1	M	9	0	256	0		0	0	80.4156209999928	80.5156091999961
15253.25	0.0999841999728233	4	hunger	stimuli/foods\frankfurter_and_provolone_salad.jpg	1	1	1	frankfurter_and_provolone_salad	1	C	1	0	49	0		0	0	80.56562020001	80.6656043999828
15290.75	0.0999862999888137	5	hunger	stimuli/foods\apple.jpg	1	1	1	apple	1	R	12	0	1	0		0	0	80.7156181000173	80.8156044000061
15328.25	0.099975400022231	6	hunger	stimuli/non_foods\non-food_inanimate_bamboo.jpg	1	1	1	non-food_inanimate_bamboo	0	V	15	0	159	0		0	0	80.8656269999919	80.9656024000142
15365.75	0.0999872999964282	7	hunger	stimuli/foods\asparagus.jpg	1	1	1	asparagus	1	Z	18	0	4	0		0	0	81.015615100041	81.1156024000375
15403.25	0.0999846999766305	8	hunger	stimuli/non_foods\non-food_animate_bee.jpg	1	1	1	non-food_animate_bee	0	P	11	0	95	0		0	0	81.16561060003	81.2655953000067
15440.75	0.0999831000808626	9	hunger	stimuli/foods\apricot.jpg	1	1	1	apricot	1	W	16	0	2	0		0	0	81.3156131999567	81.4155963000376
15478.25	0.0999874999979511	10	hunger	stimuli/foods\brie.jpg	1	1	1	brie	1	B	0	0	12	0		0	0	81.4656076999381	81.5655951999361
15515.75	0.0999895000131801	11	hunger	stimuli/non_foods\non-food_animate_runner.jpg	1	1	1	non-food_animate_runner	0	N	10	0	142	0		0	0	81.6156230999622	81.7156125999754
15553.25	0.0999999999767169	12	hunger	stimuli/foods\chocolate_pralines.jpg	1	1	1	chocolate_pralines	1	G	4	0	28	0		0	0	81.7655805000104	81.8655804999871
15591	0.0996669000014663	13	hunger	stimuli/foods\cereal.jpg	1	1	1	cereal	1	X	17	0	22	0		0	0	81.9159117999952	82.0155786999967
15628.25	0.0999880000017583	14	hunger	stimuli/foods\museli_bars.jpg	1	1	1	museli_bars	1	L	8	0	84	0		0	0	82.065601499984	82.1655894999858
15665.75	0.0999869999941438	15	hunger	stimuli/foods\salmon.jpg	1	1	1	salmon	1	H	5	0	264	0		0	0	82.2155970999738	82.315584099968
15703.25	0.0999885000055656	16	hunger	stimuli/foods\ginger_root.jpg	1	1	1	ginger_root	1	K	7	0	57	0		0	0	82.3655950999819	82.4655835999874
15740.75	0.0999842999735847	17	hunger	stimuli/foods\taco.jpg	1	1	1	taco	1	X	17	0	274	0		0	0	82.5155990000349	82.6155833000084
15778.25	0.100001499988139	18	hunger	stimuli/foods\lettuce.jpg	1	1	1	lettuce	1	G	4	0	75	0		0	0	82.6655945000239	82.765596000012
15815.75	0.0999706999864429	19	hunger	stimuli/foods\pepperoni_pizza.jpg	1	1	1	pepperoni_pizza	1	D	2	0	241	0		0	0	82.8156096000457	82.9155803000322
15853.25	0.0999824999598786	20	hunger	stimuli/foods\spring_onions.jpg	1	1	1	spring_onions	1	K	7	0	269	0		0	0	82.965590900043	83.0655734000029
15890.75	0.0999788000481203	21	hunger	stimuli/non_foods\non-food_animate_hummingbird.jpg	1	1	1	non-food_animate_hummingbird	0	D	2	0	120	0		0	0	83.1155897999415	83.2155685999896
15928.25	0.0999888000078499	22	hunger	stimuli/non_foods\non-food_inanimate_cap.jpg	1	1	1	non-food_inanimate_cap	0	W	16	0	171	0		0	0	83.2655885999557	83.3655773999635
15965.75	0.0999893000116572	23	hunger	stimuli/non_foods\non-food_inanimate_moss.jpg	1	1	1	non-food_inanimate_moss	0	N	10	0	194	0		0	0	83.4155801000306	83.5155694000423
16003.25	0.0999852999811992	24	hunger	stimuli/foods\hazelnuts.jpg	1	1	1	hazelnuts	1	P	11	0	65	0		0	0	83.5655822999543	83.6655675999355
16040.75	0.0999852999811992	25	hunger	stimuli/non_foods\non-food_animate_butterfly.jpg	1	1	1	non-food_animate_butterfly	0	V	15	0	96	0		0	0	83.7155811999692	83.8155664999504
16078.25	0.0999806999461725	26	hunger	stimuli/foods\cracker.jpg	1	1	1	cracker	1	N	10	0	38	0		0	0	83.8655808999902	83.9655615999363
16115.75	0.0999892000108957	27	hunger	stimuli/non_foods\non-food_inanimate_headphones.jpg	1	1	1	non-food_inanimate_headphones	0	O	22	1	188	0		0	0	84.0155767999822	84.1155659999931
16153.25	0.0999855999834836	28	hunger	stimuli/foods\lollies.jpg	1	1	1	lollies	1	R	12	0	78	0		0	0	84.1655745999888	84.2655601999722
16190.75	0.0999842999735847	29	hunger	stimuli/non_foods\non-food_inanimate_stapler.jpg	1	1	1	non-food_inanimate_stapler	0	H	5	0	213	0		0	0	84.3155740000075	84.4155582999811
16228.25	0.0999851999804378	30	hunger	stimuli/foods\cooked_prawn.jpg	1	1	1	cooked_prawn	1	F	3	0	36	1	a	0.443363100057468	1	84.4655735000269	84.5655587000074
16265.75	0.0999904000200331	31	hunger	stimuli/foods\hotdog.jpg	1	1	1	hotdog	1	Z	18	0	67	0		0	0	84.6155662999954	84.7155567000154
16303.25	0.0999854999827221	32	hunger	stimuli/non_foods\non-food_inanimate_jeans.jpg	1	1	1	non-food_inanimate_jeans	0	C	1	0	191	0		0	0	84.7655697000446	84.8655552000273
16340.75	0.0999900000169873	33	hunger	stimuli/non_foods\non-food_inanimate_clover.jpg	1	1	1	non-food_inanimate_clover	0	X	17	0	174	0		0	0	84.9155618000077	85.0155518000247
16378.25	0.0999903000192717	34	hunger	stimuli/non_foods\non-food_animate_raccoon.jpg	1	1	1	non-food_animate_raccoon	0	L	8	0	139	0		0	0	85.0655602000188	85.1655505000381
16415.75	0.0999598000198603	35	hunger	stimuli/non_foods\non-food_inanimate_alarm_clock.jpg	1	1	1	non-food_inanimate_alarm_clock	0	D	2	0	158	0		0	0	85.215586700011	85.3155465000309
16453.25	0.0999828000785783	36	hunger	stimuli/non_foods\non-food_inanimate_scissors.jpg	1	1	1	non-food_inanimate_scissors	0	R	12	0	205	0		0	0	85.3655619999627	85.4655448000412
16490.75	0.0999862999888137	37	hunger	stimuli/non_foods\non-food_inanimate_hay.jpg	1	1	1	non-food_inanimate_hay	0	M	9	0	187	0		0	0	85.5155612999806	85.6155475999694
16528.25	0.0999669999582693	38	hunger	stimuli/non_foods\non-food_animate_green_bug.jpg	1	1	1	non-food_animate_green_bug	0	R	12	0	118	0		0	0	85.6655756999971	85.7655426999554
16565.75	0.0999862999888137	39	hunger	stimuli/foods\oyster.jpg	1	1	1	oyster	1	G	4	0	233	0		0	0	85.8155542999739	85.9155405999627
16603.25	0.0999849999789149	40	hunger	stimuli/non_foods\non-food_inanimate_couch.jpg	1	1	1	non-food_inanimate_couch	0	V	15	0	176	0		0	0	85.9655543999979	86.0655393999768
16640.75	0.0999871999956667	41	hunger	stimuli/non_foods\non-food_inanimate_toilet.jpg	1	1	1	non-food_inanimate_toilet	0	D	2	0	220	0		0	0	86.1155490999809	86.2155362999765
16678.25	0.099992899922654	42	hunger	stimuli/non_foods\non-food_animate_young_boy.jpg	1	1	1	non-food_animate_young_boy	0	N	10	0	156	0		0	0	86.2655553000513	86.365548199974
16715.75	0.0999619000358507	43	hunger	stimuli/non_foods\non-food_animate_sea_lion.jpg	1	1	1	non-food_animate_sea_lion	0	L	8	0	143	0		0	0	86.4155692999484	86.5155311999843
16753.25	0.0999842999735847	44	hunger	stimuli/non_foods\non-food_animate_ant.jpg	1	1	1	non-food_animate_ant	0	V	15	0	91	0		0	0	86.5655444000149	86.6655286999885
16790.75	0.0999868999933824	45	hunger	stimuli/non_foods\non-food_animate_porcupine.jpg	1	1	1	non-food_animate_porcupine	0	S	13	0	138	0		0	0	86.7155434000306	86.815530300024
16828.25	0.0999840999720618	46	hunger	stimuli/non_foods\non-food_inanimate_highlighter.jpg	1	1	1	non-food_inanimate_highlighter	0	D	2	0	189	0		0	0	86.8655412000371	86.9655253000092
16865.75	0.0999849000945687	47	hunger	stimuli/non_foods\non-food_inanimate_hammer.jpg	1	1	1	non-food_inanimate_hammer	0	F	3	0	186	0		0	0	87.0155403999379	87.1155253000325
16903.25	0.0999849000945687	48	hunger	stimuli/foods\blackberry.jpg	1	1	1	blackberry	1	X	17	0	11	0		0	0	87.1655384999467	87.2655234000413
16940.75	0.0999851000960916	49	hunger	stimuli/non_foods\non-food_inanimate_short_sleeved_shirt.jpg	1	1	1	non-food_inanimate_short_sleeved_shirt	0	P	11	0	207	0		0	0	87.315534299938	87.4155194000341
16978.25	0.0999625000404194	50	hunger	stimuli/non_foods\non-food_animate_fox.jpg	1	1	1	non-food_animate_fox	0	W	16	0	112	0		0	0	87.4655496999621	87.5655122000026
17015.75	0.0999607000267133	51	hunger	stimuli/foods\fries.jpg	1	1	1	fries	1	T	14	0	52	0		0	0	87.6155366000021	87.7154973000288
17053.25	0.0999890000093728	52	hunger	stimuli/foods\watermelon.jpg	1	1	1	watermelon	1	P	11	0	279	0		0	0	87.7655284999637	87.8655174999731
17090.75	0.0999872999964282	53	hunger	stimuli/foods\pear.jpg	1	1	1	pear	1	S	13	0	239	0		0	0	87.9155282999855	88.0155155999819
17128.25	0.0999938999302685	54	hunger	stimuli/non_foods\non-food_inanimate_horn.jpg	1	1	1	non-food_inanimate_horn	0	H	5	0	190	0		0	0	88.0655294000171	88.1655232999474
17165.75	0.0999663999537006	55	hunger	stimuli/non_foods\non-food_animate_cat.jpg	1	1	1	non-food_animate_cat	0	R	12	0	98	0		0	0	88.2155453000451	88.3155116999988
17203.25	0.099984799977392	56	hunger	stimuli/foods\grapes.jpg	1	1	1	grapes	1	K	7	0	60	0		0	0	88.3655215000035	88.4655062999809
17240.75	0.0999891000101343	57	hunger	stimuli/foods\linguine_with_clams.jpg	1	1	1	linguine_with_clams	1	C	1	0	77	0		0	0	88.5155205000192	88.6155096000293
17278.25	0.0999871999956667	58	hunger	stimuli/foods\fruit_flan.jpg	1	1	1	fruit_flan	1	K	7	0	53	0		0	0	88.6655163000105	88.7655035000062
17315.75	0.0999855999834836	59	hunger	stimuli/non_foods\non-food_animate_iguana.jpg	1	1	1	non-food_animate_iguana	0	S	13	0	121	0		0	0	88.8155176000437	88.9155032000272
17353.25	0.0999852999811992	60	hunger	stimuli/foods\lime.jpg	1	1	1	lime	1	C	1	0	76	0		0	0	88.9655129000312	89.0654982000124
17390.75	0.0999869999941438	61	hunger	stimuli/non_foods\non-food_inanimate_towel.jpg	1	1	1	non-food_inanimate_towel	0	G	4	0	221	0		0	0	89.1155143999495	89.2155013999436
17428.25	0.0999749000184238	62	hunger	stimuli/foods\papaya.jpg	1	1	1	papaya	1	C	1	0	235	0		0	0	89.265521400026	89.3654963000445
17465.75	0.0999840000877157	63	hunger	stimuli/non_foods\non-food_inanimate_construction_helment.jpg	1	1	1	non-food_inanimate_construction_helment	0	K	7	0	175	0		0	0	89.4155092999572	89.5154933000449
17503.25	0.0999801999423653	64	hunger	stimuli/foods\orange.jpg	1	1	1	orange	1	P	11	0	230	0		0	0	89.5655113999965	89.6654915999388
17540.75	0.0999834999674931	65	hunger	stimuli/non_foods\non-food_inanimate_skirt.jpg	1	1	1	non-food_inanimate_skirt	0	O	22	1	209	0		0	0	89.7155057999771	89.8154892999446
17578.25	0.0999626000411808	66	hunger	stimuli/non_foods\non-food_animate_dachshund.jpg	1	1	1	non-food_animate_dachshund	0	S	13	0	104	0		0	0	89.8655204999959	89.9654831000371
17615.75	0.0999712001066655	67	hunger	stimuli/non_foods\non-food_animate_seahorse.jpg	1	1	1	non-food_animate_seahorse	0	B	0	0	145	0		0	0	90.0155099999392	90.1154812000459
17653.25	0.0999874999979511	68	hunger	stimuli/non_foods\non-food_inanimate_gloves.jpg	1	1	1	non-food_inanimate_gloves	0	V	15	0	183	1	a	0.541813599993475	1	90.1654940999579	90.2654815999558
17690.75	0.0999859999865294	69	hunger	stimuli/foods\prawn.jpg	1	1	1	prawn	1	S	13	0	249	0		0	0	90.3154925999697	90.4154785999563
17728.25	0.0999879000009969	70	hunger	stimuli/foods\omelette.jpg	1	1	1	omelette	1	B	0	0	228	0		0	0	90.4654896999709	90.5654775999719
17765.75	0.0999756000237539	71	hunger	stimuli/non_foods\non-food_inanimate_rope.jpg	1	1	1	non-food_inanimate_rope	0	F	3	0	204	0		0	0	90.6154881999828	90.7154638000065
17803.25	0.0999800000572577	72	hunger	stimuli/foods\potato_and_green_bean_salad.jpg	1	1	1	potato_and_green_bean_salad	1	M	9	0	246	0		0	0	90.7654964999529	90.8654765000101
17840.75	0.0999881000025198	73	hunger	stimuli/non_foods\non-food_animate_grasshopper.jpg	1	1	1	non-food_animate_grasshopper	0	S	13	0	117	0		0	0	90.9154894000385	91.015477500041
17878.25	0.099974799901247	74	hunger	stimuli/non_foods\non-food_animate_penguin.jpg	1	1	1	non-food_animate_penguin	0	B	0	0	135	0		0	0	91.0655016000383	91.1654763999395
17915.75	0.0999871001113206	75	hunger	stimuli/non_foods\non-food_inanimate_lighter.jpg	1	1	1	non-food_inanimate_lighter	0	L	8	0	193	0		0	0	91.2154850999359	91.3154722000472
17953.25	0.0999881000025198	76	hunger	stimuli/foods\cinnamon_sroll.jpg	1	1	1	cinnamon_sroll	1	T	14	0	31	0		0	0	91.3654831999447	91.4654712999472
17990.75	0.0999909000238404	77	hunger	stimuli/non_foods\non-food_animate_mouse.jpg	1	1	1	non-food_animate_mouse	0	S	13	0	131	0		0	0	91.515483599971	91.6154744999949
18028.25	0.0999956999439746	78	hunger	stimuli/non_foods\non-food_inanimate_waterlily.jpg	1	1	1	non-food_inanimate_waterlily	0	H	5	0	226	0		0	0	91.6654886000324	91.7654842999764
18065.75	0.099954399978742	79	hunger	stimuli/non_foods\non-food_inanimate_guitar.jpg	1	1	1	non-food_inanimate_guitar	0	X	17	0	185	0		0	0	91.8155112999957	91.9154656999744
18103.25	0.0999841999728233	80	hunger	stimuli/foods\pumpkin.jpg	1	1	1	pumpkin	1	C	1	0	250	0		0	0	91.9654774999944	92.0654616999673
18140.75	0.0999857999850065	81	hunger	stimuli/foods\chilli.jpg	1	1	1	chilli	1	X	17	0	25	0		0	0	92.1154763000086	92.2154620999936
18178.25	0.0999868999933824	82	hunger	stimuli/foods\banana.jpg	1	1	1	banana	1	J	6	0	9	0		0	0	92.2654744000174	92.3654613000108
18215.75	0.0999841999728233	83	hunger	stimuli/non_foods\non-food_inanimate_cactus_pot_plant.jpg	1	1	1	non-food_inanimate_cactus_pot_plant	0	P	11	0	169	0		0	0	92.4154720000224	92.5154561999952
18253.25	0.0999880000017583	84	hunger	stimuli/non_foods\non-food_inanimate_drum_set.jpg	1	1	1	non-food_inanimate_drum_set	0	T	14	0	179	0		0	0	92.5654714000411	92.6654594000429
18290.75	0.0999670999590307	85	hunger	stimuli/foods\raw_sausage.jpg	1	1	1	raw_sausage	1	R	12	0	254	0		0	0	92.7154673000332	92.8154343999922
18328.25	0.0999889000086114	86	hunger	stimuli/non_foods\non-food_animate_young_girl.jpg	1	1	1	non-food_animate_young_girl	0	Z	18	0	157	0		0	0	92.8654702999629	92.9654591999715
18365.75	0.0999828999629244	87	hunger	stimuli/foods\egg.jpg	1	1	1	egg	1	V	15	0	45	0		0	0	93.0154589000158	93.1154417999787
18403.25	0.0999855999834836	88	hunger	stimuli/foods\corncob.jpg	1	1	1	corncob	1	H	5	0	37	0		0	0	93.1654574000277	93.2654430000111
18440.75	0.100001699989662	89	hunger	stimuli/non_foods\non-food_animate_millipede.jpg	1	1	1	non-food_animate_millipede	0	X	17	0	129	0		0	0	93.3154551000334	93.4154568000231
18478.25	0.0999874999979511	90	hunger	stimuli/foods\baked_cod_with_carrots_and_green_beans.jpg	1	1	1	baked_cod_with_carrots_and_green_beans	1	D	2	0	7	0		0	0	93.4654542000499	93.5654417000478
18515.75	0.0999844999751076	91	hunger	stimuli/foods\risotto_with_peas_and_asparagus_tips.jpg	1	1	1	risotto_with_peas_and_asparagus_tips	1	F	3	0	259	0		0	0	93.615450500045	93.7154350000201
18553.25	0.0999862001044676	92	hunger	stimuli/foods\lamb_chops.jpg	1	1	1	lamb_chops	1	G	4	0	70	0		0	0	93.7654491999419	93.8654354000464
18590.75	0.099985699984245	93	hunger	stimuli/non_foods\non-food_animate_chicken.jpg	1	1	1	non-food_animate_chicken	0	C	1	0	101	0		0	0	93.9154479999561	94.0154336999403
18628.25	0.0999859999865294	94	hunger	stimuli/foods\lemon.jpg	1	1	1	lemon	1	L	8	0	72	0		0	0	94.0654474999756	94.1654334999621
18665.75	0.0999852999811992	95	hunger	stimuli/non_foods\non-food_animate_horse.jpg	1	1	1	non-food_animate_horse	0	B	0	0	119	0		0	0	94.2154422999592	94.3154275999404
18703.25	0.0999838999705389	96	hunger	stimuli/non_foods\non-food_inanimate_suitcase.jpg	1	1	1	non-food_inanimate_suitcase	0	D	2	0	215	0		0	0	94.3654430999886	94.4654269999592
18740.75	0.100003300001845	97	hunger	stimuli/foods\peach.jpg	1	1	1	peach	1	T	14	0	238	0		0	0	94.5154326000484	94.6154359000502
18778.25	0.0999467000365257	98	hunger	stimuli/foods\bagel.jpg	1	1	1	bagel	1	N	10	0	6	0		0	0	94.6654548000079	94.7654015000444
18815.75	0.0999703999841586	99	hunger	stimuli/non_foods\non-food_animate_giraffe.jpg	1	1	1	non-food_animate_giraffe	0	L	8	0	115	0		0	0	94.8154417000478	94.915412100032
18853.25	0.0999859999865294	100	hunger	stimuli/non_foods\non-food_animate_baby_crawling.jpg	1	1	1	non-food_animate_baby_crawling	0	V	15	0	92	0		0	0	94.9654424999608	95.0654284999473
18890.75	0.0999939000466838	101	hunger	stimuli/foods\meatballs.jpg	1	1	1	meatballs	1	X	17	0	81	0		0	0	95.115437499946	95.2154313999927
18928.25	0.0999644999392331	102	hunger	stimuli/non_foods\non-food_animate_sea_turtle.jpg	1	1	1	non-food_animate_sea_turtle	0	N	10	0	144	0		0	0	95.2654597000219	95.3654241999611
18965.75	0.099979699938558	103	hunger	stimuli/foods\chestnut.jpg	1	1	1	chestnut	1	D	2	0	24	0		0	0	95.4154417000245	95.5154213999631
19003.25	0.0999842999735847	104	hunger	stimuli/foods\smoked_ham.jpg	1	1	1	smoked_ham	1	Z	18	0	266	0		0	0	95.5654343999922	95.6654186999658
19040.75	0.0999859999865294	105	hunger	stimuli/non_foods\non-food_animate_cow.jpg	1	1	1	non-food_animate_cow	0	H	5	0	103	0		0	0	95.7154326000018	95.8154185999883
19078.25	0.0999850999796763	106	hunger	stimuli/non_foods\non-food_animate_Causasian_man.jpg	1	1	1	non-food_animate_Causasian_man	0	P	11	0	89	0		0	0	95.8654313000152	95.9654163999949
19115.75	0.0999846999766305	107	hunger	stimuli/foods\fruit_salad.jpg	1	1	1	fruit_salad	1	W	16	0	55	0		0	0	96.0154286000179	96.1154132999945
19153.25	0.0999853999819607	108	hunger	stimuli/foods\eggplant.jpg	1	1	1	eggplant	1	T	14	0	46	0		0	0	96.1654244000092	96.2654097999912
19190.75	0.0999855999834836	109	hunger	stimuli/foods\radish.jpg	1	1	1	radish	1	V	15	0	251	0		0	0	96.3154252000386	96.4154108000221
19228.25	0.0999728000024334	110	hunger	stimuli/non_foods\non-food_inanimate_tree.jpg	1	1	1	non-food_inanimate_tree	0	S	13	0	223	0		0	0	96.4654360000277	96.5654088000301
19265.75	0.0999788000481203	111	hunger	stimuli/non_foods\non-food_inanimate_shell.jpg	1	1	1	non-food_inanimate_shell	0	R	12	0	206	0		0	0	96.6154244999634	96.7154033000115
19303.25	0.0999767000321299	112	hunger	stimuli/foods\garlic.jpg	1	1	1	garlic	1	V	15	0	56	0		0	0	96.7654192999471	96.8653959999792
19340.75	0.100013899966143	113	hunger	stimuli/non_foods\non-food_inanimate_bush.jpg	1	1	1	non-food_inanimate_bush	0	K	7	0	167	0		0	0	96.9154110000236	97.0154248999897
19378.25	0.0999429000075907	114	hunger	stimuli/foods\potatoes.jpg	1	1	1	potatoes	1	V	15	0	248	0		0	0	97.0654483999824	97.16539129999
19415.75	0.099983699969016	115	hunger	stimuli/foods\rockmelon.jpg	1	1	1	rockmelon	1	L	8	0	262	0		0	0	97.2154085000511	97.3153922000201
19453.25	0.0999815000686795	116	hunger	stimuli/non_foods\non-food_animate_alligator.jpg	1	1	1	non-food_animate_alligator	0	Z	18	0	90	0		0	0	97.3654093999648	97.4653909000335
19490.75	0.0999791000504047	117	hunger	stimuli/non_foods\non-food_inanimate_folding_chair.jpg	1	1	1	non-food_inanimate_folding_chair	0	G	4	0	182	0		0	0	97.5154031999409	97.6153822999913
19528.25	0.100011800066568	118	hunger	stimuli/non_foods\non-food_animate_mammoth.jpg	1	1	1	non-food_animate_mammoth	0	H	5	0	128	0		0	0	97.6653859999496	97.7653978000162
19565.75	0.100013199960813	119	hunger	stimuli/foods\carrot.jpg	1	1	1	carrot	1	G	4	0	19	0		0	0	97.8153779000277	97.9153910999885
19603.25	0.100001499988139	120	hunger	stimuli/non_foods\non-food_animate_caterpillar.jpg	1	1	1	non-food_animate_caterpillar	0	B	0	0	99	0		0	0	97.9653912000358	98.0653927000239
19640.75	0.0999811000656337	121	hunger	stimuli/foods\cooked_ham.jpg	1	1	1	cooked_ham	1	R	12	0	35	0		0	0	98.115406799945	98.2153879000107
19678.25	0.0999832999659702	122	hunger	stimuli/foods\celery.jpg	1	1	1	celery	1	K	7	0	21	0		0	0	98.2654020000482	98.3653853000142
19715.75	0.0999852999811992	123	hunger	stimuli/foods\fried_zucchini.jpg	1	1	1	fried_zucchini	1	C	1	0	51	0		0	0	98.4153994000517	98.5153847000329
19753.25	0.0999850000953302	124	hunger	stimuli/foods\fruit_pie.jpg	1	1	1	fruit_pie	1	B	0	0	54	0		0	0	98.5653981999494	98.6653832000447
19790.75	0.0999909000238404	125	hunger	stimuli/non_foods\non-food_inanimate_pine_cone.jpg	1	1	1	non-food_inanimate_pine_cone	0	H	5	0	200	0		0	0	98.7153934999369	98.8153843999607
19828.25	0.0999706999864429	126	hunger	stimuli/foods\croissant.jpg	1	1	1	croissant	1	D	2	0	40	0		0	0	98.8654112999793	98.9653819999658
19865.75	0.0999854999827221	127	hunger	stimuli/non_foods\non-food_inanimate_briefcase.jpg	1	1	1	non-food_inanimate_briefcase	0	S	13	0	163	0		0	0	99.0153907999629	99.1153762999456
19903.25	0.0999878000002354	128	hunger	stimuli/foods\hamburger.jpg	1	1	1	hamburger	1	F	3	0	64	0		0	0	99.1653894999763	99.2653772999765
19940.75	0.0999805999454111	129	hunger	stimuli/foods\chocolate_bar.jpg	1	1	1	chocolate_bar	1	V	15	0	26	0		0	0	99.3153894999996	99.415370099945
19978.25	0.0999818999553099	130	hunger	stimuli/non_foods\non-food_animate_lion.jpg	1	1	1	non-food_animate_lion	0	H	5	0	125	0		0	0	99.4653884000145	99.5653702999698
20015.75	0.0999818999553099	131	hunger	stimuli/non_foods\non-food_inanimate_button.jpg	1	1	1	non-food_inanimate_button	0	C	1	0	168	0		0	0	99.6153895000461	99.7153714000015
20053.25	0.0999669999582693	132	hunger	stimuli/foods\honey.jpg	1	1	1	honey	1	W	16	0	66	0		0	0	99.7653858000413	99.8653527999995
20090.75	0.0999868999933824	133	hunger	stimuli/foods\cannoli.jpg	1	1	1	cannoli	1	C	1	0	17	0		0	0	99.9153797000181	100.015366600011
20128.25	0.0999822000740096	134	hunger	stimuli/foods\oregano.jpg	1	1	1	oregano	1	G	4	0	231	0		0	0	100.065381399938	100.165363600012
20165.75	0.0999844999751076	135	hunger	stimuli/foods\mushroom.jpg	1	1	1	mushroom	1	C	1	0	85	0		0	0	100.215377000044	100.315361500019
20203.25	0.0999818000709638	136	hunger	stimuli/non_foods\non-food_animate_german_shepherd.jpg	1	1	1	non-food_animate_german_shepherd	0	Z	18	0	114	0		0	0	100.365377599956	100.465359400027
20240.75	0.100007000030018	137	hunger	stimuli/non_foods\non-food_animate_eagle.jpg	1	1	1	non-food_animate_eagle	0	H	5	0	110	0		0	0	100.515372299938	100.615379299968
20278.25	0.0999464999185875	138	hunger	stimuli/foods\lentils.jpg	1	1	1	lentils	1	L	8	0	74	0		0	0	100.665413800045	100.765360299964
20315.75	0.0999768999172375	139	hunger	stimuli/non_foods\non-food_inanimate_watering_can.jpg	1	1	1	non-food_inanimate_watering_can	0	S	13	0	225	0		0	0	100.815378900035	100.915355799953
21090.75	0.0999622999224812	140	hunger	stimuli/foods\mandarin.jpg	1	2	1	mandarin	1	W	16	0	79	0		0	0	103.915350900032	104.015313199954
21128.25	0.0999798999400809	141	hunger	stimuli/foods\wafer.jpg	1	2	1	wafer	1	X	17	0	277	0		0	0	104.065330000012	104.165309899952
21165.75	0.0999840999720618	142	hunger	stimuli/non_foods\non-food_animate_Asian_man.jpg	1	2	1	non-food_animate_Asian_man	0	Z	18	0	88	0		0	0	104.215331100044	104.315315200016
21203.25	0.0999848999781534	143	hunger	stimuli/non_foods\non-food_inanimate_rack.jpg	1	2	1	non-food_inanimate_rack	0	D	2	0	202	0		0	0	104.365324000013	104.465308899991
21240.75	0.0999837999697775	144	hunger	stimuli/foods\toasted_bread_with_tomatoes.jpg	1	2	1	toasted_bread_with_tomatoes	1	T	14	0	275	0		0	0	104.515325500048	104.615309300018
21278.25	0.0999744000146165	145	hunger	stimuli/foods\raisins.jpg	1	2	1	raisins	1	W	16	0	252	0		0	0	104.665334000019	104.765308400034
21315.75	0.0999832999659702	146	hunger	stimuli/foods\baked_lamb_with_potatoes.jpg	1	2	1	baked_lamb_with_potatoes	1	K	7	0	8	0		0	0	104.815319000045	104.915302300011
21353.25	0.099982300074771	147	hunger	stimuli/non_foods\non-food_inanimate_fire_extinguisher.jpg	1	2	1	non-food_inanimate_fire_extinguisher	0	H	5	0	181	0		0	0	104.965319899959	105.065302200033
21390.75	0.099982300074771	148	hunger	stimuli/foods\beetroots.jpg	1	2	1	beetroots	1	Z	18	0	10	0		0	0	105.115316899959	105.215299200034
21428.25	0.0999905999051407	149	hunger	stimuli/non_foods\non-food_inanimate_skateboard.jpg	1	2	1	non-food_inanimate_skateboard	0	C	1	0	208	0		0	0	105.26532450004	105.365315099945
21465.75	0.0999652999453247	150	hunger	stimuli/foods\raw_ham.jpg	1	2	1	raw_ham	1	J	6	0	253	0		0	0	105.41533410002	105.515299399965
21503.25	0.0999577000038698	151	hunger	stimuli/foods\brownie.jpg	1	2	1	brownie	1	L	8	0	14	0		0	0	105.565310299979	105.665267999982
21540.75	0.0999869999941438	152	hunger	stimuli/non_foods\non-food_inanimate_teddy_bear.jpg	1	2	1	non-food_inanimate_teddy_bear	0	T	14	0	218	0		0	0	105.715310500003	105.815297499998
21578.25	0.0999824999598786	153	hunger	stimuli/foods\ice_cream.jpg	1	2	1	ice_cream	1	R	12	0	68	0		0	0	105.865308600012	105.965291099972
21615.75	0.0999525999650359	154	hunger	stimuli/non_foods\non-food_inanimate_nest.jpg	1	2	1	non-food_inanimate_nest	0	S	13	0	196	0		0	0	106.015306200017	106.115258799982
21653.25	0.0999823999591172	155	hunger	stimuli/non_foods\non-food_inanimate_chandelier.jpg	1	2	1	non-food_inanimate_chandelier	0	L	8	0	173	0		0	0	106.165299799992	106.265282199951
21690.75	0.0999841999728233	156	hunger	stimuli/foods\dates.jpg	1	2	1	dates	1	G	4	0	43	0		0	0	106.315293599968	106.415277799941
21728.25	0.100027299951762	157	hunger	stimuli/non_foods\non-food_animate_pigeon.jpg	1	2	1	non-food_animate_pigeon	0	V	15	0	136	0		0	0	106.465294199996	106.565321499947
21765.75	0.0999743000138551	158	hunger	stimuli/non_foods\non-food_animate_slug.jpg	1	2	1	non-food_animate_slug	0	M	9	0	148	0		0	0	106.615301899961	106.715276199975
21803.25	0.0999820999568328	159	hunger	stimuli/foods\roasted_chicken.jpg	1	2	1	roasted_chicken	1	V	15	0	261	0		0	0	106.765291100019	106.865273199975
21840.75	0.0999924999196082	160	hunger	stimuli/non_foods\non-food_inanimate_toy_airplane.jpg	1	2	1	non-food_inanimate_toy_airplane	0	S	13	0	222	0		0	0	106.915289700031	107.015282199951
21878.25	0.100023800041527	161	hunger	stimuli/foods\pomegranate.jpg	1	2	1	pomegranate	1	C	1	0	244	0		0	0	107.065298200003	107.165322000044
21915.75	0.0999414999969304	162	hunger	stimuli/non_foods\non-food_animate_lizard.jpg	1	2	1	non-food_animate_lizard	0	S	13	0	126	0		0	0	107.21533269994	107.315274199937
21953.25	0.0999817999545485	163	hunger	stimuli/non_foods\non-food_animate_cheetah.jpg	1	2	1	non-food_animate_cheetah	0	C	1	0	100	0		0	0	107.365293500014	107.465275299968
21990.75	0.0999797999393195	164	hunger	stimuli/foods\cucumber.jpg	1	2	1	cucumber	1	S	13	0	41	0		0	0	107.515290500014	107.615270299953
22028.25	0.0999821999575943	165	hunger	stimuli/foods\avocado.jpg	1	2	1	avocado	1	D	2	0	5	0		0	0	107.665287100011	107.765269299969
22065.75	0.0999790000496432	166	hunger	stimuli/non_foods\non-food_animate_dolphin.jpg	1	2	1	non-food_animate_dolphin	0	F	3	0	106	0		0	0	107.815295899985	107.915274900035
22103.25	0.0999900000169873	167	hunger	stimuli/non_foods\non-food_animate_deer.jpg	1	2	1	non-food_animate_deer	0	B	0	0	105	0		0	0	107.965275299968	108.065265299985
22140.75	0.0999819999560714	168	hunger	stimuli/non_foods\non-food_inanimate_tent.jpg	1	2	1	non-food_inanimate_tent	0	S	13	0	219	0		0	0	108.115280000027	108.215261999983
22178.25	0.0999822999583557	169	hunger	stimuli/foods\cinnamon.jpg	1	2	1	cinnamon	1	T	14	0	30	0		0	0	108.26527990005	108.365262200008
22215.75	0.0999819000717252	170	hunger	stimuli/non_foods\non-food_animate_frog.jpg	1	2	1	non-food_animate_frog	0	E	20	1	113	0		0	0	108.415278099943	108.515260000015
22253.25	0.0999858001014218	171	hunger	stimuli/foods\red_beans.jpg	1	2	1	red_beans	1	D	2	0	255	0		0	0	108.565274099936	108.665259900037
22290.75	0.0999828000785783	172	hunger	stimuli/foods\artichoke.jpg	1	2	1	artichoke	1	J	6	0	3	0		0	0	108.715275299968	108.815258100047
22328.25	0.100014699972235	173	hunger	stimuli/foods\capsicum.jpg	1	2	1	capsicum	1	S	13	0	18	1	a	0.541803100029938	1	108.865258899983	108.965273599955
22365.75	0.0999581000069156	174	hunger	stimuli/foods\clams.jpg	1	2	1	clams	1	B	0	0	32	0		0	0	109.015296499943	109.11525459995
22403.25	0.0999845999758691	175	hunger	stimuli/non_foods\non-food_inanimate_ring.jpg	1	2	1	non-food_inanimate_ring	0	S	13	0	203	0		0	0	109.165268199984	109.26525279996
22440.75	0.0999859999865294	176	hunger	stimuli/non_foods\non-food_inanimate_bed.jpg	1	2	1	non-food_inanimate_bed	0	X	17	0	160	0		0	0	109.315265299985	109.415251299972
22478.25	0.099999799975194	177	hunger	stimuli/non_foods\non-food_inanimate_soccer_ball.jpg	1	2	1	non-food_inanimate_soccer_ball	0	H	5	0	210	0		0	0	109.465250400011	109.565250199987
22515.75	0.0999912000261247	178	hunger	stimuli/foods\coffee_beans.jpg	1	2	1	coffee_beans	1	V	15	0	34	0		0	0	109.615239399951	109.715230599977
22553.25	0.0999837999697775	179	hunger	stimuli/foods\pancakes.jpg	1	2	1	pancakes	1	G	4	0	234	0		0	0	109.765262300032	109.865246100002
22590.75	0.0999983999645337	180	hunger	stimuli/foods\tomato.jpg	1	2	1	tomato	1	P	11	0	276	0		0	0	109.915245200042	110.015243600006
22628.25	0.0999707999872044	181	hunger	stimuli/foods\lemon_meringue_pie.jpg	1	2	1	lemon_meringue_pie	1	V	15	0	73	0		0	0	110.065270600026	110.165241400013
22665.75	0.0999875999987125	182	hunger	stimuli/non_foods\non-food_inanimate_wrench.jpg	1	2	1	non-food_inanimate_wrench	0	F	3	0	227	0		0	0	110.215253700037	110.315241300035
22703.25	0.0999830000801012	183	hunger	stimuli/non_foods\non-food_inanimate_cupboard.jpg	1	2	1	non-food_inanimate_cupboard	0	W	16	0	177	0		0	0	110.365253399941	110.465236400021
22740.75	0.0999860999872908	184	hunger	stimuli/non_foods\non-food_inanimate_chair.jpg	1	2	1	non-food_inanimate_chair	0	B	0	0	172	0		0	0	110.515252399957	110.615238499944
22778.25	0.0999501999467611	185	hunger	stimuli/foods\lasagna.jpg	1	2	1	lasagna	1	S	13	0	71	0		0	0	110.665284899995	110.765235099941
22815.75	0.0999701999826357	186	hunger	stimuli/non_foods\non-food_animate_ram.jpg	1	2	1	non-food_animate_ram	0	P	11	0	140	0		0	0	110.815261099953	110.915231299936
22853.25	0.0999810999492183	187	hunger	stimuli/foods\kiwi.jpg	1	2	1	kiwi	1	W	16	0	69	0		0	0	110.965247099986	111.065228199936
22890.75	0.0999863999895751	188	hunger	stimuli/foods\cabbage.jpg	1	2	1	cabbage	1	X	17	0	16	0		0	0	111.115242199972	111.215228599962
22928.25	0.0999887000070885	189	hunger	stimuli/non_foods\non-food_inanimate_table.jpg	1	2	1	non-food_inanimate_table	0	T	14	0	217	0		0	0	111.265239599976	111.365228299983
22965.75	0.0999870999949053	190	hunger	stimuli/non_foods\non-food_animate_seal.jpg	1	2	1	non-food_animate_seal	0	V	15	0	146	0		0	0	111.415237899986	111.515224999981
23003.25	0.0999873999971896	191	hunger	stimuli/foods\brussel_sprouts.jpg	1	2	1	brussel_sprouts	1	C	1	0	15	0		0	0	111.565236900002	111.665224299999
23040.75	0.0999967999523506	192	hunger	stimuli/foods\grilled_chicken_breast.jpg	1	2	1	grilled_chicken_breast	1	L	8	0	63	0		0	0	111.715235400014	111.815232199966
23078.25	0.0999679999658838	193	hunger	stimuli/foods\cherry.jpg	1	2	1	cherry	1	X	17	0	23	0		0	0	111.865228699986	111.965196699952
23115.75	0.099991700029932	194	hunger	stimuli/non_foods\non-food_inanimate_fern.jpg	1	2	1	non-food_inanimate_fern	0	D	2	0	180	0		0	0	112.015228400007	112.115220100037
23153.25	0.0999800000572577	195	hunger	stimuli/foods\strawberry.jpg	1	2	1	strawberry	1	V	15	0	272	0		0	0	112.165233899956	112.265213900013
23190.75	0.0999996999744326	196	hunger	stimuli/non_foods\non-food_inanimate_nettle.jpg	1	2	1	non-food_inanimate_nettle	0	G	4	0	197	0		0	0	112.315226200037	112.415225900011
23228.25	0.0999621000373736	197	hunger	stimuli/foods\potato_chips.jpg	1	2	1	potato_chips	1	K	7	0	247	0		0	0	112.46525020001	112.565212300047
23265.75	0.0999835000839084	198	hunger	stimuli/non_foods\non-food_inanimate_sun_flower.jpg	1	2	1	non-food_inanimate_sun_flower	0	W	16	0	216	0		0	0	112.615224699955	112.715208200039
23303.25	0.0999873999971896	199	hunger	stimuli/foods\steak.jpg	1	2	1	steak	1	T	14	0	270	0		0	0	112.765220799949	112.865208199946
23340.75	0.0999829999636859	200	hunger	stimuli/foods\rice_cake.jpg	1	2	1	rice_cake	1	H	5	0	258	0		0	0	112.915223799995	113.015206799959
23378.25	0.100004700012505	201	hunger	stimuli/foods\pickles.jpg	1	2	1	pickles	1	N	10	0	242	0		0	0	113.065201799967	113.16520649998
23415.75	0.0999833999667317	202	hunger	stimuli/foods\pasta_carbonara.jpg	1	2	1	pasta_carbonara	1	M	9	0	236	0		0	0	113.215219200007	113.315202599973
23453.25	0.0999815999530256	203	hunger	stimuli/foods\green_olives.jpg	1	2	1	green_olives	1	W	16	0	62	0		0	0	113.365219100029	113.465200699982
23490.75	0.100014599971473	204	hunger	stimuli/foods\risotto_with_zucchini.jpg	1	2	1	risotto_with_zucchini	1	L	8	0	260	0		0	0	113.515214700019	113.61522929999
23528.25	0.0999874999979511	205	hunger	stimuli/non_foods\non-food_animate_swan.jpg	1	2	1	non-food_animate_swan	0	W	16	0	152	0		0	0	113.665212000022	113.76519950002
23565.75	0.099982799962163	206	hunger	stimuli/non_foods\non-food_inanimate_speakers.jpg	1	2	1	non-food_inanimate_speakers	0	M	9	0	212	0		0	0	113.815209000022	113.915191799984
23603.25	0.0999844000907615	207	hunger	stimuli/non_foods\non-food_animate_dragonfly.jpg	1	2	1	non-food_animate_dragonfly	0	H	5	0	108	0		0	0	113.965209899936	114.065194300027
23640.75	0.0999825999606401	208	hunger	stimuli/non_foods\non-food_animate_camel.jpg	1	2	1	non-food_animate_camel	0	M	9	0	97	0		0	0	114.115206400049	114.21518900001
23678.25	0.0999580000061542	209	hunger	stimuli/non_foods\non-food_inanimate_socks.jpg	1	2	1	non-food_inanimate_socks	0	C	1	0	211	0		0	0	114.265247500036	114.365205500042
23715.75	0.0999881000025198	210	hunger	stimuli/foods\mango.jpg	1	2	1	mango	1	T	14	0	80	0		0	0	114.415203499957	114.51519159996
23753.25	0.099979400052689	211	hunger	stimuli/foods\mortadella.jpg	1	2	1	mortadella	1	N	10	0	83	0		0	0	114.565199899953	114.665179300006
23790.75	0.0999971000710502	212	hunger	stimuli/non_foods\non-food_animate_baby_sitting.jpg	1	2	1	non-food_animate_baby_sitting	0	D	2	0	93	0		0	0	114.715195599943	114.815192700014
23828.25	0.0999792999355122	213	hunger	stimuli/non_foods\non-food_inanimate_leaf.jpg	1	2	1	non-food_inanimate_leaf	0	N	10	0	192	0		0	0	114.865200600005	114.96517989994
23865.75	0.0999829999636859	214	hunger	stimuli/non_foods\non-food_animate_ladybug.jpg	1	2	1	non-food_animate_ladybug	0	T	14	0	124	0		0	0	115.015195799991	115.115178799955
23903.25	0.100001499988139	215	hunger	stimuli/non_foods\non-food_animate_squirrel.jpg	1	2	1	non-food_animate_squirrel	0	F	3	0	150	0		0	0	115.165178199997	115.265179699985
23940.75	0.100000999984331	216	hunger	stimuli/foods\gnocchi.jpg	1	2	1	gnocchi	1	V	15	0	58	0		0	0	115.315184799954	115.415185799939
23978.25	0.0999871999956667	217	hunger	stimuli/foods\spinach.jpg	1	2	1	spinach	1	F	3	0	268	0		0	0	115.465180999949	115.565168199944
24015.75	0.0999860999872908	218	hunger	stimuli/non_foods\non-food_animate_clown.jpg	1	2	1	non-food_animate_clown	0	L	8	0	102	0		0	0	115.615179899964	115.715165999951
24053.25	0.0999838999705389	219	hunger	stimuli/foods\almonds.jpg	1	2	1	almonds	1	R	12	0	0	0		0	0	115.765178699978	115.865162599948
24090.75	0.100019100005738	220	hunger	stimuli/foods\waffle.jpg	1	2	1	waffle	1	K	7	0	278	0		0	0	115.915176399983	116.015195499989
24128.25	0.0999151999130845	221	hunger	stimuli/non_foods\non-food_animate_kangaroo.jpg	1	2	1	non-food_animate_kangaroo	0	Z	18	0	122	0		0	0	116.065224400023	116.165139599936
24165.75	0.0999853999819607	222	hunger	stimuli/non_foods\non-food_animate_elephant.jpg	1	2	1	non-food_animate_elephant	0	U	23	1	111	0		0	0	116.215177500038	116.31516290002
24203.25	0.0999851999804378	223	hunger	stimuli/foods\peas.jpg	1	2	1	peas	1	Z	18	0	240	0		0	0	116.365178899956	116.465164099936
24240.75	0.0999848999781534	224	hunger	stimuli/non_foods\non-food_inanimate_tulip.jpg	1	2	1	non-food_inanimate_tulip	0	X	17	0	224	0		0	0	116.515177299967	116.615162199945
24278.25	0.0999862999888137	225	hunger	stimuli/foods\cauliflower.jpg	1	2	1	cauliflower	1	T	14	0	20	0		0	0	116.665174899972	116.765161199961
24315.75	0.0999821999575943	226	hunger	stimuli/non_foods\non-food_inanimate_protractor.jpg	1	2	1	non-food_inanimate_protractor	0	F	3	0	201	1	a	0.593309599906206	1	116.815176300006	116.915158499964
24353.25	0.0999844999751076	227	hunger	stimuli/foods\fennel.jpg	1	2	1	fennel	1	P	11	0	47	0		0	0	116.965170799987	117.065155299962
24390.75	0.0999930000398308	228	hunger	stimuli/non_foods\non-food_animate_student_female.jpg	1	2	1	non-food_animate_student_female	0	J	6	0	151	0		0	0	117.115162199945	117.215155199985
24428.25	0.0999826999614015	229	hunger	stimuli/non_foods\non-food_inanimate_stoplight.jpg	1	2	1	non-food_inanimate_stoplight	0	X	17	0	214	0		0	0	117.265169100021	117.365151799982
24465.75	0.0999878000002354	230	hunger	stimuli/foods\swordfish.jpg	1	2	1	swordfish	1	M	9	0	273	0		0	0	117.415165800019	117.515153600019
24503.25	0.0999693999765441	231	hunger	stimuli/non_foods\non-food_animate_killer_whale.jpg	1	2	1	non-food_animate_killer_whale	0	G	4	0	123	0		0	0	117.565166700049	117.665136100026
24540.75	0.100053300033323	232	hunger	stimuli/non_foods\non-food_animate_peacock.jpg	1	2	1	non-food_animate_peacock	0	Z	18	0	134	0		0	0	117.715135799954	117.815189099987
24578.25	0.0999405999900773	233	hunger	stimuli/foods\broccoli.jpg	1	2	1	broccoli	1	L	8	0	13	0		0	0	117.865205600043	117.965146200033
24615.75	0.099976500030607	234	hunger	stimuli/non_foods\non-food_animate_polar_bear.jpg	1	2	1	non-food_animate_polar_bear	0	D	2	0	137	0		0	0	118.015160299954	118.115136799985
24653.25	0.0999824000755325	235	hunger	stimuli/non_foods\non-food_inanimate_bucket.jpg	1	2	1	non-food_inanimate_bucket	0	K	7	0	165	0		0	0	118.165155499941	118.265137900016
24690.75	0.099960400024429	236	hunger	stimuli/non_foods\non-food_animate_gorilla.jpg	1	2	1	non-food_animate_gorilla	0	R	12	0	116	0		0	0	118.315155399963	118.415115799988
24728.25	0.0999838999705389	237	hunger	stimuli/non_foods\non-food_animate_bat.jpg	1	2	1	non-food_animate_bat	0	M	9	0	94	0		0	0	118.465146000031	118.565129900002
24765.75	0.0999843999743462	238	hunger	stimuli/non_foods\non-food_animate_tortoise.jpg	1	2	1	non-food_animate_tortoise	0	X	17	0	153	0		0	0	118.615145200049	118.715129600023
24803.25	0.0999517999589443	239	hunger	stimuli/foods\fried_calamari.jpg	1	2	1	fried_calamari	1	S	13	0	50	0		0	0	118.765155300032	118.865107099991
24840.75	0.0999734000070021	240	hunger	stimuli/non_foods\non-food_animate_woman.jpg	1	2	1	non-food_animate_woman	0	J	6	0	154	0		0	0	118.915158999967	119.015132399974
24878.25	0.100003400002606	241	hunger	stimuli/non_foods\non-food_inanimate_grass.jpg	1	2	1	non-food_inanimate_grass	0	N	10	0	184	0		0	0	119.065126899979	119.165130299982
24915.75	0.0999862999888137	242	hunger	stimuli/non_foods\non-food_animate_rhino.jpg	1	2	1	non-food_animate_rhino	0	C	1	0	141	0		0	0	119.215143800015	119.315130100003
24953.25	0.0999851999804378	243	hunger	stimuli/foods\coconut.jpg	1	2	1	coconut	1	T	14	0	33	0		0	0	119.365142200026	119.465127400006
24990.75	0.100018900004216	244	hunger	stimuli/non_foods\non-food_animate_monkey.jpg	1	2	1	non-food_animate_monkey	0	X	17	0	130	0		0	0	119.515153600019	119.615172500024
25028.25	0.0999840000877157	245	hunger	stimuli/non_foods\non-food_inanimate_bowling_ball.jpg	1	2	1	non-food_inanimate_bowling_ball	0	J	6	0	162	0		0	0	119.665139899938	119.765123900026
25065.75	0.0999866999918595	246	hunger	stimuli/foods\salami.jpg	1	2	1	salami	1	S	13	0	263	0		0	0	119.815135700046	119.915122400038
25103.25	0.0999847000930458	247	hunger	stimuli/foods\oven-roasted_tomatoes.jpg	1	2	1	oven-roasted_tomatoes	1	B	0	0	232	0		0	0	119.965134399943	120.065119100036
25140.75	0.0999841000884771	248	hunger	stimuli/non_foods\non-food_inanimate_bicycle.jpg	1	2	1	non-food_inanimate_bicycle	0	C	1	0	161	0		0	0	120.115132499952	120.21511660004
25178.25	0.0999845999758691	249	hunger	stimuli/non_foods\non-food_inanimate_buds.jpg	1	2	1	non-food_inanimate_buds	0	O	22	1	166	0		0	0	120.265134899993	120.365119499969
25215.75	0.0999844999751076	250	hunger	stimuli/non_foods\non-food_animate_llama.jpg	1	2	1	non-food_animate_llama	0	P	11	0	127	0		0	0	120.415128499968	120.515112999943
25253.25	0.0999858999857679	251	hunger	stimuli/non_foods\non-food_animate_parrot.jpg	1	2	1	non-food_animate_parrot	0	L	8	0	133	0		0	0	120.565128199989	120.665114099975
25290.75	0.0999793999362737	252	hunger	stimuli/foods\grapefruits.jpg	1	2	1	grapefruits	1	X	17	0	59	1	a	0.541814900003374	1	120.715128500015	120.815107899951
25328.25	0.0999830999644473	253	hunger	stimuli/foods\figs.jpg	1	2	1	figs	1	C	1	0	48	0		0	0	120.865123800002	120.965106899966
25365.75	0.099982799962163	254	hunger	stimuli/foods\pork_and_rice.jpg	1	2	1	pork_and_rice	1	F	3	0	245	0		0	0	121.015126400045	121.115109200007
25403.25	0.0999853999819607	255	hunger	stimuli/non_foods\non-food_inanimate_canoe.jpg	1	2	1	non-food_inanimate_canoe	0	X	17	0	170	0		0	0	121.165119700017	121.265105099999
25440.75	0.100031599984504	256	hunger	stimuli/foods\rice.jpg	1	2	1	rice	1	B	0	0	257	0		0	0	121.315124699962	121.415156299947
25478.25	0.0999455000273883	257	hunger	stimuli/non_foods\non-food_inanimate_broom.jpg	1	2	1	non-food_inanimate_broom	0	T	14	0	164	0		0	0	121.465152999968	121.565098499996
25515.75	0.0999866999918595	258	hunger	stimuli/foods\pea_pod.jpg	1	2	1	pea_pod	1	R	12	0	237	0		0	0	121.615118599962	121.715105299954
25553.25	0.0999832000816241	259	hunger	stimuli/non_foods\non-food_animate_yellow_bug.jpg	1	2	1	non-food_animate_yellow_bug	0	B	0	0	155	0		0	0	121.765116099967	121.865099300048
25590.75	0.0999804000603035	260	hunger	stimuli/non_foods\non-food_inanimate_desk.jpg	1	2	1	non-food_inanimate_desk	0	D	2	0	178	0		0	0	121.915114099975	122.015094500035
25628.25	0.0999819000717252	261	hunger	stimuli/foods\mussels.jpg	1	2	1	mussels	1	C	1	0	86	0		0	0	122.065110099968	122.165092000039
25665.75	0.0999824999598786	262	hunger	stimuli/foods\onion.jpg	1	2	1	onion	1	F	3	0	229	0		0	0	122.215108899982	122.315091399942
25703.25	0.0999870999949053	263	hunger	stimuli/foods\savory_pie.jpg	1	2	1	savory_pie	1	G	4	0	265	0		0	0	122.365104599972	122.465091699967
25740.75	0.099981699953787	264	hunger	stimuli/foods\donut.jpg	1	2	1	donut	1	P	11	0	44	0		0	0	122.515105500002	122.615087199956
25778.25	0.0999822999583557	265	hunger	stimuli/foods\cupcake.jpg	1	2	1	cupcake	1	A	19	1	42	0		0	0	122.665103900013	122.765086199972
25815.75	0.0999843999743462	266	hunger	stimuli/non_foods\non-food_inanimate_orchid.jpg	1	2	1	non-food_inanimate_orchid	0	L	8	0	198	0		0	0	122.815100100008	122.915084499982
25853.25	0.0999936999287456	267	hunger	stimuli/foods\stew_with_potatoes_and_carrots.jpg	1	2	1	stew_with_potatoes_and_carrots	1	W	16	0	271	0		0	0	122.965100400033	123.065094099962
25890.75	0.100010000052862	268	hunger	stimuli/foods\chocolate_chip_cookies.jpg	1	2	1	chocolate_chip_cookies	1	Z	18	0	27	0		0	0	123.115076499991	123.215086500044
25928.25	0.0999740000115708	269	hunger	stimuli/non_foods\non-food_inanimate_padlock.jpg	1	2	1	non-food_inanimate_padlock	0	X	17	0	199	0		0	0	123.265096799936	123.365070799948
25965.75	0.0999837999697775	270	hunger	stimuli/foods\cream_donuts.jpg	1	2	1	cream_donuts	1	D	2	0	39	0		0	0	123.415085599991	123.51506939996
26003.25	0.0999825999606401	271	hunger	stimuli/foods\pineapple.jpg	1	2	1	pineapple	1	M	9	0	243	0		0	0	123.565085700015	123.665068299975
26040.75	0.09999399993103	272	hunger	stimuli/foods\spaghetti_with_meat_sauce.jpg	1	2	1	spaghetti_with_meat_sauce	1	T	14	0	267	0		0	0	123.715082700015	123.815076699946
26078.25	0.0999859999865294	273	hunger	stimuli/non_foods\non-food_animate_skunk.jpg	1	2	1	non-food_animate_skunk	0	R	12	0	147	0		0	0	123.865078800009	123.965064799995
26115.75	0.0999766000313684	274	hunger	stimuli/foods\green_beans.jpg	1	2	1	green_beans	1	F	3	0	61	0		0	0	124.015085299965	124.115061899996
26153.25	0.0999872999964282	275	hunger	stimuli/non_foods\non-food_animate_snail.jpg	1	2	1	non-food_animate_snail	0	Z	18	0	149	0		0	0	124.165076100035	124.265063400031
26190.75	0.0999748000176623	276	hunger	stimuli/non_foods\non-food_animate_owl.jpg	1	2	1	non-food_animate_owl	0	X	17	0	132	0		0	0	124.315086300019	124.415061100037
26228.25	0.0999862999888137	277	hunger	stimuli/non_foods\non-food_inanimate_nailpolish.jpg	1	2	1	non-food_inanimate_nailpolish	0	H	5	0	195	0		0	0	124.465071400045	124.565057700034
26265.75	0.0999816000694409	278	hunger	stimuli/foods\minestrone_soup.jpg	1	2	1	minestrone_soup	1	G	4	0	82	0		0	0	124.615072999964	124.715054600034
26303.25	0.0999988000839949	279	hunger	stimuli/foods\nectarine.jpg	1	2	1	nectarine	1	J	6	0	87	0		0	0	124.765069799963	124.865068600047
26870	0.0999822000740096	280	hunger	stimuli/non_foods\non-food_animate_elephant.jpg	1	3	1	non-food_animate_elephant	0	V	15	0	111	0		0	0	127.031718499959	127.131700700033
26907.5	0.0999901000177488	281	hunger	stimuli/foods\grilled_chicken_breast.jpg	1	3	1	grilled_chicken_breast	1	N	10	0	63	0		0	0	127.181715999963	127.281706099981
26945	0.0999581000069156	282	hunger	stimuli/non_foods\non-food_animate_squirrel.jpg	1	3	1	non-food_animate_squirrel	0	M	9	0	150	0		0	0	127.331741299946	127.431699399953
26982.5	0.099969300092198	283	hunger	stimuli/foods\frankfurter_and_provolone_salad.jpg	1	3	1	frankfurter_and_provolone_salad	1	D	2	0	49	0		0	0	127.481724099955	127.581693400047
27020	0.0999843999743462	284	hunger	stimuli/foods\rice.jpg	1	3	1	rice	1	S	13	0	257	0		0	0	127.63170779997	127.731692199945
27057.5	0.0999874999979511	285	hunger	stimuli/foods\avocado.jpg	1	3	1	avocado	1	K	7	0	5	0		0	0	127.781703799963	127.881691299961
27095	0.0999839999713004	286	hunger	stimuli/non_foods\non-food_inanimate_bucket.jpg	1	3	1	non-food_inanimate_bucket	0	R	12	0	165	0		0	0	127.931704599992	128.031688599964
27132.5	0.0999833999667317	287	hunger	stimuli/foods\green_beans.jpg	1	3	1	green_beans	1	N	10	0	61	0		0	0	128.081703700009	128.181687099976
27170	0.0999823999591172	288	hunger	stimuli/foods\hotdog.jpg	1	3	1	hotdog	1	D	2	0	67	0		0	0	128.231702000019	128.331684399978
27207.5	0.100015999982134	289	hunger	stimuli/foods\pomegranate.jpg	1	3	1	pomegranate	1	L	8	0	244	0		0	0	128.381697000004	128.481712999986
27245	0.0999853999819607	290	hunger	stimuli/non_foods\non-food_inanimate_pine_cone.jpg	1	3	1	non-food_inanimate_pine_cone	0	F	3	0	200	0		0	0	128.531698900042	128.631684300024
27282.5	0.0999818999553099	291	hunger	stimuli/foods\cooked_ham.jpg	1	3	1	cooked_ham	1	X	17	0	35	0		0	0	128.681696700049	128.781678600004
27320	0.0999850000953302	292	hunger	stimuli/foods\lamb_chops.jpg	1	3	1	lamb_chops	1	W	16	0	70	0		0	0	128.831694299937	128.931679300033
27357.5	0.0999928000383079	293	hunger	stimuli/foods\mussels.jpg	1	3	1	mussels	1	P	11	0	86	0		0	0	128.981692499947	129.081685299985
27395	0.099975400022231	294	hunger	stimuli/non_foods\non-food_inanimate_toy_airplane.jpg	1	3	1	non-food_inanimate_toy_airplane	0	X	17	0	222	0		0	0	129.131698900019	129.231674300041
27432.5	0.0999857999850065	295	hunger	stimuli/non_foods\non-food_inanimate_broom.jpg	1	3	1	non-food_inanimate_broom	0	V	15	0	164	0		0	0	129.281687499955	129.38167329994
27470	0.0999830000801012	296	hunger	stimuli/non_foods\non-food_animate_mouse.jpg	1	3	1	non-food_animate_mouse	0	B	0	0	131	0		0	0	129.431686499971	129.531669500051
27507.5	0.0999817999545485	297	hunger	stimuli/non_foods\non-food_animate_gorilla.jpg	1	3	1	non-food_animate_gorilla	0	W	16	0	116	0		0	0	129.581685499987	129.681667299941
27545	0.0999878000002354	298	hunger	stimuli/non_foods\non-food_animate_fox.jpg	1	3	1	non-food_animate_fox	0	K	7	0	112	0		0	0	129.731680499972	129.831668299972
27582.5	0.0999830999644473	299	hunger	stimuli/foods\celery.jpg	1	3	1	celery	1	L	8	0	21	0		0	0	129.881680599996	129.98166369996
27620	0.0999853999819607	300	hunger	stimuli/foods\red_cabbage.jpg	1	3	1	red_cabbage	1	T	14	0	256	0		0	0	130.031677499996	130.131662899978
27657.5	0.0999883000040427	301	hunger	stimuli/foods\spinach.jpg	1	3	1	spinach	1	P	11	0	268	0		0	0	130.18167770002	130.281666000024
27695	0.0999845999758691	302	hunger	stimuli/foods\chilli.jpg	1	3	1	chilli	1	K	7	0	25	0		0	0	130.331678700051	130.431663300027
27732.5	0.0999896000139415	303	hunger	stimuli/non_foods\non-food_animate_killer_whale.jpg	1	3	1	non-food_animate_killer_whale	0	S	13	0	123	0		0	0	130.48167290003	130.581662500044
27770	0.0999859999865294	304	hunger	stimuli/non_foods\non-food_inanimate_buds.jpg	1	3	1	non-food_inanimate_buds	0	X	17	0	166	0		0	0	130.631671400042	130.731657400029
27807.5	0.0999936000443995	305	hunger	stimuli/foods\pepperoni_pizza.jpg	1	3	1	pepperoni_pizza	1	J	6	0	241	0		0	0	130.781670799945	130.881664399989
27845	0.099976799916476	306	hunger	stimuli/non_foods\non-food_inanimate_jeans.jpg	1	3	1	non-food_inanimate_jeans	0	X	17	0	191	0		0	0	130.931679800036	131.031656599953
27882.5	0.0999829999636859	307	hunger	stimuli/foods\potatoes.jpg	1	3	1	potatoes	1	R	12	0	248	0		0	0	131.081669699983	131.181652699946
27920	0.0999801000580192	308	hunger	stimuli/non_foods\non-food_animate_parrot.jpg	1	3	1	non-food_animate_parrot	0	V	15	0	133	0		0	0	131.231663299957	131.331643400015
27957.5	0.0999839999713004	309	hunger	stimuli/foods\lasagna.jpg	1	3	1	lasagna	1	C	1	0	71	0		0	0	131.38166449999	131.481648499961
27995	0.0999839999713004	310	hunger	stimuli/non_foods\non-food_animate_dolphin.jpg	1	3	1	non-food_animate_dolphin	0	Z	18	0	106	0		0	0	131.531661099987	131.631645099958
28032.5	0.0999728000024334	311	hunger	stimuli/foods\chocolate_chip_cookies.jpg	1	3	1	chocolate_chip_cookies	1	V	15	0	27	0		0	0	131.681657399982	131.781630199985
28070	0.0999849999789149	312	hunger	stimuli/non_foods\non-food_animate_iguana.jpg	1	3	1	non-food_animate_iguana	0	T	14	0	121	0		0	0	131.831659100018	131.931644099997
28107.5	0.100011099944822	313	hunger	stimuli/non_foods\non-food_inanimate_waterlily.jpg	1	3	1	non-food_inanimate_waterlily	0	I	21	1	226	0		0	0	131.981629500049	132.081640599994
28145	0.0999742000130937	314	hunger	stimuli/non_foods\non-food_animate_baby_crawling.jpg	1	3	1	non-food_animate_baby_crawling	0	M	9	0	92	0		0	0	132.131664299988	132.231638500001
28182.5	0.0999862999888137	315	hunger	stimuli/non_foods\non-food_animate_frog.jpg	1	3	1	non-food_animate_frog	0	F	3	0	113	0		0	0	132.281654000049	132.381640300038
28220	0.0999858999857679	316	hunger	stimuli/non_foods\non-food_inanimate_speakers.jpg	1	3	1	non-food_inanimate_speakers	0	X	17	0	212	0		0	0	132.431650600047	132.531636500033
28257.5	0.100002499995753	317	hunger	stimuli/foods\oyster.jpg	1	3	1	oyster	1	M	9	0	233	0		0	0	132.581650699954	132.68165319995
28295	0.0999402001034468	318	hunger	stimuli/non_foods\non-food_inanimate_guitar.jpg	1	3	1	non-food_inanimate_guitar	0	S	13	0	185	0		0	0	132.731691099936	132.83163130004
28332.5	0.0999956999439746	319	hunger	stimuli/non_foods\non-food_inanimate_tulip.jpg	1	3	1	non-food_inanimate_tulip	0	T	14	0	224	0		0	0	132.881625400041	132.981621099985
28370	0.0999855999834836	320	hunger	stimuli/non_foods\non-food_inanimate_chair.jpg	1	3	1	non-food_inanimate_chair	0	W	16	0	172	0		0	0	133.031636400032	133.131622000015
28407.5	0.0999858999857679	321	hunger	stimuli/foods\grapefruits.jpg	1	3	1	grapefruits	1	V	15	0	59	0		0	0	133.181634300039	133.281620200025
28445	0.0999858999857679	322	hunger	stimuli/non_foods\non-food_animate_hummingbird.jpg	1	3	1	non-food_animate_hummingbird	0	T	14	0	120	0		0	0	133.331630800036	133.431616700022
28482.5	0.0999856000998989	323	hunger	stimuli/non_foods\non-food_animate_ladybug.jpg	1	3	1	non-food_animate_ladybug	0	S	13	0	124	0		0	0	133.481629899936	133.581615500036
28520	0.0999880000017583	324	hunger	stimuli/foods\toasted_bread_with_tomatoes.jpg	1	3	1	toasted_bread_with_tomatoes	1	B	0	0	275	0		0	0	133.631624900037	133.731612900039
28557.5	0.100005200016312	325	hunger	stimuli/foods\grapes.jpg	1	3	1	grapes	1	L	8	0	60	0		0	0	133.781615099986	133.881620300002
28595	0.0999818999553099	326	hunger	stimuli/foods\cucumber.jpg	1	3	1	cucumber	1	M	9	0	41	0		0	0	133.931632500025	134.031614399981
28632.5	0.0999851999804378	327	hunger	stimuli/foods\peas.jpg	1	3	1	peas	1	H	5	0	240	0		0	0	134.081630300032	134.181615500012
28670	0.0999870999949053	328	hunger	stimuli/non_foods\non-food_inanimate_toilet.jpg	1	3	1	non-food_inanimate_toilet	0	L	8	0	220	0		0	0	134.231627200032	134.331614300027
28707.5	0.100022500031628	329	hunger	stimuli/foods\potato_and_green_bean_salad.jpg	1	3	1	potato_and_green_bean_salad	1	T	14	0	246	0		0	0	134.38162869995	134.481651199982
28745	0.0999544000951573	330	hunger	stimuli/non_foods\non-food_inanimate_bush.jpg	1	3	1	non-food_inanimate_bush	0	F	3	0	167	0		0	0	134.531656899955	134.63161130005
28782.5	0.0999891000101343	331	hunger	stimuli/non_foods\non-food_inanimate_horn.jpg	1	3	1	non-food_inanimate_horn	0	T	14	0	190	0		0	0	134.68161910004	134.78160820005
28820	0.0999879000009969	332	hunger	stimuli/foods\papaya.jpg	1	3	1	papaya	1	X	17	0	235	0		0	0	134.83161959995	134.931607499951
28857.5	0.0999818999553099	333	hunger	stimuli/foods\pumpkin.jpg	1	3	1	pumpkin	1	T	14	0	250	0		0	0	134.981623	135.081604899955
28895	0.0999835999682546	334	hunger	stimuli/foods\fried_zucchini.jpg	1	3	1	fried_zucchini	1	N	10	0	51	0		0	0	135.131616199971	135.231599799939
28932.5	0.0999814999522641	335	hunger	stimuli/non_foods\non-food_inanimate_desk.jpg	1	3	1	non-food_inanimate_desk	0	R	12	0	178	0		0	0	135.28161820001	135.381599699962
28970	0.0999536999734119	336	hunger	stimuli/non_foods\non-food_animate_butterfly.jpg	1	3	1	non-food_animate_butterfly	0	A	19	1	96	0		0	0	135.431614500005	135.531568199978
29007.5	0.0999783000443131	337	hunger	stimuli/non_foods\non-food_inanimate_stapler.jpg	1	3	1	non-food_inanimate_stapler	0	C	1	0	213	0		0	0	135.581620499957	135.681598800002
29045	0.0999809999484569	338	hunger	stimuli/non_foods\non-food_animate_raccoon.jpg	1	3	1	non-food_animate_raccoon	0	N	10	0	139	1	a	0.409427599981427	1	135.73161430005	135.831595299998
29082.5	0.0999878000002354	339	hunger	stimuli/foods\raisins.jpg	1	3	1	raisins	1	F	3	0	252	0		0	0	135.881607500021	135.981595300022
29120	0.0999825999606401	340	hunger	stimuli/foods\pickles.jpg	1	3	1	pickles	1	S	13	0	242	0		0	0	136.031607700046	136.131590300007
29157.5	0.0999830000801012	341	hunger	stimuli/foods\pineapple.jpg	1	3	1	pineapple	1	D	2	0	243	0		0	0	136.181622199947	136.281605200027
29195	0.0999531000852585	342	hunger	stimuli/foods\honey.jpg	1	3	1	honey	1	N	10	0	66	0		0	0	136.331635499955	136.43158860004
29232.5	0.0999870999949053	343	hunger	stimuli/non_foods\non-food_animate_baby_sitting.jpg	1	3	1	non-food_animate_baby_sitting	0	K	7	0	93	0		0	0	136.481600399944	136.581587499939
29270	0.099985699984245	344	hunger	stimuli/foods\pea_pod.jpg	1	3	1	pea_pod	1	W	16	0	237	0		0	0	136.631600599969	136.731586299953
29307.5	0.0999843999743462	345	hunger	stimuli/foods\cinnamon.jpg	1	3	1	cinnamon	1	J	6	0	30	0		0	0	136.78159899998	136.881583399954
29345	0.0999840999720618	346	hunger	stimuli/non_foods\non-food_inanimate_chandelier.jpg	1	3	1	non-food_inanimate_chandelier	0	R	12	0	173	0		0	0	136.93159599998	137.031580099952
29382.5	0.0999891000101343	347	hunger	stimuli/foods\radish.jpg	1	3	1	radish	1	H	5	0	251	0		0	0	137.081592799979	137.181581899989
29420	0.0999815999530256	348	hunger	stimuli/non_foods\non-food_animate_cat.jpg	1	3	1	non-food_animate_cat	0	J	6	0	98	0		0	0	137.231593500008	137.331575099961
29457.5	0.0999735000077635	349	hunger	stimuli/foods\spaghetti_with_meat_sauce.jpg	1	3	1	spaghetti_with_meat_sauce	1	B	0	0	267	0		0	0	137.381602699985	137.481576199993
29495	0.0999831999652088	350	hunger	stimuli/foods\cherry.jpg	1	3	1	cherry	1	M	9	0	23	0		0	0	137.531589500024	137.631572699989
29532.5	0.0999956000596285	351	hunger	stimuli/foods\spring_onions.jpg	1	3	1	spring_onions	1	B	0	0	269	0		0	0	137.681562999962	137.781558600022
29570	0.0999855999834836	352	hunger	stimuli/foods\fennel.jpg	1	3	1	fennel	1	K	7	0	47	0		0	0	137.831577299978	137.931562899961
29607.5	0.0999803999438882	353	hunger	stimuli/non_foods\non-food_animate_woman.jpg	1	3	1	non-food_animate_woman	0	V	15	0	154	0		0	0	137.981591699994	138.081572099938
29645	0.100011100061238	354	hunger	stimuli/foods\beetroots.jpg	1	3	1	beetroots	1	N	10	0	10	0		0	0	138.131557299988	138.23156840005
29682.5	0.099986599991098	355	hunger	stimuli/foods\bagel.jpg	1	3	1	bagel	1	P	11	0	6	0		0	0	138.281580599956	138.381567199947
29720	0.0999824999598786	356	hunger	stimuli/non_foods\non-food_inanimate_cap.jpg	1	3	1	non-food_inanimate_cap	0	L	8	0	171	0		0	0	138.43158069998	138.53156319994
29757.5	0.099994600052014	357	hunger	stimuli/foods\chocolate_bar.jpg	1	3	1	chocolate_bar	1	S	13	0	26	0		0	0	138.581573799951	138.681568400003
29795	0.0999809000641108	358	hunger	stimuli/non_foods\non-food_inanimate_couch.jpg	1	3	1	non-food_inanimate_couch	0	F	3	0	176	0		0	0	138.731575399986	138.831556300051
29832.5	0.0999850999796763	359	hunger	stimuli/non_foods\non-food_inanimate_grass.jpg	1	3	1	non-food_inanimate_grass	0	B	0	0	184	0		0	0	138.88157279999	138.98155789997
29870	0.0999824999598786	360	hunger	stimuli/non_foods\non-food_inanimate_sun_flower.jpg	1	3	1	non-food_inanimate_sun_flower	0	P	11	0	216	0		0	0	139.031572700012	139.131555199972
29907.5	0.0999634000472724	361	hunger	stimuli/non_foods\non-food_inanimate_nettle.jpg	1	3	1	non-food_inanimate_nettle	0	L	8	0	197	0		0	0	139.18159199995	139.281555399997
29945	0.0999851999804378	362	hunger	stimuli/foods\fruit_salad.jpg	1	3	1	fruit_salad	1	V	15	0	55	0		0	0	139.331568600028	139.431553800008
29982.5	0.0999864999903366	363	hunger	stimuli/non_foods\non-food_animate_giraffe.jpg	1	3	1	non-food_animate_giraffe	0	U	23	1	115	0		0	0	139.481564900023	139.581551400013
30020	0.0999907000223175	364	hunger	stimuli/foods\cinnamon_sroll.jpg	1	3	1	cinnamon_sroll	1	P	11	0	31	0		0	0	139.631561700022	139.731552400044
30057.5	0.100005100015551	365	hunger	stimuli/non_foods\non-food_inanimate_alarm_clock.jpg	1	3	1	non-food_inanimate_alarm_clock	0	L	8	0	158	0		0	0	139.781557300012	139.881562400027
30095	0.0999807000625879	366	hunger	stimuli/foods\cupcake.jpg	1	3	1	cupcake	1	T	14	0	42	0		0	0	139.931561599951	140.031542300014
30132.5	0.0999881000025198	367	hunger	stimuli/foods\salami.jpg	1	3	1	salami	1	C	1	0	263	0		0	0	140.081555300043	140.181543400045
30170	0.0999869999941438	368	hunger	stimuli/non_foods\non-food_inanimate_gloves.jpg	1	3	1	non-food_inanimate_gloves	0	S	13	0	183	0		0	0	140.23155529995	140.331542299944
30207.5	0.0999889000086114	369	hunger	stimuli/foods\swordfish.jpg	1	3	1	swordfish	1	P	11	0	273	0		0	0	140.38155229995	140.481541199959
30245	0.0999864999903366	370	hunger	stimuli/non_foods\non-food_inanimate_ring.jpg	1	3	1	non-food_inanimate_ring	0	V	15	0	203	0		0	0	140.531549699954	140.631536199944
30282.5	0.0999834999674931	371	hunger	stimuli/non_foods\non-food_animate_llama.jpg	1	3	1	non-food_animate_llama	0	C	1	0	127	0		0	0	140.681552900001	140.781536399969
30320	0.10001990001183	372	hunger	stimuli/non_foods\non-food_animate_camel.jpg	1	3	1	non-food_animate_camel	0	J	6	0	97	0		0	0	140.831547599984	140.931567499996
30357.5	0.0999757000245154	373	hunger	stimuli/non_foods\non-food_inanimate_rack.jpg	1	3	1	non-food_inanimate_rack	0	N	10	0	202	0		0	0	140.98156059999	141.081536300015
30395	0.0999692999757826	374	hunger	stimuli/foods\fruit_flan.jpg	1	3	1	fruit_flan	1	L	8	0	53	0		0	0	141.131546400022	141.231515699998
30432.5	0.0999828999629244	375	hunger	stimuli/foods\cooked_prawn.jpg	1	3	1	cooked_prawn	1	S	13	0	36	0		0	0	141.281537499977	141.38152039994
30470	0.100002099992707	376	hunger	stimuli/foods\hamburger.jpg	1	3	1	hamburger	1	B	0	0	64	0		0	0	141.431537500001	141.531539599993
30507.5	0.0999689999734983	377	hunger	stimuli/foods\wafer.jpg	1	3	1	wafer	1	N	10	0	277	0		0	0	141.581550300005	141.681519299978
30545	0.0999867999926209	378	hunger	stimuli/foods\donut.jpg	1	3	1	donut	1	M	9	0	44	0		0	0	141.73152999999	141.831516799983
30582.5	0.0999868999933824	379	hunger	stimuli/foods\salmon.jpg	1	3	1	salmon	1	B	0	0	264	0		0	0	141.88152960001	141.981516500004
30620	0.0999878000002354	380	hunger	stimuli/non_foods\non-food_animate_Asian_man.jpg	1	3	1	non-food_animate_Asian_man	0	Z	18	0	88	0		0	0	142.031522299978	142.131510099978
30657.5	0.0999863999895751	381	hunger	stimuli/non_foods\non-food_inanimate_nest.jpg	1	3	1	non-food_inanimate_nest	0	T	14	0	196	0		0	0	142.181525400025	142.281511800014
30695	0.0999846999766305	382	hunger	stimuli/foods\cabbage.jpg	1	3	1	cabbage	1	X	17	0	16	0		0	0	142.331525000045	142.431509700022
30732.5	0.0999861999880522	383	hunger	stimuli/non_foods\non-food_inanimate_scissors.jpg	1	3	1	non-food_inanimate_scissors	0	D	2	0	205	0		0	0	142.481522300048	142.581508500036
30770	0.0999954999424517	384	hunger	stimuli/non_foods\non-food_inanimate_drum_set.jpg	1	3	1	non-food_inanimate_drum_set	0	S	13	0	179	0		0	0	142.6315283	142.731523799943
30807.5	0.0999668000731617	385	hunger	stimuli/foods\steak.jpg	1	3	1	steak	1	N	10	0	270	0		0	0	142.781535399961	142.881502200034
30845	0.100013500079513	386	hunger	stimuli/non_foods\non-food_animate_ant.jpg	1	3	1	non-food_animate_ant	0	S	13	0	91	0		0	0	142.931499399943	143.031512900023
30882.5	0.0999848999781534	387	hunger	stimuli/foods\ginger_root.jpg	1	3	1	ginger_root	1	L	8	0	57	0		0	0	143.081522500026	143.181507400004
30920	0.100005100015551	388	hunger	stimuli/non_foods\non-food_inanimate_construction_helment.jpg	1	3	1	non-food_inanimate_construction_helment	0	R	12	0	175	0		0	0	143.231518200017	143.331523300032
30957.5	0.0999676000792533	389	hunger	stimuli/foods\fried_calamari.jpg	1	3	1	fried_calamari	1	F	3	0	50	0		0	0	143.381536799949	143.481504400028
30995	0.0999874999979511	390	hunger	stimuli/non_foods\non-food_animate_penguin.jpg	1	3	1	non-food_animate_penguin	0	C	1	0	135	0		0	0	143.531515300041	143.631502800039
31032.5	0.0999880000017583	391	hunger	stimuli/foods\meatballs.jpg	1	3	1	meatballs	1	S	13	0	81	0		0	0	143.681514099939	143.781502099941
31070	0.0999719999963418	392	hunger	stimuli/non_foods\non-food_animate_bee.jpg	1	3	1	non-food_animate_bee	0	V	15	0	95	0		0	0	143.831515999977	143.931487999973
31107.5	0.099996899953112	393	hunger	stimuli/foods\oregano.jpg	1	3	1	oregano	1	Z	18	0	231	0		0	0	143.981501700007	144.08149859996
31145	0.0999895000131801	394	hunger	stimuli/non_foods\non-food_inanimate_stoplight.jpg	1	3	1	non-food_inanimate_stoplight	0	V	15	0	214	0		0	0	144.131506699952	144.231496199965
31182.5	0.0999843999743462	395	hunger	stimuli/foods\figs.jpg	1	3	1	figs	1	J	6	0	48	0		0	0	144.281509599998	144.381493999972
31220	0.0999869999941438	396	hunger	stimuli/foods\nectarine.jpg	1	3	1	nectarine	1	H	5	0	87	0		0	0	144.431504399981	144.531491399975
31257.5	0.0999854999827221	397	hunger	stimuli/foods\raw_ham.jpg	1	3	1	raw_ham	1	J	6	0	253	0		0	0	144.581495300052	144.681480800034
31295	0.0999867999926209	398	hunger	stimuli/foods\rice_cake.jpg	1	3	1	rice_cake	1	G	4	0	258	0		0	0	144.731493899948	144.831480699941
31332.5	0.0999828000785783	399	hunger	stimuli/non_foods\non-food_inanimate_leaf.jpg	1	3	1	non-food_inanimate_leaf	0	W	16	0	192	0		0	0	144.881493899971	144.98147670005
31370	0.0999986999668181	400	hunger	stimuli/foods\cracker.jpg	1	3	1	cracker	1	G	4	0	38	0		0	0	145.031491799979	145.131490499945
31407.5	0.0999607000267133	401	hunger	stimuli/non_foods\non-food_inanimate_bed.jpg	1	3	1	non-food_inanimate_bed	0	P	11	0	160	0		0	0	145.181514499942	145.281475199969
31445	0.0999783999286592	402	hunger	stimuli/non_foods\non-food_inanimate_orchid.jpg	1	3	1	non-food_inanimate_orchid	0	V	15	0	198	0		0	0	145.331491400022	145.431469799951
31482.5	0.0999839999713004	403	hunger	stimuli/non_foods\non-food_animate_cheetah.jpg	1	3	1	non-food_animate_cheetah	0	K	7	0	100	0		0	0	145.481485600001	145.581469599972
31520	0.0999821999575943	404	hunger	stimuli/non_foods\non-food_inanimate_cupboard.jpg	1	3	1	non-food_inanimate_cupboard	0	R	12	0	177	0		0	0	145.631485400023	145.731467599981
31557.5	0.0999870999949053	405	hunger	stimuli/foods\chocolate_pudding.jpg	1	3	1	chocolate_pudding	1	F	3	0	29	0		0	0	145.781480300007	145.881467400002
31595	0.099984799977392	406	hunger	stimuli/foods\coffee_beans.jpg	1	3	1	coffee_beans	1	D	2	0	34	0		0	0	145.93147890002	146.031463699997
31632.5	0.0999838999705389	407	hunger	stimuli/non_foods\non-food_inanimate_teddy_bear.jpg	1	3	1	non-food_inanimate_teddy_bear	0	Z	18	0	218	0		0	0	146.081477500033	146.181461400003
31670	0.0999825000762939	408	hunger	stimuli/non_foods\non-food_inanimate_padlock.jpg	1	3	1	non-food_inanimate_padlock	0	C	1	0	199	0		0	0	146.231478099944	146.33146060002
31707.5	0.0999858999857679	409	hunger	stimuli/foods\tomato.jpg	1	3	1	tomato	1	V	15	0	276	0		0	0	146.381476099952	146.481461999938
31745	0.100007000030018	410	hunger	stimuli/non_foods\non-food_animate_caterpillar.jpg	1	3	1	non-food_animate_caterpillar	0	J	6	0	99	0		0	0	146.531460299972	146.631467300002
31782.5	0.0999891000101343	411	hunger	stimuli/non_foods\non-food_animate_pigeon.jpg	1	3	1	non-food_animate_pigeon	0	M	9	0	136	0		0	0	146.681476600002	146.781465700013
31820	0.1000368000241	412	hunger	stimuli/foods\lemon.jpg	1	3	1	lemon	1	S	13	0	72	0		0	0	146.831476400024	146.931513200048
31857.5	0.0999654000625014	413	hunger	stimuli/non_foods\non-food_animate_mammoth.jpg	1	3	1	non-food_animate_mammoth	0	W	16	0	128	0		0	0	146.981496899971	147.081462300033
31895	0.0999881000025198	414	hunger	stimuli/foods\apple.jpg	1	3	1	apple	1	D	2	0	1	0		0	0	147.131471900037	147.231460000039
31932.5	0.0999839000869542	415	hunger	stimuli/foods\lollies.jpg	1	3	1	lollies	1	J	6	0	78	0		0	0	147.281474299962	147.381458200049
31970	0.0999556999886408	416	hunger	stimuli/foods\broccoli.jpg	1	3	1	broccoli	1	H	5	0	13	0		0	0	147.431470499956	147.531426199945
32007.5	0.0999860001029447	417	hunger	stimuli/foods\mango.jpg	1	3	1	mango	1	T	14	0	80	0		0	0	147.581466199947	147.68145220005
32045	0.0999823999591172	418	hunger	stimuli/foods\garlic.jpg	1	3	1	garlic	1	V	15	0	56	0		0	0	147.731469899998	147.831452299957
32082.5	0.100004700012505	419	hunger	stimuli/non_foods\non-food_animate_sea_lion.jpg	1	3	1	non-food_animate_sea_lion	0	L	8	0	143	0		0	0	147.88144529995	147.981449999963
33982.5	0.0999759000260383	420	hunger	stimuli/non_foods\non-food_inanimate_watering_can.jpg	1	4	1	non-food_inanimate_watering_can	0	G	4	0	225	0		0	0	155.48137449997	155.581350399996
34020	0.0999825999606401	421	hunger	stimuli/non_foods\non-food_animate_tortoise.jpg	1	4	1	non-food_animate_tortoise	0	Z	18	0	153	0		0	0	155.631366100046	155.731348700006
34057.5	0.0999722999986261	422	hunger	stimuli/foods\omelette.jpg	1	4	1	omelette	1	S	13	0	228	0		0	0	155.781376700033	155.881349000032
34095	0.100010299938731	423	hunger	stimuli/foods\croissant.jpg	1	4	1	croissant	1	M	9	0	40	0		0	0	155.931343000033	156.031353299972
34132.5	0.099985699984245	424	hunger	stimuli/non_foods\non-food_inanimate_rope.jpg	1	4	1	non-food_inanimate_rope	0	N	10	0	204	0		0	0	156.081367400009	156.181353099993
34170	0.0999862999888137	425	hunger	stimuli/foods\minestrone_soup.jpg	1	4	1	minestrone_soup	1	D	2	0	82	0		0	0	156.231367900036	156.331354200025
34207.5	0.0999966999515891	426	hunger	stimuli/foods\mandarin.jpg	1	4	1	mandarin	1	R	12	0	79	0		0	0	156.381374899996	156.481371599948
34245	0.0999830999644473	427	hunger	stimuli/non_foods\non-food_inanimate_wrench.jpg	1	4	1	non-food_inanimate_wrench	0	J	6	0	227	0		0	0	156.531363200047	156.631346300012
34282.5	0.0999786000465974	428	hunger	stimuli/foods\mortadella.jpg	1	4	1	mortadella	1	H	5	0	83	0		0	0	156.681362199946	156.781340799993
34320	0.099990899907425	429	hunger	stimuli/non_foods\non-food_inanimate_fire_extinguisher.jpg	1	4	1	non-food_inanimate_fire_extinguisher	0	W	16	0	181	0		0	0	156.831355200033	156.93134609994
34357.5	0.0999824000755325	430	hunger	stimuli/non_foods\non-food_animate_polar_bear.jpg	1	4	1	non-food_animate_polar_bear	0	C	1	0	137	0		0	0	156.98135659995	157.081339000026
34395	0.0999858999857679	431	hunger	stimuli/foods\watermelon.jpg	1	4	1	watermelon	1	V	15	0	279	0		0	0	157.131353699951	157.231339599937
34432.5	0.0999863999895751	432	hunger	stimuli/foods\ice_cream.jpg	1	4	1	ice_cream	1	X	17	0	68	0		0	0	157.281355999992	157.381342399982
34470	0.0999802000587806	433	hunger	stimuli/non_foods\non-food_inanimate_towel.jpg	1	4	1	non-food_inanimate_towel	0	C	1	0	221	0		0	0	157.431352899992	157.531333100051
34507.5	0.0999712999910116	434	hunger	stimuli/non_foods\non-food_animate_duck.jpg	1	4	1	non-food_animate_duck	0	E	20	1	109	0		0	0	157.581349299988	157.681320599979
34545	0.0999861999880522	435	hunger	stimuli/foods\pasta_carbonara.jpg	1	4	1	pasta_carbonara	1	W	16	0	236	0		0	0	157.731350000016	157.831336200004
34582.5	0.0999758000252768	436	hunger	stimuli/non_foods\non-food_animate_slug.jpg	1	4	1	non-food_animate_slug	0	G	4	0	148	0		0	0	157.881346000009	157.981321800034
34620	0.0999889000086114	437	hunger	stimuli/non_foods\non-food_animate_eagle.jpg	1	4	1	non-food_animate_eagle	0	R	12	0	110	1	a	0.455632600001991	1	158.031338999979	158.131327899988
34657.5	0.0999630999285728	438	hunger	stimuli/non_foods\non-food_animate_student_female.jpg	1	4	1	non-food_animate_student_female	0	M	9	0	151	0		0	0	158.181357800029	158.281320899958
34695	0.0999787000473589	439	hunger	stimuli/foods\risotto_with_peas_and_asparagus_tips.jpg	1	4	1	risotto_with_peas_and_asparagus_tips	1	B	0	0	259	0		0	0	158.331336200004	158.431314900052
34732.5	0.0999968000687659	440	hunger	stimuli/non_foods\non-food_inanimate_fern.jpg	1	4	1	non-food_inanimate_fern	0	S	13	0	180	0		0	0	158.481325499946	158.581322300015
34770	0.100004000007175	441	hunger	stimuli/foods\waffle.jpg	1	4	1	waffle	1	W	16	0	278	0		0	0	158.631317200023	158.73132120003
34807.5	0.0999873999971896	442	hunger	stimuli/non_foods\non-food_inanimate_hammer.jpg	1	4	1	non-food_inanimate_hammer	0	H	5	0	186	0		0	0	158.781333999941	158.881321399938
34845	0.0999851999804378	443	hunger	stimuli/non_foods\non-food_inanimate_soccer_ball.jpg	1	4	1	non-food_inanimate_soccer_ball	0	S	13	0	210	0		0	0	158.931334199966	159.031319399946
34882.5	0.09998430009	444	hunger	stimuli/foods\pear.jpg	1	4	1	pear	1	L	8	0	239	0		0	0	159.081330599962	159.181314900052
34920	0.0999768000328913	445	hunger	stimuli/foods\hazelnuts.jpg	1	4	1	hazelnuts	1	R	12	0	65	0		0	0	159.231329299975	159.331306100008
34957.5	0.0999713999917731	446	hunger	stimuli/non_foods\non-food_inanimate_bowling_ball.jpg	1	4	1	non-food_inanimate_bowling_ball	0	G	4	0	162	0		0	0	159.381332400022	159.481303800014
34995	0.0999858999857679	447	hunger	stimuli/non_foods\non-food_animate_seahorse.jpg	1	4	1	non-food_animate_seahorse	0	N	10	0	145	0		0	0	159.531319999951	159.631305899937
35032.5	0.0999867001082748	448	hunger	stimuli/non_foods\non-food_animate_grasshopper.jpg	1	4	1	non-food_animate_grasshopper	0	C	1	0	117	0		0	0	159.681315099937	159.781301800045
35070	0.0999965000664815	449	hunger	stimuli/non_foods\non-food_animate_dachshund.jpg	1	4	1	non-food_animate_dachshund	0	F	3	0	104	0		0	0	159.831316899974	159.93131340004
35107.5	0.0999461999163032	450	hunger	stimuli/non_foods\non-food_animate_cow.jpg	1	4	1	non-food_animate_cow	0	C	1	0	103	0		0	0	159.981352800038	160.081298999954
35145	0.099984799977392	451	hunger	stimuli/foods\stew_with_potatoes_and_carrots.jpg	1	4	1	stew_with_potatoes_and_carrots	1	P	11	0	271	0		0	0	160.131313099992	160.231297899969
35182.5	0.0999859999865294	452	hunger	stimuli/non_foods\non-food_inanimate_tree.jpg	1	4	1	non-food_inanimate_tree	0	A	19	1	223	0		0	0	160.281312100007	160.381298099994
35220	0.0999945999355987	453	hunger	stimuli/non_foods\non-food_inanimate_folding_chair.jpg	1	4	1	non-food_inanimate_folding_chair	0	M	9	0	182	0		0	0	160.431309600011	160.531304199947
35257.5	0.0999866999918595	454	hunger	stimuli/non_foods\non-food_inanimate_hay.jpg	1	4	1	non-food_inanimate_hay	0	P	11	0	187	0		0	0	160.581313999952	160.681300699944
35295	0.100008300039917	455	hunger	stimuli/non_foods\non-food_animate_monkey.jpg	1	4	1	non-food_animate_monkey	0	C	1	0	130	1	a	0.541794099961407	1	160.731287900009	160.831296200049
35332.5	0.0999874999979511	456	hunger	stimuli/foods\lime.jpg	1	4	1	lime	1	F	3	0	76	0		0	0	160.881310899975	160.981298399973
35370	0.0999884000048041	457	hunger	stimuli/non_foods\non-food_animate_young_girl.jpg	1	4	1	non-food_animate_young_girl	0	T	14	0	157	0		0	0	161.031305999961	161.131294399966
35407.5	0.0999868999933824	458	hunger	stimuli/foods\brie.jpg	1	4	1	brie	1	P	11	0	12	0		0	0	161.181305599981	161.281292499974
35445	0.0999799999408424	459	hunger	stimuli/foods\potato_chips.jpg	1	4	1	potato_chips	1	T	14	0	247	0		0	0	161.331308200024	161.431288199965
35482.5	0.0999844999751076	460	hunger	stimuli/non_foods\non-food_animate_horse.jpg	1	4	1	non-food_animate_horse	0	Z	18	0	119	0		0	0	161.481304700021	161.581289199996
35520	0.0999965999508277	461	hunger	stimuli/foods\gnocchi.jpg	1	4	1	gnocchi	1	W	16	0	58	0		0	0	161.631303500035	161.731300099986
35557.5	0.0999387999763712	462	hunger	stimuli/non_foods\non-food_animate_sea_turtle.jpg	1	4	1	non-food_animate_sea_turtle	0	L	8	0	144	0		0	0	161.781343300012	161.881282099988
35595	0.099984799977392	463	hunger	stimuli/non_foods\non-food_inanimate_bamboo.jpg	1	4	1	non-food_inanimate_bamboo	0	H	5	0	159	0		0	0	161.931299300049	162.031284100027
35632.5	0.0999940999317914	464	hunger	stimuli/foods\dates.jpg	1	4	1	dates	1	Z	18	0	43	0		0	0	162.081295500044	162.181289599976
35670	0.0999664000701159	465	hunger	stimuli/non_foods\non-food_animate_german_shepherd.jpg	1	4	1	non-food_animate_german_shepherd	0	G	4	0	114	0		0	0	162.231295799953	162.331262200023
35707.5	0.0999861999880522	466	hunger	stimuli/non_foods\non-food_animate_alligator.jpg	1	4	1	non-food_animate_alligator	0	R	12	0	90	0		0	0	162.381292799953	162.481278999941
35745	0.0999799999408424	467	hunger	stimuli/non_foods\non-food_inanimate_shell.jpg	1	4	1	non-food_inanimate_shell	0	N	10	0	206	0		0	0	162.531296800007	162.631276799948
35782.5	0.0999678999651223	468	hunger	stimuli/foods\chocolate_pralines.jpg	1	4	1	chocolate_pralines	1	K	7	0	28	0		0	0	162.681289399974	162.781257299939
35820	0.0999928000383079	469	hunger	stimuli/foods\banana.jpg	1	4	1	banana	1	Z	18	0	9	0		0	0	162.831291300012	162.93128410005
35857.5	0.0999860999872908	470	hunger	stimuli/foods\prawn.jpg	1	4	1	prawn	1	L	8	0	249	0		0	0	162.981285899994	163.081271999981
35895	0.0999863999895751	471	hunger	stimuli/foods\taco.jpg	1	4	1	taco	1	W	16	0	274	0		0	0	163.13128490001	163.231271299999
35932.5	0.0999852000968531	472	hunger	stimuli/foods\orange.jpg	1	4	1	orange	1	F	3	0	230	0		0	0	163.281274299952	163.381259500049
35970	0.100005800020881	473	hunger	stimuli/foods\cauliflower.jpg	1	4	1	cauliflower	1	J	6	0	20	0		0	0	163.431271999958	163.531277799979
36007.5	0.0999671000754461	474	hunger	stimuli/foods\cannoli.jpg	1	4	1	cannoli	1	R	12	0	17	0		0	0	163.581298799952	163.681265900028
36045	0.0999849000945687	475	hunger	stimuli/foods\oven-roasted_tomatoes.jpg	1	4	1	oven-roasted_tomatoes	1	M	9	0	232	0		0	0	163.73127879994	163.831263700034
36082.5	0.0999818000709638	476	hunger	stimuli/foods\blackberry.jpg	1	4	1	blackberry	1	W	16	0	11	0		0	0	163.881277299952	163.981259100023
36120	0.0999861999880522	477	hunger	stimuli/non_foods\non-food_inanimate_button.jpg	1	4	1	non-food_inanimate_button	0	S	13	0	168	0		0	0	164.031273799948	164.131259999936
36157.5	0.0999869999941438	478	hunger	stimuli/foods\rockmelon.jpg	1	4	1	rockmelon	1	L	8	0	262	0		0	0	164.181268900051	164.281255900045
36195	0.0999870999949053	479	hunger	stimuli/foods\brownie.jpg	1	4	1	brownie	1	B	0	0	14	0		0	0	164.331267199945	164.43125429994
36232.5	0.0999851999804378	480	hunger	stimuli/non_foods\non-food_inanimate_skateboard.jpg	1	4	1	non-food_inanimate_skateboard	0	S	13	0	208	0		0	0	164.48126879998	164.581253999961
36270	0.0999833999667317	481	hunger	stimuli/foods\lentils.jpg	1	4	1	lentils	1	M	9	0	74	0		0	0	164.631266499986	164.731249899953
36307.5	0.0999868999933824	482	hunger	stimuli/non_foods\non-food_inanimate_short_sleeved_shirt.jpg	1	4	1	non-food_inanimate_short_sleeved_shirt	0	S	13	0	207	0		0	0	164.781265600002	164.881252499996
36345	0.0999835999682546	483	hunger	stimuli/non_foods\non-food_animate_millipede.jpg	1	4	1	non-food_animate_millipede	0	N	10	0	129	0		0	0	164.931266100029	165.031249699998
36382.5	0.0999864999903366	484	hunger	stimuli/non_foods\non-food_animate_seal.jpg	1	4	1	non-food_animate_seal	0	D	2	0	146	0		0	0	165.081261900021	165.181248400011
36420	0.100004500010982	485	hunger	stimuli/foods\smoked_ham.jpg	1	4	1	smoked_ham	1	S	13	0	266	0		0	0	165.231260600034	165.331265100045
36457.5	0.0999413999961689	486	hunger	stimuli/foods\eggplant.jpg	1	4	1	eggplant	1	N	10	0	46	0		0	0	165.381299500004	165.481240900001
36495	0.0999769000336528	487	hunger	stimuli/non_foods\non-food_animate_green_bug.jpg	1	4	1	non-food_animate_green_bug	0	H	5	0	118	0		0	0	165.53126660001	165.631243500044
36532.5	0.0999686000868678	488	hunger	stimuli/foods\linguine_with_clams.jpg	1	4	1	linguine_with_clams	1	C	1	0	77	0		0	0	165.68125439994	165.781223000027
36570	0.0999658000655472	489	hunger	stimuli/non_foods\non-food_inanimate_highlighter.jpg	1	4	1	non-food_inanimate_highlighter	0	K	7	0	189	0		0	0	165.831251699943	165.931217500009
36607.5	0.099985699984245	490	hunger	stimuli/foods\risotto_with_zucchini.jpg	1	4	1	risotto_with_zucchini	1	J	6	0	260	0		0	0	165.981250499957	166.081236199941
36645	0.0999846000922844	491	hunger	stimuli/foods\clams.jpg	1	4	1	clams	1	P	11	0	32	0		0	0	166.131247399957	166.231232000049
36682.5	0.0999627000419423	492	hunger	stimuli/non_foods\non-food_inanimate_clover.jpg	1	4	1	non-food_inanimate_clover	0	N	10	0	174	0		0	0	166.281247799983	166.381210500025
36720	0.0999821999575943	493	hunger	stimuli/foods\cereal.jpg	1	4	1	cereal	1	S	13	0	22	0		0	0	166.431245499989	166.531227699947
36757.5	0.0999828000785783	494	hunger	stimuli/non_foods\non-food_inanimate_socks.jpg	1	4	1	non-food_inanimate_socks	0	P	11	0	211	0		0	0	166.581236399943	166.681219200022
36795	0.0999961999477819	495	hunger	stimuli/non_foods\non-food_inanimate_headphones.jpg	1	4	1	non-food_inanimate_headphones	0	V	15	0	188	0		0	0	166.731230400037	166.831226599985
36832.5	0.0999837999697775	496	hunger	stimuli/non_foods\non-food_animate_clown.jpg	1	4	1	non-food_animate_clown	0	F	3	0	102	0		0	0	166.881239300012	166.981223099981
36870	0.100014999974519	497	hunger	stimuli/non_foods\non-food_animate_snail.jpg	1	4	1	non-food_animate_snail	0	D	2	0	149	0		0	0	167.031253200024	167.131268199999
36907.5	0.099969300092198	498	hunger	stimuli/foods\strawberry.jpg	1	4	1	strawberry	1	G	4	0	272	0		0	0	167.181253999937	167.28122330003
36945	0.0999862999888137	499	hunger	stimuli/foods\cream_donuts.jpg	1	4	1	cream_donuts	1	R	12	0	39	0		0	0	167.331234700046	167.431221000035
36982.5	0.0999875999987125	500	hunger	stimuli/foods\lettuce.jpg	1	4	1	lettuce	1	E	20	1	75	0		0	0	167.481232699938	167.581220299937
37020	0.0999858999857679	501	hunger	stimuli/foods\baked_cod_with_carrots_and_green_beans.jpg	1	4	1	baked_cod_with_carrots_and_green_beans	1	Z	18	0	7	0		0	0	167.631231899955	167.731217799941
37057.5	0.0999838000861928	502	hunger	stimuli/foods\onion.jpg	1	4	1	onion	1	W	16	0	229	1	a	0.400242100004107	1	167.781229999964	167.88121380005
37095	0.0999851999804378	503	hunger	stimuli/non_foods\non-food_animate_rhino.jpg	1	4	1	non-food_animate_rhino	0	X	17	0	141	0		0	0	167.931230899994	168.031216099975
37132.5	0.0999834999674931	504	hunger	stimuli/non_foods\non-food_animate_lion.jpg	1	4	1	non-food_animate_lion	0	Z	18	0	125	0		0	0	168.081225599977	168.181209099945
37170	0.0999838999705389	505	hunger	stimuli/non_foods\non-food_inanimate_tent.jpg	1	4	1	non-food_inanimate_tent	0	B	0	0	219	0		0	0	168.231227600016	168.331211499986
37207.5	0.0999802999431267	506	hunger	stimuli/non_foods\non-food_inanimate_table.jpg	1	4	1	non-food_inanimate_table	0	J	6	0	217	0		0	0	168.381228500046	168.481208799989
37245	0.0999835999682546	507	hunger	stimuli/non_foods\non-food_inanimate_protractor.jpg	1	4	1	non-food_inanimate_protractor	0	H	5	0	201	0		0	0	168.531221400015	168.631204999983
37282.5	0.0999781000427902	508	hunger	stimuli/non_foods\non-food_animate_deer.jpg	1	4	1	non-food_animate_deer	0	X	17	0	105	0		0	0	168.681228099973	168.781206200016
37320	0.0999951999401674	509	hunger	stimuli/foods\egg.jpg	1	4	1	egg	1	N	10	0	45	0		0	0	168.831235400052	168.931230599992
37357.5	0.100009899935685	510	hunger	stimuli/foods\fruit_pie.jpg	1	4	1	fruit_pie	1	T	14	0	54	0		0	0	168.981226400007	169.081236299942
37395	0.0999839000869542	511	hunger	stimuli/non_foods\non-food_animate_dragonfly.jpg	1	4	1	non-food_animate_dragonfly	0	M	9	0	108	0		0	0	169.131216299953	169.23120020004
37432.5	0.099987699999474	512	hunger	stimuli/foods\almonds.jpg	1	4	1	almonds	1	T	14	0	0	0		0	0	169.281208900036	169.381196600036
37470	0.099986599991098	513	hunger	stimuli/non_foods\non-food_animate_lizard.jpg	1	4	1	non-food_animate_lizard	0	L	8	0	126	0		0	0	169.431211499963	169.531198099954
37507.5	0.0999848999781534	514	hunger	stimuli/foods\pancakes.jpg	1	4	1	pancakes	1	F	3	0	234	0		0	0	169.581201100023	169.681186000002
37545	0.100010000052862	515	hunger	stimuli/foods\red_beans.jpg	1	4	1	red_beans	1	V	15	0	255	0		0	0	169.731179199996	169.831189200049
37582.5	0.0999864999903366	516	hunger	stimuli/non_foods\non-food_inanimate_briefcase.jpg	1	4	1	non-food_inanimate_briefcase	0	H	5	0	163	0		0	0	169.881205599988	169.981192099978
37620	0.0999768000328913	517	hunger	stimuli/non_foods\non-food_inanimate_suitcase.jpg	1	4	1	non-food_inanimate_suitcase	0	R	12	0	215	0		0	0	170.031211699941	170.131188499974
37657.5	0.0999780999263749	518	hunger	stimuli/non_foods\non-food_animate_peacock.jpg	1	4	1	non-food_animate_peacock	0	F	3	0	134	0		0	0	170.18120370002	170.281181799946
37695	0.0999822000740096	519	hunger	stimuli/foods\pork_and_rice.jpg	1	4	1	pork_and_rice	1	R	12	0	245	0		0	0	170.331192999962	170.431175200036
37732.5	0.100004900014028	520	hunger	stimuli/foods\savory_pie.jpg	1	4	1	savory_pie	1	P	11	0	265	0		0	0	170.48117569997	170.581180599984
37770	0.0999837000854313	521	hunger	stimuli/foods\carrot.jpg	1	4	1	carrot	1	S	13	0	19	0		0	0	170.631202499964	170.73118620005
37807.5	0.0999759000260383	522	hunger	stimuli/non_foods\non-food_animate_porcupine.jpg	1	4	1	non-food_animate_porcupine	0	L	8	0	138	0		0	0	170.781196799944	170.88117269997
37845	0.0999858999857679	523	hunger	stimuli/foods\green_olives.jpg	1	4	1	green_olives	1	P	11	0	62	0		0	0	170.931184599991	171.031170499977
37882.5	0.0999848999781534	524	hunger	stimuli/foods\kiwi.jpg	1	4	1	kiwi	1	Z	18	0	69	0		0	0	171.081185200019	171.181170099997
37920	0.0999852999811992	525	hunger	stimuli/foods\fries.jpg	1	4	1	fries	1	J	6	0	52	0		0	0	171.231181700015	171.331166999997
37957.5	0.0999797999393195	526	hunger	stimuli/foods\coconut.jpg	1	4	1	coconut	1	B	0	0	33	0		0	0	171.381181400036	171.481161199976
37995	0.0999819999560714	527	hunger	stimuli/foods\artichoke.jpg	1	4	1	artichoke	1	T	14	0	3	0		0	0	171.531193400035	171.631175399991
38032.5	0.100029200082645	528	hunger	stimuli/foods\corncob.jpg	1	4	1	corncob	1	H	5	0	37	0		0	0	171.681162099936	171.781191300019
38070	0.0999611000297591	529	hunger	stimuli/non_foods\non-food_animate_swan.jpg	1	4	1	non-food_animate_swan	0	L	8	0	152	0		0	0	171.831207199953	171.931168299983
38107.5	0.0999799999408424	530	hunger	stimuli/foods\apricot.jpg	1	4	1	apricot	1	F	3	0	2	0		0	0	171.981186400051	172.081166399992
38145	0.100004700012505	531	hunger	stimuli/non_foods\non-food_inanimate_moss.jpg	1	4	1	non-food_inanimate_moss	0	P	11	0	194	0		0	0	172.131178900017	172.23118360003
38182.5	0.0999901000177488	532	hunger	stimuli/non_foods\non-food_inanimate_bicycle.jpg	1	4	1	non-food_inanimate_bicycle	0	V	15	0	161	0		0	0	172.28117490001	172.381165000028
38220	0.0999489000532776	533	hunger	stimuli/non_foods\non-food_animate_bat.jpg	1	4	1	non-food_animate_bat	0	S	13	0	94	0		0	0	172.431213899981	172.531162800035
38257.5	0.0999532000860199	534	hunger	stimuli/non_foods\non-food_inanimate_canoe.jpg	1	4	1	non-food_inanimate_canoe	0	B	0	0	170	0		0	0	172.58119149995	172.681144700036
38295	0.100008800043724	535	hunger	stimuli/foods\capsicum.jpg	1	4	1	capsicum	1	W	16	0	18	0		0	0	172.731148399995	172.831157200038
38332.5	0.099986300105229	536	hunger	stimuli/non_foods\non-food_animate_owl.jpg	1	4	1	non-food_animate_owl	0	L	8	0	132	0		0	0	172.881169099943	172.981155400048
38370	0.0999848999781534	537	hunger	stimuli/foods\raw_sausage.jpg	1	4	1	raw_sausage	1	T	14	0	254	0		0	0	173.031169799971	173.13115469995
38407.5	0.0999844999751076	538	hunger	stimuli/non_foods\non-food_animate_kangaroo.jpg	1	4	1	non-food_animate_kangaroo	0	Z	18	0	122	0		0	0	173.181167499977	173.281151999952
38445	0.0999841999728233	539	hunger	stimuli/foods\roasted_chicken.jpg	1	4	1	roasted_chicken	1	P	11	0	261	0		0	0	173.3311674	173.431151599973
38482.5	0.099980500061065	540	hunger	stimuli/non_foods\non-food_animate_runner.jpg	1	4	1	non-food_animate_runner	0	X	17	0	142	0		0	0	173.481162499986	173.581143000047
38520	0.0999846999766305	541	hunger	stimuli/non_foods\non-food_inanimate_nailpolish.jpg	1	4	1	non-food_inanimate_nailpolish	0	Z	18	0	195	0		0	0	173.631161400001	173.731146099977
38557.5	0.0999838999705389	542	hunger	stimuli/non_foods\non-food_inanimate_skirt.jpg	1	4	1	non-food_inanimate_skirt	0	W	16	0	209	0		0	0	173.781161500025	173.881145399995
38595	0.0999824000755325	543	hunger	stimuli/foods\peach.jpg	1	4	1	peach	1	N	10	0	238	0		0	0	173.931162399938	174.031144800014
38632.5	0.0999905000207946	544	hunger	stimuli/non_foods\non-food_animate_yellow_bug.jpg	1	4	1	non-food_animate_yellow_bug	0	Z	18	0	155	0		0	0	174.081153800013	174.181144300033
38670	0.0999390999786556	545	hunger	stimuli/non_foods\non-food_animate_Causasian_man.jpg	1	4	1	non-food_animate_Causasian_man	0	L	8	0	89	0		0	0	174.231201100047	174.331140200025
38707.5	0.0999818000709638	546	hunger	stimuli/foods\museli_bars.jpg	1	4	1	museli_bars	1	J	6	0	84	0		0	0	174.38115469995	174.481136500021
38745	0.0999857999850065	547	hunger	stimuli/foods\brussel_sprouts.jpg	1	4	1	brussel_sprouts	1	T	14	0	15	0		0	0	174.531152399955	174.63113819994
38782.5	0.0999834999674931	548	hunger	stimuli/foods\baked_lamb_with_potatoes.jpg	1	4	1	baked_lamb_with_potatoes	1	Z	18	0	8	0		0	0	174.681152399979	174.781135899946
38820	0.099990600021556	549	hunger	stimuli/non_foods\non-food_animate_young_boy.jpg	1	4	1	non-food_animate_young_boy	0	C	1	0	156	0		0	0	174.831146499957	174.931137099979
38857.5	0.099985699984245	550	hunger	stimuli/non_foods\non-food_inanimate_cactus_pot_plant.jpg	1	4	1	non-food_inanimate_cactus_pot_plant	0	F	3	0	169	0		0	0	174.981145499973	175.081131199957
38895	0.099985699984245	551	hunger	stimuli/non_foods\non-food_inanimate_lighter.jpg	1	4	1	non-food_inanimate_lighter	0	K	7	0	193	0		0	0	175.131144199986	175.23112989997
38932.5	0.0999813999515027	552	hunger	stimuli/foods\asparagus.jpg	1	4	1	asparagus	1	C	1	0	4	0		0	0	175.281145100016	175.381126499968
38970	0.099983699969016	553	hunger	stimuli/non_foods\non-food_animate_ram.jpg	1	4	1	non-food_animate_ram	0	H	5	0	140	0		0	0	175.431144300033	175.531128000002
39007.5	0.0999874999979511	554	hunger	stimuli/foods\lemon_meringue_pie.jpg	1	4	1	lemon_meringue_pie	1	G	4	0	73	0		0	0	175.581137800007	175.681125300005
39045	0.0999894000124186	555	hunger	stimuli/foods\mushroom.jpg	1	4	1	mushroom	1	V	15	0	85	0		0	0	175.731133499998	175.83112290001
39082.5	0.0999857999850065	556	hunger	stimuli/non_foods\non-food_animate_skunk.jpg	1	4	1	non-food_animate_skunk	0	Z	18	0	147	0		0	0	175.881135400035	175.98112120002
39120	0.0999226999701932	557	hunger	stimuli/foods\chestnut.jpg	1	4	1	chestnut	1	F	3	0	24	0		0	0	176.031179200043	176.131101900013
39157.5	0.0999962999485433	558	hunger	stimuli/non_foods\non-food_animate_chicken.jpg	1	4	1	non-food_animate_chicken	0	D	2	0	101	0		0	0	176.181114800042	176.28111109999
39195	0.0999879000009969	559	hunger	stimuli/non_foods\non-food_animate_donkey.jpg	1	4	1	non-food_animate_donkey	0	N	10	0	107	0		0	0	176.331121800002	176.431109700003
40370	0.0999811999499798	560	hunger	stimuli/non_foods\non-food_inanimate_clover.jpg	1	5	1	non-food_inanimate_clover	0	K	7	0	174	0		0	0	181.031082300004	181.131063499954
40407.5	0.0999852999811992	561	hunger	stimuli/foods\red_beans.jpg	1	5	1	red_beans	1	B	0	0	255	0		0	0	181.18107479997	181.281060099951
40445	0.0999957000603899	562	hunger	stimuli/foods\linguine_with_clams.jpg	1	5	1	linguine_with_clams	1	S	13	0	77	0		0	0	181.331074299989	181.43107000005
40482.5	0.0999699999811128	563	hunger	stimuli/foods\nectarine.jpg	1	5	1	nectarine	1	X	17	0	87	0		0	0	181.481071199989	181.58104119997
40520	0.099999799975194	564	hunger	stimuli/non_foods\non-food_animate_sea_lion.jpg	1	5	1	non-food_animate_sea_lion	0	P	11	0	143	0		0	0	181.631051099976	181.731050899951
40557.5	0.0999838999705389	565	hunger	stimuli/foods\blackberry.jpg	1	5	1	blackberry	1	X	17	0	11	0		0	0	181.781069700024	181.881053599995
40595	0.100001899991184	566	hunger	stimuli/non_foods\non-food_animate_green_bug.jpg	1	5	1	non-food_animate_green_bug	0	B	0	0	118	0		0	0	181.931065600016	182.031067500007
40632.5	0.0999869999941438	567	hunger	stimuli/foods\potato_chips.jpg	1	5	1	potato_chips	1	F	3	0	247	0		0	0	182.081062300014	182.181049300008
40670	0.0999840999720618	568	hunger	stimuli/foods\grilled_chicken_breast.jpg	1	5	1	grilled_chicken_breast	1	M	9	0	63	0		0	0	182.231061700033	182.331045800005
40707.5	0.09997740003746	569	hunger	stimuli/foods\rice.jpg	1	5	1	rice	1	K	7	0	257	0		0	0	182.381063699955	182.481041099993
40745	0.0999801000580192	570	hunger	stimuli/foods\tomato.jpg	1	5	1	tomato	1	F	3	0	276	0		0	0	182.531060999958	182.631041100016
40782.5	0.0999481999315321	571	hunger	stimuli/foods\museli_bars.jpg	1	5	1	museli_bars	1	R	12	0	84	0		0	0	182.681099600042	182.781047799974
40820	0.0999813000671566	572	hunger	stimuli/foods\pickles.jpg	1	5	1	pickles	1	H	5	0	242	0		0	0	182.83105779998	182.931039100047
40857.5	0.0999788000481203	573	hunger	stimuli/foods\lemon.jpg	1	5	1	lemon	1	L	8	0	72	0		0	0	182.981041099993	183.081019900041
40895	0.0999797999393195	574	hunger	stimuli/foods\mango.jpg	1	5	1	mango	1	V	15	0	80	0		0	0	183.131055100006	183.231034899945
40932.5	0.0999862999888137	575	hunger	stimuli/non_foods\non-food_animate_penguin.jpg	1	5	1	non-food_animate_penguin	0	S	13	0	135	0		0	0	183.281051099999	183.381037399988
40970	0.0999790999339893	576	hunger	stimuli/foods\lasagna.jpg	1	5	1	lasagna	1	B	0	0	71	0		0	0	183.431051800027	183.531030899961
41007.5	0.0999590000137687	577	hunger	stimuli/foods\garlic.jpg	1	5	1	garlic	1	G	4	0	56	0		0	0	183.581045500003	183.681004500017
41045	0.0999893000116572	578	hunger	stimuli/non_foods\non-food_inanimate_cactus_pot_plant.jpg	1	5	1	non-food_inanimate_cactus_pot_plant	0	C	1	0	169	0		0	0	183.731033999939	183.83102329995
41082.5	0.0999918999150395	579	hunger	stimuli/non_foods\non-food_animate_mammoth.jpg	1	5	1	non-food_animate_mammoth	0	N	10	0	128	0		0	0	183.881028800039	183.981020699954
41120	0.0999882000032812	580	hunger	stimuli/non_foods\non-food_animate_young_girl.jpg	1	5	1	non-food_animate_young_girl	0	E	20	1	157	0		0	0	184.031032099971	184.131020299974
41157.5	0.0999837999697775	581	hunger	stimuli/foods\cream_donuts.jpg	1	5	1	cream_donuts	1	X	17	0	39	0		0	0	184.181034500012	184.281018299982
41195	0.0999811000656337	582	hunger	stimuli/foods\pomegranate.jpg	1	5	1	pomegranate	1	Z	18	0	244	0		0	0	184.331037999946	184.431019100011
41232.5	0.0999631000449881	583	hunger	stimuli/non_foods\non-food_animate_grasshopper.jpg	1	5	1	non-food_animate_grasshopper	0	C	1	0	117	1	a	0.443216499988921	1	184.481051199953	184.581014299998
41270	0.0999843999743462	584	hunger	stimuli/foods\lemon_meringue_pie.jpg	1	5	1	lemon_meringue_pie	1	F	3	0	73	0		0	0	184.631029900047	184.731014300021
41307.5	0.0999854999827221	585	hunger	stimuli/foods\grapefruits.jpg	1	5	1	grapefruits	1	X	17	0	59	0		0	0	184.781026000041	184.881011500023
41345	0.0999840999720618	586	hunger	stimuli/non_foods\non-food_inanimate_folding_chair.jpg	1	5	1	non-food_inanimate_folding_chair	0	N	10	0	182	0		0	0	184.931023600046	185.031007700018
41382.5	0.0999832000816241	587	hunger	stimuli/non_foods\non-food_animate_clown.jpg	1	5	1	non-food_animate_clown	0	S	13	0	102	0		0	0	185.081024099956	185.181007300038
41420	0.099997500074096	588	hunger	stimuli/foods\lentils.jpg	1	5	1	lentils	1	V	15	0	74	0		0	0	185.231022199965	185.331019700039
41457.5	0.0999659999506548	589	hunger	stimuli/foods\ice_cream.jpg	1	5	1	ice_cream	1	K	7	0	68	0		0	0	185.381028500036	185.480994499987
41495	0.0999708999879658	590	hunger	stimuli/foods\pancakes.jpg	1	5	1	pancakes	1	N	10	0	234	0		0	0	185.531038500019	185.631009400007
41532.5	0.0999852999811992	591	hunger	stimuli/non_foods\non-food_animate_skunk.jpg	1	5	1	non-food_animate_skunk	0	V	15	0	147	0		0	0	185.681022600038	185.781007900019
41570	0.0999742000130937	592	hunger	stimuli/foods\pear.jpg	1	5	1	pear	1	X	17	0	239	0		0	0	185.83102589997	185.931000099983
41607.5	0.0999855999834836	593	hunger	stimuli/foods\cannoli.jpg	1	5	1	cannoli	1	T	14	0	17	0		0	0	185.981012300006	186.08099789999
41645	0.0999751000199467	594	hunger	stimuli/non_foods\non-food_animate_baby_sitting.jpg	1	5	1	non-food_animate_baby_sitting	0	D	2	0	93	0		0	0	186.131017599953	186.230992699973
41682.5	0.0999584000092	595	hunger	stimuli/non_foods\non-food_inanimate_soccer_ball.jpg	1	5	1	non-food_inanimate_soccer_ball	0	H	5	0	210	0		0	0	186.28103329998	186.380991699989
41720	0.099984799977392	596	hunger	stimuli/non_foods\non-food_inanimate_tent.jpg	1	5	1	non-food_inanimate_tent	0	M	9	0	219	0		0	0	186.431007900042	186.53099270002
41757.5	0.0999840999720618	597	hunger	stimuli/foods\asparagus.jpg	1	5	1	asparagus	1	C	1	0	4	0		0	0	186.581006000051	186.680990100023
41795	0.0999861001037061	598	hunger	stimuli/non_foods\non-food_inanimate_jeans.jpg	1	5	1	non-food_inanimate_jeans	0	D	2	0	191	0		0	0	186.731004299945	186.830990400049
41832.5	0.0999826999614015	599	hunger	stimuli/non_foods\non-food_animate_alligator.jpg	1	5	1	non-food_animate_alligator	0	A	19	1	90	0		0	0	186.881013500039	186.9809962
41870	0.0999809999484569	600	hunger	stimuli/foods\fennel.jpg	1	5	1	fennel	1	D	2	0	47	0		0	0	187.031008800026	187.130989799974
41907.5	0.0999868999933824	601	hunger	stimuli/foods\spring_onions.jpg	1	5	1	spring_onions	1	R	12	0	269	0		0	0	187.181004500017	187.28099140001
41945	0.0999921000329778	602	hunger	stimuli/foods\baked_cod_with_carrots_and_green_beans.jpg	1	5	1	baked_cod_with_carrots_and_green_beans	1	V	15	0	7	0		0	0	187.331008199952	187.431000299985
41982.5	0.100010700058192	603	hunger	stimuli/non_foods\non-food_inanimate_speakers.jpg	1	5	1	non-food_inanimate_speakers	0	Z	18	0	212	0		0	0	187.480976399966	187.580987100024
42020	0.0999847000930458	604	hunger	stimuli/non_foods\non-food_inanimate_nettle.jpg	1	5	1	non-food_inanimate_nettle	0	V	15	0	197	0		0	0	187.63100059994	187.730985300033
42057.5	0.0999691000906751	605	hunger	stimuli/non_foods\non-food_inanimate_watering_can.jpg	1	5	1	non-food_inanimate_watering_can	0	J	6	0	225	0		0	0	187.780998299946	187.880967400037
42095	0.0999993000878021	606	hunger	stimuli/foods\hazelnuts.jpg	1	5	1	hazelnuts	1	D	2	0	65	0		0	0	187.93100969994	188.031009000028
42132.5	0.0999685999704525	607	hunger	stimuli/non_foods\non-food_animate_ladybug.jpg	1	5	1	non-food_animate_ladybug	0	S	13	0	124	0		0	0	188.081012699986	188.180981299956
42170	0.0999825999606401	608	hunger	stimuli/foods\pork_and_rice.jpg	1	5	1	pork_and_rice	1	G	4	0	245	0		0	0	188.230985300033	188.330967899994
42207.5	0.0999851999804378	609	hunger	stimuli/non_foods\non-food_animate_butterfly.jpg	1	5	1	non-food_animate_butterfly	0	H	5	0	96	0		0	0	188.380990399979	188.480975599959
42245	0.099985699984245	610	hunger	stimuli/foods\bagel.jpg	1	5	1	bagel	1	N	10	0	6	0		0	0	188.530989799998	188.630975499982
42282.5	0.0999844999751076	611	hunger	stimuli/non_foods\non-food_inanimate_scissors.jpg	1	5	1	non-food_inanimate_scissors	0	T	14	0	205	0		0	0	188.680986799998	188.780971299973
42320	0.0999835999682546	612	hunger	stimuli/non_foods\non-food_inanimate_bush.jpg	1	5	1	non-food_inanimate_bush	0	D	2	0	167	0		0	0	188.830988500034	188.930972100003
42357.5	0.0999826999614015	613	hunger	stimuli/non_foods\non-food_inanimate_gloves.jpg	1	5	1	non-food_inanimate_gloves	0	W	16	0	183	0		0	0	188.980986300041	189.080969000002
42395	0.0999863999895751	614	hunger	stimuli/foods\celery.jpg	1	5	1	celery	1	F	3	0	21	0		0	0	189.13098440005	189.230970800039
42432.5	0.099986599991098	615	hunger	stimuli/foods\mandarin.jpg	1	5	1	mandarin	1	V	15	0	79	0		0	0	189.280980900046	189.380967500038
42470	0.0999788000481203	616	hunger	stimuli/foods\eggplant.jpg	1	5	1	eggplant	1	R	12	0	46	0		0	0	189.43097909994	189.530957899988
42507.5	0.0999912000261247	617	hunger	stimuli/foods\artichoke.jpg	1	5	1	artichoke	1	B	0	0	3	0		0	0	189.580978199956	189.680969399982
42545	0.09999399993103	618	hunger	stimuli/foods\frankfurter_and_provolone_salad.jpg	1	5	1	frankfurter_and_provolone_salad	1	J	6	0	49	0		0	0	189.730981800007	189.830975799938
42582.5	0.0999545999802649	619	hunger	stimuli/non_foods\non-food_inanimate_cupboard.jpg	1	5	1	non-food_inanimate_cupboard	0	X	17	0	177	0		0	0	189.881005599978	189.980960199959
42620	0.0999866999918595	620	hunger	stimuli/foods\egg.jpg	1	5	1	egg	1	Z	18	0	45	0		0	0	190.030974499998	190.13096119999
42657.5	0.0999864999903366	621	hunger	stimuli/foods\pasta_carbonara.jpg	1	5	1	pasta_carbonara	1	S	13	0	236	0		0	0	190.180968599976	190.280955099966
42695	0.0999910000246018	622	hunger	stimuli/foods\mushroom.jpg	1	5	1	mushroom	1	H	5	0	85	0		0	0	190.330968199996	190.430959200021
42732.5	0.0999820999568328	623	hunger	stimuli/non_foods\non-food_animate_peacock.jpg	1	5	1	non-food_animate_peacock	0	W	16	0	134	0		0	0	190.480970000033	190.58095209999
42770	0.0999823999591172	624	hunger	stimuli/non_foods\non-food_animate_parrot.jpg	1	5	1	non-food_animate_parrot	0	K	7	0	133	0		0	0	190.63096780004	190.730950199999
42807.5	0.100015999982134	625	hunger	stimuli/foods\risotto_with_zucchini.jpg	1	5	1	risotto_with_zucchini	1	M	9	0	260	0		0	0	190.780965700047	190.880981700029
42845	0.0999884998891503	626	hunger	stimuli/foods\onion.jpg	1	5	1	onion	1	I	21	1	229	0		0	0	190.930963200051	191.03095169994
42882.5	0.0999675000784919	627	hunger	stimuli/non_foods\non-food_animate_young_boy.jpg	1	5	1	non-food_animate_young_boy	0	L	8	0	156	0		0	0	191.080963199958	191.180930700037
42920	0.100004100007936	628	hunger	stimuli/non_foods\non-food_animate_student_female.jpg	1	5	1	non-food_animate_student_female	0	J	6	0	151	0		0	0	191.230940600042	191.33094470005
42957.5	0.0999832000816241	629	hunger	stimuli/non_foods\non-food_inanimate_buds.jpg	1	5	1	non-food_inanimate_buds	0	M	9	0	166	0		0	0	191.38095859997	191.480941800051
42995	0.0999579000053927	630	hunger	stimuli/non_foods\non-food_animate_donkey.jpg	1	5	1	non-food_animate_donkey	0	R	12	0	107	0		0	0	191.530985599966	191.630943499971
43032.5	0.0999688999727368	631	hunger	stimuli/non_foods\non-food_animate_cheetah.jpg	1	5	1	non-food_animate_cheetah	0	Z	18	0	100	1	a	0.743245099904016	1	191.680969399982	191.780938299955
43070	0.0999835999682546	632	hunger	stimuli/foods\prawn.jpg	1	5	1	prawn	1	K	7	0	249	0		0	0	191.830952399992	191.930935999961
43107.5	0.0999887000070885	633	hunger	stimuli/non_foods\non-food_animate_eagle.jpg	1	5	1	non-food_animate_eagle	0	R	12	0	110	0		0	0	191.980949599994	192.080938300001
43145	0.0999832999659702	634	hunger	stimuli/foods\lettuce.jpg	1	5	1	lettuce	1	Z	18	0	75	0		0	0	192.130948500009	192.230931799975
43182.5	0.0999862999888137	635	hunger	stimuli/foods\oven-roasted_tomatoes.jpg	1	5	1	oven-roasted_tomatoes	1	D	2	0	232	0		0	0	192.280946000014	192.380932300002
43220	0.0999625999247655	636	hunger	stimuli/non_foods\non-food_animate_owl.jpg	1	5	1	non-food_animate_owl	0	H	5	0	132	0		0	0	192.430946600041	192.530909199966
43257.5	0.0999881000025198	637	hunger	stimuli/non_foods\non-food_inanimate_canoe.jpg	1	5	1	non-food_inanimate_canoe	0	L	8	0	170	0		0	0	192.580937799998	192.6809259
43295	0.0999614999163896	638	hunger	stimuli/non_foods\non-food_inanimate_protractor.jpg	1	5	1	non-food_inanimate_protractor	0	W	16	0	201	0		0	0	192.730956200045	192.830917699961
43332.5	0.0999794999370351	639	hunger	stimuli/foods\cereal.jpg	1	5	1	cereal	1	B	0	0	22	0		0	0	192.880935800029	192.980915299966
43370	0.100007700035349	640	hunger	stimuli/non_foods\non-food_animate_raccoon.jpg	1	5	1	non-food_animate_raccoon	0	T	14	0	139	0		0	0	193.030930800014	193.13093850005
43407.5	0.0999588000122458	641	hunger	stimuli/foods\apricot.jpg	1	5	1	apricot	1	J	6	0	2	0		0	0	193.180940999999	193.280899800011
43445	0.0999425000045449	642	hunger	stimuli/foods\pineapple.jpg	1	5	1	pineapple	1	T	14	0	243	0		0	0	193.330978899961	193.430921399966
43482.5	0.099987699999474	643	hunger	stimuli/foods\red_cabbage.jpg	1	5	1	red_cabbage	1	H	5	0	256	0		0	0	193.480933599989	193.580921299988
43520	0.0999834999674931	644	hunger	stimuli/non_foods\non-food_animate_dolphin.jpg	1	5	1	non-food_animate_dolphin	0	D	2	0	106	0		0	0	193.630931699998	193.730915199965
43557.5	0.0999870999949053	645	hunger	stimuli/foods\corncob.jpg	1	5	1	corncob	1	T	14	0	37	0		0	0	193.780929500004	193.880916599999
43595	0.0999853999819607	646	hunger	stimuli/foods\apple.jpg	1	5	1	apple	1	K	7	0	1	0		0	0	193.93092980003	194.030915200012
43632.5	0.0999832999659702	647	hunger	stimuli/non_foods\non-food_inanimate_skateboard.jpg	1	5	1	non-food_inanimate_skateboard	0	S	13	0	208	0		0	0	194.080927700037	194.180911000003
43670	0.0999858999857679	648	hunger	stimuli/non_foods\non-food_inanimate_tulip.jpg	1	5	1	non-food_inanimate_tulip	0	D	2	0	224	0		0	0	194.230924600037	194.330910500023
