onset	duration	eventnumber	hunger_condition	stimfilename	blockno	trialno	is_faststream	stim	food_idx	letter	letter_idx	istarget	image_number	response	keypressed	rt	correct	time_stimon	time_stimoff
7294.5	0.0999710001051426	0	hunger	stimuli/foods\mussels.jpg	1	1	1	mussels	1	T	14	0	86	0		0	0	49.8013929999433	49.9013640000485
7332	0.100037899799645	1	hunger	stimuli/non_foods\non-food_animate_millipede.jpg	1	1	1	non-food_animate_millipede	0	G	4	0	129	0		0	0	49.9513818002306	50.0514197000302
7369.5	0.0999797000549734	2	hunger	stimuli/foods\spring_onions.jpg	1	1	1	spring_onions	1	M	9	0	269	0		0	0	50.1013835002668	50.2013632003218
7407	0.0999849000945687	3	hunger	stimuli/foods\figs.jpg	1	1	1	figs	1	V	15	0	48	0		0	0	50.2513755001128	50.3513604002073
7444.5	0.0999628999270499	4	hunger	stimuli/foods\pancakes.jpg	1	1	1	pancakes	1	X	17	0	234	0		0	0	50.4013767000288	50.5013395999558
7482	0.099970200099051	5	hunger	stimuli/non_foods\non-food_inanimate_jeans.jpg	1	1	1	non-food_inanimate_jeans	0	P	11	0	191	0		0	0	50.5513869002461	50.6513571003452
7519.5	0.0999937001615763	6	hunger	stimuli/non_foods\non-food_inanimate_canoe.jpg	1	1	1	non-food_inanimate_canoe	0	N	10	0	170	0		0	0	50.7013603001833	50.8013540003449
7557	0.100000199861825	7	hunger	stimuli/foods\fruit_pie.jpg	1	1	1	fruit_pie	1	V	15	0	54	0		0	0	50.8513538003899	50.9513540002517
7594.5	0.0999823999591172	8	hunger	stimuli/foods\salami.jpg	1	1	1	salami	1	W	16	0	263	0		0	0	51.001367600169	51.1013500001281
7632	0.0999991996213794	9	hunger	stimuli/foods\tomato.jpg	1	1	1	tomato	1	J	6	0	276	0		0	0	51.1513726003468	51.2513717999682
7669.5	0.0999600999057293	10	hunger	stimuli/foods\fried_zucchini.jpg	1	1	1	fried_zucchini	1	G	4	0	51	0		0	0	51.301385700237	51.4013458001427
7707	0.0999817000702024	11	hunger	stimuli/foods\linguine_with_clams.jpg	1	1	1	linguine_with_clams	1	O	22	1	77	0		0	0	51.4513623001985	51.5513440002687
7744.5	0.0999811999499798	12	hunger	stimuli/foods\cinnamon.jpg	1	1	1	cinnamon	1	B	0	0	30	0		0	0	51.6013629999943	51.7013441999443
7782	0.0997557998634875	13	hunger	stimuli/non_foods\non-food_inanimate_scissors.jpg	1	1	1	non-food_inanimate_scissors	0	L	8	0	205	0		0	0	51.7515812003985	51.851337000262
7819.5	0.0999894998967648	14	hunger	stimuli/non_foods\non-food_animate_sea_lion.jpg	1	1	1	non-food_animate_sea_lion	0	B	0	0	143	0		0	0	51.9013523003086	52.0013418002054
7857	0.100006400141865	15	hunger	stimuli/non_foods\non-food_inanimate_clover.jpg	1	1	1	non-food_inanimate_clover	0	D	2	0	174	0		0	0	52.051331799943	52.1513382000849
7894.5	0.0999843999743462	16	hunger	stimuli/non_foods\non-food_inanimate_leaf.jpg	1	1	1	non-food_inanimate_leaf	0	C	1	0	192	0		0	0	52.2013513999991	52.3013357999735
7932	0.0999826998449862	17	hunger	stimuli/non_foods\non-food_animate_grasshopper.jpg	1	1	1	non-food_animate_grasshopper	0	P	11	0	117	0		0	0	52.3513625003397	52.4513452001847
7969.5	0.100005100015551	18	hunger	stimuli/foods\pork_and_rice.jpg	1	1	1	pork_and_rice	1	M	9	0	245	0		0	0	52.5013267002068	52.6013318002224
8007	0.0999632999300957	19	hunger	stimuli/foods\chestnut.jpg	1	1	1	chestnut	1	C	1	0	24	0		0	0	52.6513490001671	52.7513123000972
8044.5	0.0999819999560714	20	hunger	stimuli/non_foods\non-food_animate_german_shepherd.jpg	1	1	1	non-food_animate_german_shepherd	0	D	2	0	114	0		0	0	52.8013405003585	52.9013225003146
8082	0.0999848996289074	21	hunger	stimuli/foods\cucumber.jpg	1	1	1	cucumber	1	S	13	0	41	0		0	0	52.9513497003354	53.0513345999643
8119.5	0.0999985998496413	22	hunger	stimuli/non_foods\non-food_animate_lion.jpg	1	1	1	non-food_animate_lion	0	Z	18	0	125	0		0	0	53.1013319003396	53.2013305001892
8157	0.0999544002115726	23	hunger	stimuli/non_foods\non-food_inanimate_briefcase.jpg	1	1	1	non-food_inanimate_briefcase	0	X	17	0	163	0		0	0	53.2513405000791	53.3512949002907
8194.5	0.0999750001356006	24	hunger	stimuli/foods\savory_pie.jpg	1	1	1	savory_pie	1	N	10	0	265	0		0	0	53.4013382000849	53.5013132002205
8232	0.0999825997278094	25	hunger	stimuli/foods\avocado.jpg	1	1	1	avocado	1	R	12	0	5	0		0	0	53.55133760022	53.6513201999478
8269.5	0.0999838998541236	26	hunger	stimuli/foods\risotto_with_zucchini.jpg	1	1	1	risotto_with_zucchini	1	X	17	0	260	0		0	0	53.7013336000964	53.8013174999505
8307	0.0999865997582674	27	hunger	stimuli/non_foods\non-food_animate_elephant.jpg	1	1	1	non-food_animate_elephant	0	T	14	0	111	0		0	0	53.8513334002346	53.9513199999928
8344.5	0.0999758001416922	28	hunger	stimuli/foods\fries.jpg	1	1	1	fries	1	O	22	1	52	0		0	0	54.0013296999969	54.1013055001386
8382	0.0999796004034579	29	hunger	stimuli/foods\carrot.jpg	1	1	1	carrot	1	H	5	0	19	0		0	0	54.1513416999951	54.2513213003986
8419.5	0.100001099985093	30	hunger	stimuli/non_foods\non-food_animate_penguin.jpg	1	1	1	non-food_animate_penguin	0	M	9	0	135	1	a	0.40018770005554	1	54.3013142002746	54.4013153002597
8457	0.0999884000048041	31	hunger	stimuli/non_foods\non-food_animate_camel.jpg	1	1	1	non-food_animate_camel	0	T	14	0	97	0		0	0	54.4513237001374	54.5513121001422
8494.5	0.099989099893719	32	hunger	stimuli/foods\orange.jpg	1	1	1	orange	1	J	6	0	230	0		0	0	54.6013210001402	54.7013101000339
8532	0.0999810001812875	33	hunger	stimuli/foods\roasted_chicken.jpg	1	1	1	roasted_chicken	1	K	7	0	261	0		0	0	54.7513418002054	54.8513228003867
8569.5	0.0999592998996377	34	hunger	stimuli/non_foods\non-food_inanimate_drum_set.jpg	1	1	1	non-food_inanimate_drum_set	0	P	11	0	179	0		0	0	54.9013476003893	55.0013069002889
8607	0.0999916000291705	35	hunger	stimuli/non_foods\non-food_animate_owl.jpg	1	1	1	non-food_animate_owl	0	J	6	0	132	0		0	0	55.0513118002564	55.1513034002855
8644.5	0.0999839003197849	36	hunger	stimuli/foods\corncob.jpg	1	1	1	corncob	1	Z	18	0	37	0		0	0	55.2013167999685	55.3013007002883
8682	0.0999841000884771	37	hunger	stimuli/non_foods\non-food_animate_alligator.jpg	1	1	1	non-food_animate_alligator	0	R	12	0	90	0		0	0	55.3513168999925	55.451301000081
8719.5	0.0999822998419404	38	hunger	stimuli/foods\oregano.jpg	1	1	1	oregano	1	T	14	0	231	0		0	0	55.5013147001155	55.6012969999574
8757	0.099983099848032	39	hunger	stimuli/foods\prawn.jpg	1	1	1	prawn	1	X	17	0	249	0		0	0	55.6513098003343	55.7512929001823
8794.5	0.100009100046009	40	hunger	stimuli/foods\mandarin.jpg	1	1	1	mandarin	1	W	16	0	79	0		0	0	55.8013087003492	55.9013178003952
8832	0.0999658997170627	41	hunger	stimuli/foods\coconut.jpg	1	1	1	coconut	1	C	1	0	33	0		0	0	55.951325900387	56.0512918001041
8869.5	0.0999801000580192	42	hunger	stimuli/non_foods\non-food_animate_peacock.jpg	1	1	1	non-food_animate_peacock	0	N	10	0	134	0		0	0	56.1013160999864	56.2012962000445
8907	0.100001099985093	43	hunger	stimuli/non_foods\non-food_inanimate_folding_chair.jpg	1	1	1	non-food_inanimate_folding_chair	0	Z	18	0	182	0		0	0	56.2512807003222	56.3512818003073
8944.5	0.0999965001828969	44	hunger	stimuli/foods\frankfurter_and_provolone_salad.jpg	1	1	1	frankfurter_and_provolone_salad	1	H	5	0	49	0		0	0	56.4012915999629	56.5012881001458
8982	0.0999739002436399	45	hunger	stimuli/foods\rockmelon.jpg	1	1	1	rockmelon	1	L	8	0	262	0		0	0	56.5513144000433	56.651288300287
9019.5	0.0999799999408424	46	hunger	stimuli/foods\cooked_ham.jpg	1	1	1	cooked_ham	1	S	13	0	35	0		0	0	56.7013036003336	56.8012836002745
9057	0.0999825000762939	47	hunger	stimuli/foods\brussel_sprouts.jpg	1	1	1	brussel_sprouts	1	M	9	0	15	0		0	0	56.8512995000929	56.9512820001692
9094.5	0.0999658997170627	48	hunger	stimuli/foods\mortadella.jpg	1	1	1	mortadella	1	N	10	0	83	0		0	0	57.0013041002676	57.1012699999847
9132	0.0999835999682546	49	hunger	stimuli/non_foods\non-food_animate_iguana.jpg	1	1	1	non-food_animate_iguana	0	C	1	0	121	0		0	0	57.1512885000557	57.2512721000239
9169.5	0.0999837000854313	50	hunger	stimuli/foods\brownie.jpg	1	1	1	brownie	1	U	23	1	14	0		0	0	57.3012855001725	57.401269200258
9207	0.0999849997460842	51	hunger	stimuli/foods\cereal.jpg	1	1	1	cereal	1	N	10	0	22	0		0	0	57.4512810003944	57.5512660001405
9244.5	0.09998709987849	52	hunger	stimuli/non_foods\non-food_animate_chicken.jpg	1	1	1	non-food_animate_chicken	0	F	3	0	101	0		0	0	57.6012804000638	57.7012674999423
9282	0.0999988997355103	53	hunger	stimuli/non_foods\non-food_animate_caterpillar.jpg	1	1	1	non-food_animate_caterpillar	0	D	2	0	99	0		0	0	57.7512731002644	57.8512719999999
9319.5	0.0999836996197701	54	hunger	stimuli/non_foods\non-food_animate_bat.jpg	1	1	1	non-food_animate_bat	0	K	7	0	94	1	a	0.691826499998569	1	57.9012864003889	58.0012701000087
9357	0.0999783999286592	55	hunger	stimuli/non_foods\non-food_animate_yellow_bug.jpg	1	1	1	non-food_animate_yellow_bug	0	D	2	0	155	0		0	0	58.0512802000158	58.1512585999444
9394.5	0.0999888000078499	56	hunger	stimuli/non_foods\non-food_animate_frog.jpg	1	1	1	non-food_animate_frog	0	M	9	0	113	0		0	0	58.2012829002924	58.3012717003003
9432	0.0999576998874545	57	hunger	stimuli/foods\lasagna.jpg	1	1	1	lasagna	1	F	3	0	71	0		0	0	58.3512971000746	58.451254799962
9469.5	0.0999760003760457	58	hunger	stimuli/foods\potato_and_green_bean_salad.jpg	1	1	1	potato_and_green_bean_salad	1	N	10	0	246	0		0	0	58.5012705000117	58.6012465003878
9507	0.0999557003378868	59	hunger	stimuli/foods\mango.jpg	1	1	1	mango	1	C	1	0	80	0		0	0	58.651282900013	58.7512386003509
9544.5	0.0999839999713004	60	hunger	stimuli/non_foods\non-food_inanimate_guitar.jpg	1	1	1	non-food_inanimate_guitar	0	B	0	0	185	0		0	0	58.8012747000903	58.9012587000616
9582	0.0999821997247636	61	hunger	stimuli/non_foods\non-food_animate_hummingbird.jpg	1	1	1	non-food_animate_hummingbird	0	G	4	0	120	0		0	0	58.9512738003395	59.0512560000643
9619.5	0.0999882998876274	62	hunger	stimuli/non_foods\non-food_inanimate_padlock.jpg	1	1	1	non-food_inanimate_padlock	0	K	7	0	199	0		0	0	59.1012678002007	59.2012561000884
9657	0.0999843999743462	63	hunger	stimuli/non_foods\non-food_animate_porcupine.jpg	1	1	1	non-food_animate_porcupine	0	T	14	0	138	0		0	0	59.2512696003541	59.3512540003285
9694.5	0.0999838002026081	64	hunger	stimuli/foods\grapefruits.jpg	1	1	1	grapefruits	1	Z	18	0	59	0		0	0	59.4012679001316	59.5012517003343
9732	0.0999904996715486	65	hunger	stimuli/non_foods\non-food_animate_snail.jpg	1	1	1	non-food_animate_snail	0	D	2	0	149	0		0	0	59.5512630003504	59.651253500022
9769.5	0.0999926002696157	66	hunger	stimuli/foods\cracker.jpg	1	1	1	cracker	1	W	16	0	38	0		0	0	59.7012575999834	59.801250200253
9807	0.0999825000762939	67	hunger	stimuli/non_foods\non-food_animate_mouse.jpg	1	1	1	non-food_animate_mouse	0	T	14	0	131	0		0	0	59.8512605000287	59.951243000105
9844.5	0.0999874002300203	68	hunger	stimuli/foods\cannoli.jpg	1	1	1	cannoli	1	V	15	0	17	0		0	0	60.0012586000375	60.1012460002676
9882	0.0999187999404967	69	hunger	stimuli/non_foods\non-food_animate_bee.jpg	1	1	1	non-food_animate_bee	0	X	17	0	95	0		0	0	60.151307400316	60.2512262002565
9919.5	0.0999873001128435	70	hunger	stimuli/foods\red_cabbage.jpg	1	1	1	red_cabbage	1	C	1	0	256	0		0	0	60.3012554999441	60.4012428000569
9957	0.0999806001782417	71	hunger	stimuli/non_foods\non-food_animate_student_female.jpg	1	1	1	non-food_animate_student_female	0	T	14	0	151	0		0	0	60.4512505000457	60.551231100224
9994.5	0.0999861001037061	72	hunger	stimuli/foods\lemon_meringue_pie.jpg	1	1	1	lemon_meringue_pie	1	D	2	0	73	0		0	0	60.6012432002462	60.70122930035
10032	0.0999854002147913	73	hunger	stimuli/non_foods\non-food_animate_fox.jpg	1	1	1	non-food_animate_fox	0	P	11	0	112	0		0	0	60.7512443000451	60.8512297002599
10069.5	0.0999934999272227	74	hunger	stimuli/non_foods\non-food_animate_horse.jpg	1	1	1	non-food_animate_horse	0	X	17	0	119	0		0	0	60.9012351003475	61.0012286002748
10107	0.0999866998754442	75	hunger	stimuli/foods\pineapple.jpg	1	1	1	pineapple	1	L	8	0	243	0		0	0	61.0512387002818	61.1512254001573
10144.5	0.100002400111407	76	hunger	stimuli/non_foods\non-food_animate_kangaroo.jpg	1	1	1	non-food_animate_kangaroo	0	B	0	0	122	0		0	0	61.2012362000532	61.3012386001647
10182	0.0999858998693526	77	hunger	stimuli/non_foods\non-food_inanimate_grass.jpg	1	1	1	non-food_inanimate_grass	0	T	14	0	184	0		0	0	61.3512452002615	61.4512311001308
10219.5	0.0999855999834836	78	hunger	stimuli/non_foods\non-food_animate_squirrel.jpg	1	1	1	non-food_animate_squirrel	0	F	3	0	150	0		0	0	61.5012392001227	61.6012248001061
10257	0.0999845000915229	79	hunger	stimuli/non_foods\non-food_animate_dragonfly.jpg	1	1	1	non-food_animate_dragonfly	0	R	12	0	108	0		0	0	61.6512416000478	61.7512261001393
10294.5	0.10003300011158	80	hunger	stimuli/non_foods\non-food_inanimate_bicycle.jpg	1	1	1	non-food_inanimate_bicycle	0	T	14	0	161	0		0	0	61.8012170000002	61.9012500001118
10332	0.0999354999512434	81	hunger	stimuli/foods\lettuce.jpg	1	1	1	lettuce	1	J	6	0	75	0		0	0	61.9512855000794	62.0512210000306
10369.5	0.0999861001037061	82	hunger	stimuli/non_foods\non-food_animate_llama.jpg	1	1	1	non-food_animate_llama	0	G	4	0	127	0		0	0	62.1012359000742	62.2012220001779
10407	0.0999813000671566	83	hunger	stimuli/foods\potatoes.jpg	1	1	1	potatoes	1	R	12	0	248	0		0	0	62.2512345002033	62.3512158002704
10444.5	0.0999862002208829	84	hunger	stimuli/non_foods\non-food_inanimate_suitcase.jpg	1	1	1	non-food_inanimate_suitcase	0	K	7	0	215	0		0	0	62.4012309000827	62.5012171003036
10482	0.0999859999865294	85	hunger	stimuli/foods\ice_cream.jpg	1	1	1	ice_cream	1	R	12	0	68	0		0	0	62.5512226000428	62.6512086000293
10519.5	0.0999855999834836	86	hunger	stimuli/non_foods\non-food_inanimate_button.jpg	1	1	1	non-food_inanimate_button	0	G	4	0	168	0		0	0	62.7012203000486	62.8012059000321
10557	0.0999997002072632	87	hunger	stimuli/foods\minestrone_soup.jpg	1	1	1	minestrone_soup	1	Z	18	0	82	0		0	0	62.8512157001533	62.9512154003605
10594.5	0.0999675998464227	88	hunger	stimuli/non_foods\non-food_animate_ant.jpg	1	1	1	non-food_animate_ant	0	B	0	0	91	0		0	0	63.0012410003692	63.1012086002156
10632	0.0999872996471822	89	hunger	stimuli/non_foods\non-food_inanimate_pine_cone.jpg	1	1	1	non-food_inanimate_pine_cone	0	P	11	0	200	0		0	0	63.1512228003703	63.2512101000175
10669.5	0.0999737000092864	90	hunger	stimuli/foods\omelette.jpg	1	1	1	omelette	1	W	16	0	228	0		0	0	63.3012165003456	63.4011902003549
10707	0.0999823999591172	91	hunger	stimuli/non_foods\non-food_animate_cow.jpg	1	1	1	non-food_animate_cow	0	T	14	0	103	0		0	0	63.4512183000334	63.5512006999925
10744.5	0.100001899991184	92	hunger	stimuli/non_foods\non-food_inanimate_construction_helment.jpg	1	1	1	non-food_inanimate_construction_helment	0	D	2	0	175	0		0	0	63.6012182002887	63.7012201002799
10782	0.099957600235939	93	hunger	stimuli/foods\nectarine.jpg	1	1	1	nectarine	1	P	11	0	87	0		0	0	63.7512370999902	63.8511947002262
10819.5	0.0999878002330661	94	hunger	stimuli/non_foods\non-food_inanimate_fire_extinguisher.jpg	1	1	1	non-food_inanimate_fire_extinguisher	0	O	22	1	181	0		0	0	63.9012051001191	64.0011929003522
10857	0.0999938999302685	95	hunger	stimuli/non_foods\non-food_animate_pigeon.jpg	1	1	1	non-food_animate_pigeon	0	Z	18	0	136	0		0	0	64.0512052001432	64.1511991000734
10894.5	0.0999793997034431	96	hunger	stimuli/non_foods\non-food_animate_lizard.jpg	1	1	1	non-food_animate_lizard	0	C	1	0	126	0		0	0	64.2012098003179	64.3011892000213
10932	0.09997220011428	97	hunger	stimuli/non_foods\non-food_inanimate_skateboard.jpg	1	1	1	non-food_inanimate_skateboard	0	K	7	0	208	1	a	0.443292799871415	1	64.3512142002583	64.4511864003725
10969.5	0.09998709987849	98	hunger	stimuli/foods\clams.jpg	1	1	1	clams	1	F	3	0	32	0		0	0	64.5011972002685	64.601184300147
11007	0.0999851003289223	99	hunger	stimuli/non_foods\non-food_inanimate_soccer_ball.jpg	1	1	1	non-food_inanimate_soccer_ball	0	V	15	0	210	0		0	0	64.6511975000612	64.7511826003902
11044.5	0.0999717996455729	100	hunger	stimuli/non_foods\non-food_inanimate_horn.jpg	1	1	1	non-food_inanimate_horn	0	F	3	0	190	0		0	0	64.8012097002938	64.9011814999394
11082	0.0999845997430384	101	hunger	stimuli/foods\spinach.jpg	1	1	1	spinach	1	D	2	0	268	0		0	0	64.9511939003132	65.0511785000563
11119.5	0.0999775999225676	102	hunger	stimuli/foods\mushroom.jpg	1	1	1	mushroom	1	B	0	0	85	0		0	0	65.1012014001608	65.2011790000834
11157	0.0999887003563344	103	hunger	stimuli/foods\chocolate_pralines.jpg	1	1	1	chocolate_pralines	1	F	3	0	28	0		0	0	65.2511901999824	65.3511789003387
11194.5	0.0999693996272981	104	hunger	stimuli/non_foods\non-food_inanimate_skirt.jpg	1	1	1	non-food_inanimate_skirt	0	X	17	0	209	0		0	0	65.4012025003321	65.5011718999594
11232	0.0999877997674048	105	hunger	stimuli/non_foods\non-food_inanimate_protractor.jpg	1	1	1	non-food_inanimate_protractor	0	W	16	0	201	0		0	0	65.5511914002709	65.6511792000383
11269.5	0.100003700237721	106	hunger	stimuli/foods\gnocchi.jpg	1	1	1	gnocchi	1	T	14	0	58	0		0	0	65.7011649999768	65.8011687002145
11307	0.100023899693042	107	hunger	stimuli/foods\garlic.jpg	1	1	1	garlic	1	D	2	0	56	0		0	0	65.851182800252	65.951206699945
11344.5	0.0999855999834836	108	hunger	stimuli/foods\donut.jpg	1	1	1	donut	1	M	9	0	44	0		0	0	66.0011803000234	66.1011659000069
11382	0.0999825000762939	109	hunger	stimuli/foods\pomegranate.jpg	1	1	1	pomegranate	1	K	7	0	244	0		0	0	66.1511802002788	66.2511627003551
11419.5	0.0999839003197849	110	hunger	stimuli/foods\wafer.jpg	1	1	1	wafer	1	D	2	0	277	0		0	0	66.3011793000624	66.4011632003821
11457	0.0999793000519276	111	hunger	stimuli/non_foods\non-food_inanimate_gloves.jpg	1	1	1	non-food_inanimate_gloves	0	P	11	0	183	0		0	0	66.451177699957	66.551157000009
11494.5	0.0999612999148667	112	hunger	stimuli/foods\lentils.jpg	1	1	1	lentils	1	W	16	0	74	0		0	0	66.6011970001273	66.7011583000422
11532	0.0999930002726614	113	hunger	stimuli/foods\eggplant.jpg	1	1	1	eggplant	1	D	2	0	46	0		0	0	66.7511738999747	66.8511669002473
11569.5	0.0999804004095495	114	hunger	stimuli/non_foods\non-food_animate_young_boy.jpg	1	1	1	non-food_animate_young_boy	0	Z	18	0	156	0		0	0	66.9011536999606	67.0011341003701
11607	0.0999873001128435	115	hunger	stimuli/non_foods\non-food_inanimate_nettle.jpg	1	1	1	non-food_inanimate_nettle	0	B	0	0	197	0		0	0	67.0511774001643	67.1511647002771
11644.5	0.100020500365645	116	hunger	stimuli/non_foods\non-food_inanimate_broom.jpg	1	1	1	non-food_inanimate_broom	0	D	2	0	164	0		0	0	67.2011804999784	67.301201000344
11682	0.0999733000062406	117	hunger	stimuli/foods\baked_cod_with_carrots_and_green_beans.jpg	1	1	1	baked_cod_with_carrots_and_green_beans	1	V	15	0	7	0		0	0	67.3511733002961	67.4511466003023
11719.5	0.0999797000549734	118	hunger	stimuli/non_foods\non-food_inanimate_speakers.jpg	1	1	1	non-food_inanimate_speakers	0	H	5	0	212	0		0	0	67.5011724000797	67.6011521001346
11757	0.0999833000823855	119	hunger	stimuli/non_foods\non-food_inanimate_tulip.jpg	1	1	1	non-food_inanimate_tulip	0	C	1	0	224	0		0	0	67.6511686001904	67.7511519002728
11794.5	0.0999846998602152	120	hunger	stimuli/non_foods\non-food_animate_giraffe.jpg	1	1	1	non-food_animate_giraffe	0	K	7	0	115	0		0	0	67.8011712003499	67.9011559002101
11832	0.0999842002056539	121	hunger	stimuli/non_foods\non-food_animate_tortoise.jpg	1	1	1	non-food_animate_tortoise	0	F	3	0	153	0		0	0	67.9511645999737	68.0511488001794
11869.5	0.0999898002482951	122	hunger	stimuli/non_foods\non-food_inanimate_bowling_ball.jpg	1	1	1	non-food_inanimate_bowling_ball	0	C	1	0	162	0		0	0	68.1011592000723	68.2011490003206
11907	0.0999934999272227	123	hunger	stimuli/foods\museli_bars.jpg	1	1	1	museli_bars	1	R	12	0	84	0		0	0	68.2511635003611	68.3511570002884
11944.5	0.0999811999499798	124	hunger	stimuli/non_foods\non-food_animate_ram.jpg	1	1	1	non-food_animate_ram	0	C	1	0	140	0		0	0	68.4011627002619	68.5011439002119
11982	0.0999831999652088	125	hunger	stimuli/foods\watermelon.jpg	1	1	1	watermelon	1	J	6	0	279	0		0	0	68.5511619001627	68.6511451001279
12019.5	0.0999887003563344	126	hunger	stimuli/foods\blackberry.jpg	1	1	1	blackberry	1	V	15	0	11	0		0	0	68.7011539000086	68.801142600365
12057	0.0999875003471971	127	hunger	stimuli/non_foods\non-food_animate_butterfly.jpg	1	1	1	non-food_animate_butterfly	0	D	2	0	96	0		0	0	68.8511532000266	68.9511407003738
12094.5	0.100009799934924	128	hunger	stimuli/foods\pepperoni_pizza.jpg	1	1	1	pepperoni_pizza	1	Z	18	0	241	0		0	0	69.0011443002149	69.1011541001499
12132	0.0999600999057293	129	hunger	stimuli/foods\grilled_chicken_breast.jpg	1	1	1	grilled_chicken_breast	1	R	12	0	63	0		0	0	69.1511729001068	69.2511330000125
12169.5	0.0999822998419404	130	hunger	stimuli/non_foods\non-food_inanimate_alarm_clock.jpg	1	1	1	non-food_inanimate_alarm_clock	0	T	14	0	158	0		0	0	69.3011536002159	69.4011359000579
12207	0.0999837000854313	131	hunger	stimuli/foods\cupcake.jpg	1	1	1	cupcake	1	M	9	0	42	0		0	0	69.4511470999569	69.5511308000423
12244.5	0.0999822998419404	132	hunger	stimuli/foods\potato_chips.jpg	1	1	1	potato_chips	1	F	3	0	247	0		0	0	69.6011455003172	69.7011278001592
12282	0.0999865001067519	133	hunger	stimuli/foods\risotto_with_peas_and_asparagus_tips.jpg	1	1	1	risotto_with_peas_and_asparagus_tips	1	J	6	0	259	0		0	0	69.7511444999836	69.8511310000904
12319.5	0.0999835003167391	134	hunger	stimuli/foods\smoked_ham.jpg	1	1	1	smoked_ham	1	H	5	0	266	0		0	0	69.9011421999894	70.0011257003061
12357	0.0999817000702024	135	hunger	stimuli/non_foods\non-food_animate_young_girl.jpg	1	1	1	non-food_animate_young_girl	0	D	2	0	157	0		0	0	70.0511431000195	70.1511248000897
12394.5	0.0999687002040446	136	hunger	stimuli/foods\chocolate_bar.jpg	1	1	1	chocolate_bar	1	S	13	0	26	0		0	0	70.2011532001197	70.3011219003238
12432	0.0999852996319532	137	hunger	stimuli/foods\swordfish.jpg	1	1	1	swordfish	1	X	17	0	273	0		0	0	70.351133600343	70.451118899975
12469.5	0.0999847003258765	138	hunger	stimuli/non_foods\non-food_animate_slug.jpg	1	1	1	non-food_animate_slug	0	G	4	0	148	0		0	0	70.5011382000521	70.601122900378
12507	0.0999936000443995	139	hunger	stimuli/non_foods\non-food_animate_duck.jpg	1	1	1	non-food_animate_duck	0	M	9	0	109	0		0	0	70.6511292001233	70.7511228001676
13736.25	0.0999527000822127	140	hunger	stimuli/foods\honey.jpg	1	2	1	honey	1	P	11	0	66	0		0	0	75.5677495002747	75.6677022003569
13773.75	0.0999871999956667	141	hunger	stimuli/foods\hazelnuts.jpg	1	2	1	hazelnuts	1	C	1	0	65	0		0	0	75.7177327000536	75.8177199000493
13811.25	0.099981099832803	142	hunger	stimuli/foods\raw_sausage.jpg	1	2	1	raw_sausage	1	L	8	0	254	0		0	0	75.8677365002222	75.967717600055
13848.75	0.0999942002817988	143	hunger	stimuli/foods\meatballs.jpg	1	2	1	meatballs	1	V	15	0	81	0		0	0	76.0177303999662	76.117724600248
13886.25	0.0999958999454975	144	hunger	stimuli/foods\toasted_bread_with_tomatoes.jpg	1	2	1	toasted_bread_with_tomatoes	1	F	3	0	275	0		0	0	76.167735000141	76.2677309000865
13923.75	0.100003299769014	145	hunger	stimuli/non_foods\non-food_inanimate_stapler.jpg	1	2	1	non-food_inanimate_stapler	0	B	0	0	213	0		0	0	76.3177077001892	76.4177109999582
13961.25	0.0999930999241769	146	hunger	stimuli/foods\egg.jpg	1	2	1	egg	1	H	5	0	45	0		0	0	76.4677262003534	76.5677193002775
13998.75	0.0999818998388946	147	hunger	stimuli/non_foods\non-food_animate_ladybug.jpg	1	2	1	non-food_animate_ladybug	0	R	12	0	124	0		0	0	76.6177271003835	76.7177090002224
14036.25	0.0999924996867776	148	hunger	stimuli/foods\stew_with_potatoes_and_carrots.jpg	1	2	1	stew_with_potatoes_and_carrots	1	B	0	0	271	0		0	0	76.7677235002629	76.8677159999497
14073.75	0.0999952997080982	149	hunger	stimuli/foods\lollies.jpg	1	2	1	lollies	1	Z	18	0	78	1	a	0	0	76.9177168002352	77.0177120999433
14111.25	0.0999811999499798	150	hunger	stimuli/non_foods\non-food_inanimate_lighter.jpg	1	2	1	non-food_inanimate_lighter	0	C	1	0	193	0		0	0	77.067727799993	77.167708999943
14148.75	0.0999878002330661	151	hunger	stimuli/non_foods\non-food_inanimate_table.jpg	1	2	1	non-food_inanimate_table	0	T	14	0	217	0		0	0	77.2177226999775	77.3177105002105
14186.25	0.0999730001203716	152	hunger	stimuli/foods\pasta_carbonara.jpg	1	2	1	pasta_carbonara	1	D	2	0	236	0		0	0	77.3677241001278	77.4676971002482
14223.75	0.0999651001766324	153	hunger	stimuli/foods\raisins.jpg	1	2	1	raisins	1	Z	18	0	252	0		0	0	77.5177287999541	77.6176939001307
14261.25	0.0999953998252749	154	hunger	stimuli/foods\steak.jpg	1	2	1	steak	1	W	16	0	270	0		0	0	77.6677105003037	77.7677059001289
14298.75	0.0999954999424517	155	hunger	stimuli/foods\hamburger.jpg	1	2	1	hamburger	1	P	11	0	64	0		0	0	77.8177038002759	77.9176993002184
14336.25	0.0999858002178371	156	hunger	stimuli/foods\rice.jpg	1	2	1	rice	1	H	5	0	257	0		0	0	77.9677117001265	78.0676975003444
14373.75	0.100023100152612	157	hunger	stimuli/foods\pumpkin.jpg	1	2	1	pumpkin	1	L	8	0	250	0		0	0	78.1177178001963	78.2177409003489
14411.25	0.0999670000746846	158	hunger	stimuli/foods\green_beans.jpg	1	2	1	green_beans	1	X	17	0	61	0		0	0	78.2677266001701	78.3676936002448
14448.75	0.099984799977392	159	hunger	stimuli/non_foods\non-food_animate_baby_crawling.jpg	1	2	1	non-food_animate_baby_crawling	0	R	12	0	92	0		0	0	78.4177092001773	78.5176940001547
14486.25	0.0999819999560714	160	hunger	stimuli/non_foods\non-food_animate_killer_whale.jpg	1	2	1	non-food_animate_killer_whale	0	Z	18	0	123	0		0	0	78.5677085001953	78.6676905001514
14523.75	0.0999875999987125	161	hunger	stimuli/non_foods\non-food_inanimate_bamboo.jpg	1	2	1	non-food_inanimate_bamboo	0	K	7	0	159	0		0	0	78.7177035999484	78.8176911999471
14561.25	0.0999865997582674	162	hunger	stimuli/foods\fruit_flan.jpg	1	2	1	fruit_flan	1	C	1	0	53	0		0	0	78.8677035002038	78.9676900999621
14598.75	0.0999562996439636	163	hunger	stimuli/foods\fried_calamari.jpg	1	2	1	fried_calamari	1	G	4	0	50	0		0	0	79.0177025003359	79.1176587999798
14636.25	0.0999859999865294	164	hunger	stimuli/non_foods\non-food_animate_deer.jpg	1	2	1	non-food_animate_deer	0	K	7	0	105	0		0	0	79.1676895003766	79.2676755003631
14673.75	0.0999698997475207	165	hunger	stimuli/non_foods\non-food_inanimate_fern.jpg	1	2	1	non-food_inanimate_fern	0	M	9	0	180	0		0	0	79.3177166003734	79.4176865001209
14711.25	0.0999833000823855	166	hunger	stimuli/foods\taco.jpg	1	2	1	taco	1	L	8	0	274	0		0	0	79.4676979002543	79.5676812003367
14748.75	0.0999720003455877	167	hunger	stimuli/non_foods\non-food_animate_clown.jpg	1	2	1	non-food_animate_clown	0	R	12	0	102	0		0	0	79.617699699942	79.7176717002876
14786.25	0.099991699680686	168	hunger	stimuli/non_foods\non-food_inanimate_chair.jpg	1	2	1	non-food_inanimate_chair	0	S	13	0	172	0		0	0	79.7676854003221	79.8676771000028
14823.75	0.0999664999544621	169	hunger	stimuli/foods\artichoke.jpg	1	2	1	artichoke	1	G	4	0	3	0		0	0	79.9177008001134	80.0176673000678
14861.25	0.0999476998113096	170	hunger	stimuli/foods\oven-roasted_tomatoes.jpg	1	2	1	oven-roasted_tomatoes	1	K	7	0	232	0		0	0	80.0677186003886	80.1676663001999
14898.75	0.0999814001843333	171	hunger	stimuli/non_foods\non-food_animate_monkey.jpg	1	2	1	non-food_animate_monkey	0	M	9	0	130	0		0	0	80.2176806000061	80.3176620001905
14936.25	0.0999762997962534	172	hunger	stimuli/foods\cauliflower.jpg	1	2	1	cauliflower	1	F	3	0	20	0		0	0	80.3676802003756	80.4676565001719
14973.75	0.0999743998982012	173	hunger	stimuli/non_foods\non-food_inanimate_nest.jpg	1	2	1	non-food_inanimate_nest	0	J	6	0	196	0		0	0	80.5176862003282	80.6176606002264
15011.25	0.0999818998388946	174	hunger	stimuli/foods\lime.jpg	1	2	1	lime	1	V	15	0	76	0		0	0	80.6676768003963	80.7676587002352
15048.75	0.0999849997460842	175	hunger	stimuli/non_foods\non-food_animate_donkey.jpg	1	2	1	non-food_animate_donkey	0	T	14	0	107	0		0	0	80.8176717003807	80.9176567001268
15086.25	0.0999996000900865	176	hunger	stimuli/foods\apple.jpg	1	2	1	apple	1	H	5	0	1	0		0	0	80.9676612000912	81.0676608001813
15123.75	0.0999616999179125	177	hunger	stimuli/non_foods\non-food_inanimate_cactus_pot_plant.jpg	1	2	1	non-food_inanimate_cactus_pot_plant	0	S	13	0	169	0		0	0	81.1176971001551	81.217658800073
15161.25	0.0999862002208829	178	hunger	stimuli/non_foods\non-food_inanimate_tree.jpg	1	2	1	non-food_inanimate_tree	0	R	12	0	223	0		0	0	81.2676748000085	81.3676610002294
15198.75	0.0999831999652088	179	hunger	stimuli/foods\cabbage.jpg	1	2	1	cabbage	1	D	2	0	16	0		0	0	81.4176731002517	81.5176563002169
15236.25	0.0999905001372099	180	hunger	stimuli/foods\kiwi.jpg	1	2	1	kiwi	1	R	12	0	69	0		0	0	81.5676703001373	81.6676608002745
15273.75	0.0999778998084366	181	hunger	stimuli/non_foods\non-food_inanimate_bed.jpg	1	2	1	non-food_inanimate_bed	0	H	5	0	160	0		0	0	81.7176797003485	81.817657600157
15311.25	0.0999730997718871	182	hunger	stimuli/non_foods\non-food_animate_cat.jpg	1	2	1	non-food_animate_cat	0	V	15	0	98	0		0	0	81.8676897003315	81.9676628001034
15348.75	0.0999821000732481	183	hunger	stimuli/foods\baked_lamb_with_potatoes.jpg	1	2	1	baked_lamb_with_potatoes	1	F	3	0	8	0		0	0	82.0176686001942	82.1176507002674
15386.25	0.0999829000793397	184	hunger	stimuli/non_foods\non-food_animate_polar_bear.jpg	1	2	1	non-food_animate_polar_bear	0	N	10	0	137	0		0	0	82.1676647001877	82.2676476002671
15423.75	0.0999850002117455	185	hunger	stimuli/non_foods\non-food_animate_gorilla.jpg	1	2	1	non-food_animate_gorilla	0	S	13	0	116	0		0	0	82.3176613999531	82.4176464001648
15461.25	0.0999834998510778	186	hunger	stimuli/non_foods\non-food_animate_Asian_man.jpg	1	2	1	non-food_animate_Asian_man	0	F	3	0	88	0		0	0	82.4676626003347	82.5676461001858
15498.75	0.0999840996228158	187	hunger	stimuli/non_foods\non-food_inanimate_hammer.jpg	1	2	1	non-food_inanimate_hammer	0	L	8	0	186	0		0	0	82.6176595003344	82.7176435999572
15536.25	0.100026000291109	188	hunger	stimuli/non_foods\non-food_inanimate_rack.jpg	1	2	1	non-food_inanimate_rack	0	P	11	0	202	0		0	0	82.7676562000997	82.8676822003908
15573.75	0.0999586000107229	189	hunger	stimuli/non_foods\non-food_inanimate_desk.jpg	1	2	1	non-food_inanimate_desk	0	F	3	0	178	0		0	0	82.9176642000675	83.0176228000782
15611.25	0.0999849000945687	190	hunger	stimuli/foods\red_beans.jpg	1	2	1	red_beans	1	B	0	0	255	0		0	0	83.0676540001296	83.1676389002241
15648.75	0.0999835999682546	191	hunger	stimuli/non_foods\non-food_inanimate_headphones.jpg	1	2	1	non-food_inanimate_headphones	0	S	13	0	188	0		0	0	83.2176542002708	83.317637800239
15686.25	0.0999869001097977	192	hunger	stimuli/foods\papaya.jpg	1	2	1	papaya	1	X	17	0	235	0		0	0	83.3676525000483	83.4676394001581
15723.75	0.0999741000123322	193	hunger	stimuli/foods\raw_ham.jpg	1	2	1	raw_ham	1	L	8	0	253	0		0	0	83.5176588003524	83.6176329003647
15761.25	0.0999831999652088	194	hunger	stimuli/non_foods\non-food_animate_seahorse.jpg	1	2	1	non-food_animate_seahorse	0	F	3	0	145	0		0	0	83.6676464001648	83.76762960013
15798.75	0.0999815999530256	195	hunger	stimuli/non_foods\non-food_inanimate_toy_airplane.jpg	1	2	1	non-food_inanimate_toy_airplane	0	J	6	0	222	0		0	0	83.8176470003091	83.9176286002621
15836.25	0.0999822001904249	196	hunger	stimuli/foods\rice_cake.jpg	1	2	1	rice_cake	1	B	0	0	258	0		0	0	83.9676455999725	84.0676278001629
15873.75	0.0999799999408424	197	hunger	stimuli/non_foods\non-food_animate_swan.jpg	1	2	1	non-food_animate_swan	0	N	10	0	152	0		0	0	84.1176476003602	84.2176276003011
15911.25	0.099984799977392	198	hunger	stimuli/foods\broccoli.jpg	1	2	1	broccoli	1	K	7	0	13	0		0	0	84.2676393003203	84.3676241002977
15948.75	0.0999825997278094	199	hunger	stimuli/non_foods\non-food_inanimate_socks.jpg	1	2	1	non-food_inanimate_socks	0	Z	18	0	211	0		0	0	84.4176386003383	84.5176212000661
15986.25	0.100009300280362	200	hunger	stimuli/non_foods\non-food_animate_cheetah.jpg	1	2	1	non-food_animate_cheetah	0	E	20	1	100	1	a	-0.00639439979568124	1	84.5676351999864	84.6676445002668
16023.75	0.0999875999987125	201	hunger	stimuli/non_foods\non-food_inanimate_ring.jpg	1	2	1	non-food_inanimate_ring	0	S	13	0	203	0		0	0	84.7176326001063	84.817620200105
16061.25	0.100002999883145	202	hunger	stimuli/foods\banana.jpg	1	2	1	banana	1	K	7	0	9	0		0	0	84.8676076000556	84.9676105999388
16098.75	0.0999878998845816	203	hunger	stimuli/foods\capsicum.jpg	1	2	1	capsicum	1	S	13	0	18	0		0	0	85.0176245002076	85.1176124000922
16136.25	0.0999914002604783	204	hunger	stimuli/foods\apricot.jpg	1	2	1	apricot	1	B	0	0	2	0		0	0	85.1676326999441	85.2676241002046
16173.75	0.0999636999331415	205	hunger	stimuli/foods\celery.jpg	1	2	1	celery	1	D	2	0	21	0		0	0	85.3176478003152	85.4176115002483
16211.25	0.0999843999743462	206	hunger	stimuli/non_foods\non-food_inanimate_cupboard.jpg	1	2	1	non-food_inanimate_cupboard	0	W	16	0	177	0		0	0	85.4676255001687	85.567609900143
16248.75	0.0999842998571694	207	hunger	stimuli/foods\strawberry.jpg	1	2	1	strawberry	1	T	14	0	272	0		0	0	85.6176237002946	85.7176080001518
16286.25	0.0999886002391577	208	hunger	stimuli/non_foods\non-food_animate_Causasian_man.jpg	1	2	1	non-food_animate_Causasian_man	0	D	2	0	89	0		0	0	85.767622299958	85.8676109001972
16323.75	0.0999699998646975	209	hunger	stimuli/foods\chocolate_chip_cookies.jpg	1	2	1	chocolate_chip_cookies	1	K	7	0	27	0		0	0	85.9176348000765	86.0176047999412
16361.25	0.0999835999682546	210	hunger	stimuli/foods\oyster.jpg	1	2	1	oyster	1	T	14	0	233	0		0	0	86.067618300207	86.1676019001752
16398.75	0.0999854002147913	211	hunger	stimuli/foods\coffee_beans.jpg	1	2	1	coffee_beans	1	K	7	0	34	0		0	0	86.2176163000986	86.3176017003134
16436.25	0.0999802998267114	212	hunger	stimuli/foods\peas.jpg	1	2	1	peas	1	L	8	0	240	0		0	0	86.3676160001196	86.4675962999463
16473.75	0.099984799977392	213	hunger	stimuli/foods\pear.jpg	1	2	1	pear	1	G	4	0	239	0		0	0	86.5176121001132	86.6175969000906
16511.25	0.0999825000762939	214	hunger	stimuli/foods\fennel.jpg	1	2	1	fennel	1	L	8	0	47	0		0	0	86.6676125000231	86.7675950000994
16548.75	0.100005100015551	215	hunger	stimuli/foods\chilli.jpg	1	2	1	chilli	1	S	13	0	25	0		0	0	86.8176104002632	86.9176155002788
16586.25	0.0999666000716388	216	hunger	stimuli/foods\waffle.jpg	1	2	1	waffle	1	W	16	0	278	0		0	0	86.9676125003025	87.0675791003741
16623.75	0.0999329998157918	217	hunger	stimuli/non_foods\non-food_inanimate_watering_can.jpg	1	2	1	non-food_inanimate_watering_can	0	B	0	0	225	0		0	0	87.1176578002051	87.2175908000208
16661.25	0.0999813000671566	218	hunger	stimuli/foods\almonds.jpg	1	2	1	almonds	1	W	16	0	0	0		0	0	87.2676053000614	87.3675866001286
16698.75	0.0999889997765422	219	hunger	stimuli/foods\dates.jpg	1	2	1	dates	1	M	9	0	43	0		0	0	87.4176009004004	87.517589900177
16736.25	0.0999808004125953	220	hunger	stimuli/foods\asparagus.jpg	1	2	1	asparagus	1	K	7	0	4	0		0	0	87.567602599971	87.6675834003836
16773.75	0.099985200446099	221	hunger	stimuli/non_foods\non-food_animate_baby_sitting.jpg	1	2	1	non-food_animate_baby_sitting	0	S	13	0	93	0		0	0	87.7175974999554	87.8175827004015
16811.25	0.0999838002026081	222	hunger	stimuli/non_foods\non-food_animate_eagle.jpg	1	2	1	non-food_animate_eagle	0	Z	18	0	110	0		0	0	87.8675993001089	87.9675831003115
16848.75	0.099985099863261	223	hunger	stimuli/non_foods\non-food_inanimate_bucket.jpg	1	2	1	non-food_inanimate_bucket	0	G	4	0	165	0		0	0	88.0175964003429	88.1175815002061
16886.25	0.0999829000793397	224	hunger	stimuli/non_foods\non-food_animate_raccoon.jpg	1	2	1	non-food_animate_raccoon	0	V	15	0	139	0		0	0	88.1676125000231	88.2675954001024
16923.75	0.0999817000702024	225	hunger	stimuli/foods\lemon.jpg	1	2	1	lemon	1	R	12	0	72	0		0	0	88.3175951000303	88.4175768001005
16961.25	0.0999860996380448	226	hunger	stimuli/foods\beetroots.jpg	1	2	1	beetroots	1	A	19	1	10	0		0	0	88.4675907003693	88.5675768000074
16998.75	0.0999881001189351	227	hunger	stimuli/foods\brie.jpg	1	2	1	brie	1	H	5	0	12	0		0	0	88.6175847002305	88.7175728003494
17036.25	0.100004999898374	228	hunger	stimuli/foods\spaghetti_with_meat_sauce.jpg	1	2	1	spaghetti_with_meat_sauce	1	L	8	0	267	0		0	0	88.767589900177	88.8675949000753
17073.75	0.0999696003273129	229	hunger	stimuli/foods\cream_donuts.jpg	1	2	1	cream_donuts	1	W	16	0	39	0		0	0	88.9176092999987	89.017578900326
17111.25	0.099957600235939	230	hunger	stimuli/foods\fruit_salad.jpg	1	2	1	fruit_salad	1	R	12	0	55	1	a	0.691827799659222	1	89.0675862999633	89.1675439001992
17148.75	0.099984799977392	231	hunger	stimuli/foods\radish.jpg	1	2	1	radish	1	H	5	0	251	0		0	0	89.2175818001851	89.3175666001625
17186.25	0.0999857001006603	232	hunger	stimuli/non_foods\non-food_inanimate_wrench.jpg	1	2	1	non-food_inanimate_wrench	0	P	11	0	227	0		0	0	89.3675782000646	89.4675639001653
17223.75	0.0999555001035333	233	hunger	stimuli/foods\green_olives.jpg	1	2	1	green_olives	1	V	15	0	62	0		0	0	89.5175787000917	89.6175342001952
17261.25	0.0999866998754442	234	hunger	stimuli/non_foods\non-food_inanimate_cap.jpg	1	2	1	non-food_inanimate_cap	0	C	1	0	171	0		0	0	89.6675669001415	89.767553600017
17298.75	0.0999798001721501	235	hunger	stimuli/non_foods\non-food_inanimate_nailpolish.jpg	1	2	1	non-food_inanimate_nailpolish	0	F	3	0	195	0		0	0	89.8175801001489	89.9175599003211
17336.25	0.0999692999757826	236	hunger	stimuli/foods\hotdog.jpg	1	2	1	hotdog	1	H	5	0	67	0		0	0	89.9675865001045	90.0675558000803
17373.75	0.0999817997217178	237	hunger	stimuli/non_foods\non-food_inanimate_teddy_bear.jpg	1	2	1	non-food_inanimate_teddy_bear	0	P	11	0	218	0		0	0	90.1175732002594	90.2175549999811
17411.25	0.0999841000884771	238	hunger	stimuli/non_foods\non-food_inanimate_stoplight.jpg	1	2	1	non-food_inanimate_stoplight	0	V	15	0	214	0		0	0	90.2675687000155	90.367552800104
17448.75	0.0999854002147913	239	hunger	stimuli/non_foods\non-food_animate_skunk.jpg	1	2	1	non-food_animate_skunk	0	N	10	0	147	0		0	0	90.4175664000213	90.5175518002361
17486.25	0.0999759002588689	240	hunger	stimuli/non_foods\non-food_inanimate_highlighter.jpg	1	2	1	non-food_inanimate_highlighter	0	Z	18	0	189	0		0	0	90.5675780000165	90.6675539002754
17523.75	0.0999990999698639	241	hunger	stimuli/non_foods\non-food_inanimate_buds.jpg	1	2	1	non-food_inanimate_buds	0	I	21	1	166	0		0	0	90.7175499000587	90.8175490000285
17561.25	0.0999857001006603	242	hunger	stimuli/non_foods\non-food_animate_parrot.jpg	1	2	1	non-food_animate_parrot	0	C	1	0	133	0		0	0	90.8675621999428	90.9675479000434
17598.75	0.0999849000945687	243	hunger	stimuli/foods\lamb_chops.jpg	1	2	1	lamb_chops	1	X	17	0	70	0		0	0	91.0175586002879	91.1175435003825
17636.25	0.0999837000854313	244	hunger	stimuli/non_foods\non-food_inanimate_moss.jpg	1	2	1	non-food_inanimate_moss	0	Z	18	0	194	1	a	0.556426700204611	1	91.1675583003089	91.2675420003943
17673.75	0.0999848996289074	245	hunger	stimuli/non_foods\non-food_inanimate_tent.jpg	1	2	1	non-food_inanimate_tent	0	W	16	0	219	0		0	0	91.3175568003207	91.4175416999497
17711.25	0.0999802998267114	246	hunger	stimuli/foods\onion.jpg	1	2	1	onion	1	T	14	0	229	0		0	0	91.467558500357	91.5675388001837
17748.75	0.0999881001189351	247	hunger	stimuli/foods\cherry.jpg	1	2	1	cherry	1	R	12	0	23	0		0	0	91.6175548001193	91.7175429002382
17786.25	0.099980799946934	248	hunger	stimuli/non_foods\non-food_animate_mammoth.jpg	1	2	1	non-food_animate_mammoth	0	P	11	0	128	0		0	0	91.7675571003929	91.8675379003398
17823.75	0.0999853000976145	249	hunger	stimuli/non_foods\non-food_animate_woman.jpg	1	2	1	non-food_animate_woman	0	R	12	0	154	0		0	0	91.9175506001338	92.0175359002315
17861.25	0.0999819999560714	250	hunger	stimuli/non_foods\non-food_inanimate_bush.jpg	1	2	1	non-food_inanimate_bush	0	D	2	0	167	0		0	0	92.0675510000437	92.1675329999998
17898.75	0.0999813000671566	251	hunger	stimuli/non_foods\non-food_inanimate_short_sleeved_shirt.jpg	1	2	1	non-food_inanimate_short_sleeved_shirt	0	P	11	0	207	0		0	0	92.2175471000373	92.3175284001045
17936.25	0.0999809000641108	252	hunger	stimuli/non_foods\non-food_animate_rhino.jpg	1	2	1	non-food_animate_rhino	0	X	17	0	141	0		0	0	92.367550900206	92.4675318002701
17973.75	0.0999931003898382	253	hunger	stimuli/foods\bagel.jpg	1	2	1	bagel	1	V	15	0	6	0		0	0	92.5175332999788	92.6175264003687
18011.25	0.0999495997093618	254	hunger	stimuli/non_foods\non-food_inanimate_sun_flower.jpg	1	2	1	non-food_inanimate_sun_flower	0	D	2	0	216	0		0	0	92.6675659003668	92.7675155000761
18048.75	0.0999705996364355	255	hunger	stimuli/non_foods\non-food_inanimate_hay.jpg	1	2	1	non-food_inanimate_hay	0	W	16	0	187	0		0	0	92.8175445003435	92.9175150999799
18086.25	0.0999806001782417	256	hunger	stimuli/foods\ginger_root.jpg	1	2	1	ginger_root	1	G	4	0	57	0		0	0	92.9675324000418	93.0675130002201
18123.75	0.0999891003593802	257	hunger	stimuli/non_foods\non-food_inanimate_shell.jpg	1	2	1	non-food_inanimate_shell	0	P	11	0	206	0		0	0	93.1175261000171	93.2175152003765
18161.25	0.0999994999729097	258	hunger	stimuli/non_foods\non-food_inanimate_towel.jpg	1	2	1	non-food_inanimate_towel	0	Z	18	0	221	0		0	0	93.2675163000822	93.3675158000551
18198.75	0.0999817000702024	259	hunger	stimuli/non_foods\non-food_animate_runner.jpg	1	2	1	non-food_animate_runner	0	O	22	1	142	0		0	0	93.417533100117	93.5175148001872
18236.25	0.0999541003257036	260	hunger	stimuli/foods\pickles.jpg	1	2	1	pickles	1	P	11	0	242	0		0	0	93.5675526000559	93.6675067003816
18273.75	0.0999807002954185	261	hunger	stimuli/foods\pea_pod.jpg	1	2	1	pea_pod	1	N	10	0	237	0		0	0	93.7175263999961	93.8175071002916
18311.25	0.0999875999987125	262	hunger	stimuli/foods\cooked_prawn.jpg	1	2	1	cooked_prawn	1	C	1	0	36	0		0	0	93.8675174000673	93.967505000066
18348.75	0.0999843999743462	263	hunger	stimuli/non_foods\non-food_animate_green_bug.jpg	1	2	1	non-food_animate_green_bug	0	B	0	0	118	1	a	0.59335510013625	1	94.0175228002481	94.1175072002225
18386.25	0.100003000348806	264	hunger	stimuli/non_foods\non-food_inanimate_rope.jpg	1	2	1	non-food_inanimate_rope	0	J	6	0	204	0		0	0	94.1675110999495	94.2675141002983
18423.75	0.0999781000427902	265	hunger	stimuli/foods\grapes.jpg	1	2	1	grapes	1	V	15	0	60	0		0	0	94.3175216000527	94.4174997000955
18461.25	0.0999840996228158	266	hunger	stimuli/foods\chocolate_pudding.jpg	1	2	1	chocolate_pudding	1	L	8	0	29	0		0	0	94.4675096003339	94.5674936999567
18498.75	0.0999789000488818	267	hunger	stimuli/non_foods\non-food_animate_sea_turtle.jpg	1	2	1	non-food_animate_sea_turtle	0	W	16	0	144	0		0	0	94.6175088002346	94.7174877002835
18536.25	0.0999855999834836	268	hunger	stimuli/non_foods\non-food_inanimate_toilet.jpg	1	2	1	non-food_inanimate_toilet	0	G	4	0	220	0		0	0	94.7675100001507	94.8674956001341
18573.75	0.0999796995893121	269	hunger	stimuli/non_foods\non-food_inanimate_chandelier.jpg	1	2	1	non-food_inanimate_chandelier	0	D	2	0	173	0		0	0	94.9175071003847	95.017486799974
18611.25	0.100005100015551	270	hunger	stimuli/foods\salmon.jpg	1	2	1	salmon	1	M	9	0	264	0		0	0	95.0674952003174	95.1675003003329
18648.75	0.100004200357944	271	hunger	stimuli/non_foods\non-food_inanimate_waterlily.jpg	1	2	1	non-food_inanimate_waterlily	0	C	1	0	226	0		0	0	95.2175125000067	95.3175167003646
18686.25	0.0999716999940574	272	hunger	stimuli/foods\cinnamon_sroll.jpg	1	2	1	cinnamon_sroll	1	G	4	0	31	0		0	0	95.3675242001191	95.4674959001131
18723.75	0.0999833000823855	273	hunger	stimuli/non_foods\non-food_inanimate_couch.jpg	1	2	1	non-food_inanimate_couch	0	F	3	0	176	0		0	0	95.5175067000091	95.6174900000915
18761.25	0.0999888000078499	274	hunger	stimuli/foods\peach.jpg	1	2	1	peach	1	J	6	0	238	0		0	0	95.6675031003542	95.7674919003621
18798.75	0.0999950999394059	275	hunger	stimuli/non_foods\non-food_inanimate_orchid.jpg	1	2	1	non-food_inanimate_orchid	0	C	1	0	198	0		0	0	95.8175042001531	95.9174993000925
18836.25	0.0999409002251923	276	hunger	stimuli/non_foods\non-food_animate_dolphin.jpg	1	2	1	non-food_animate_dolphin	0	H	5	0	106	0		0	0	95.9675308000296	96.0674717002548
18873.75	0.099997699726373	277	hunger	stimuli/foods\croissant.jpg	1	2	1	croissant	1	P	11	0	40	0		0	0	96.1174906003289	96.2174883000553
18911.25	0.0999811999499798	278	hunger	stimuli/non_foods\non-food_animate_dachshund.jpg	1	2	1	non-food_animate_dachshund	0	C	1	0	104	0		0	0	96.2675021002069	96.3674833001569
18948.75	0.099985099863261	279	hunger	stimuli/non_foods\non-food_animate_seal.jpg	1	2	1	non-food_animate_seal	0	Z	18	0	146	0		0	0	96.4174987003207	96.517483800184
19532	0.0999566996470094	280	hunger	stimuli/foods\raw_sausage.jpg	1	3	1	raw_sausage	1	X	17	0	254	0		0	0	98.7508317003958	98.8507884000428
19569.5	0.0999831003136933	281	hunger	stimuli/non_foods\non-food_animate_alligator.jpg	1	3	1	non-food_animate_alligator	0	L	8	0	90	0		0	0	98.9008005000651	99.0007836003788
19607	0.0999837000854313	282	hunger	stimuli/foods\brussel_sprouts.jpg	1	3	1	brussel_sprouts	1	H	5	0	15	0		0	0	99.0508007002063	99.1507844002917
19644.5	0.0999815003015101	283	hunger	stimuli/foods\orange.jpg	1	3	1	orange	1	L	8	0	230	0		0	0	99.200799100101	99.3007806004025
19682	0.100024099927396	284	hunger	stimuli/foods\prawn.jpg	1	3	1	prawn	1	J	6	0	249	0		0	0	99.3508027000353	99.4508267999627
19719.5	0.0999600999057293	285	hunger	stimuli/foods\cupcake.jpg	1	3	1	cupcake	1	R	12	0	42	1	a	0	0	99.500818700064	99.6007787999697
19757	0.0999842002056539	286	hunger	stimuli/foods\ginger_root.jpg	1	3	1	ginger_root	1	C	1	0	57	0		0	0	99.6507843001746	99.7507685003802
19794.5	0.0999897001311183	287	hunger	stimuli/non_foods\non-food_animate_kangaroo.jpg	1	3	1	non-food_animate_kangaroo	0	P	11	0	122	0		0	0	99.8007972999476	99.9007870000787
19832	0.0999961998313665	288	hunger	stimuli/non_foods\non-food_animate_cat.jpg	1	3	1	non-food_animate_cat	0	C	1	0	98	0		0	0	99.9507778002881	100.050774000119
19869.5	0.0999874002300203	289	hunger	stimuli/foods\pumpkin.jpg	1	3	1	pumpkin	1	H	5	0	250	0		0	0	100.100773800164	100.200761200394
19907	0.0999825997278094	290	hunger	stimuli/non_foods\non-food_inanimate_skateboard.jpg	1	3	1	non-food_inanimate_skateboard	0	M	9	0	208	0		0	0	100.250777600333	100.350760200061
19944.5	0.0999851003289223	291	hunger	stimuli/foods\dates.jpg	1	3	1	dates	1	H	5	0	43	0		0	0	100.40077539999	100.500760500319
19982	0.099964200053364	292	hunger	stimuli/foods\fruit_pie.jpg	1	3	1	fruit_pie	1	X	17	0	54	0		0	0	100.550787799992	100.650752000045
20019.5	0.100005100015551	293	hunger	stimuli/non_foods\non-food_inanimate_hay.jpg	1	3	1	non-food_inanimate_hay	0	F	3	0	187	0		0	0	100.700759400148	100.800764500163
20057	0.0999834998510778	294	hunger	stimuli/non_foods\non-food_inanimate_sun_flower.jpg	1	3	1	non-food_inanimate_sun_flower	0	J	6	0	216	0		0	0	100.850781400222	100.950764900073
20094.5	0.0999825997278094	295	hunger	stimuli/non_foods\non-food_inanimate_nailpolish.jpg	1	3	1	non-food_inanimate_nailpolish	0	B	0	0	195	0		0	0	101.000777500216	101.100760099944
20132	0.100006300024688	296	hunger	stimuli/non_foods\non-food_animate_raccoon.jpg	1	3	1	non-food_animate_raccoon	0	S	13	0	139	0		0	0	101.150757200085	101.250763500109
20169.5	0.0999749000184238	297	hunger	stimuli/non_foods\non-food_animate_donkey.jpg	1	3	1	non-food_animate_donkey	0	W	16	0	107	0		0	0	101.300784199964	101.400759099983
20207	0.099982799962163	298	hunger	stimuli/foods\nectarine.jpg	1	3	1	nectarine	1	R	12	0	87	0		0	0	101.450774100143	101.550756900106
20244.5	0.0999683002009988	299	hunger	stimuli/foods\meatballs.jpg	1	3	1	meatballs	1	J	6	0	81	0		0	0	101.600774200168	101.700742500369
20282	0.0999826001934707	300	hunger	stimuli/non_foods\non-food_animate_runner.jpg	1	3	1	non-food_animate_runner	0	K	7	0	142	0		0	0	101.750761399977	101.85074400017
20319.5	0.0999865001067519	301	hunger	stimuli/non_foods\non-food_inanimate_pine_cone.jpg	1	3	1	non-food_inanimate_pine_cone	0	D	2	0	200	0		0	0	101.900757300202	102.000743800309
20357	0.0999941998161376	302	hunger	stimuli/foods\cannoli.jpg	1	3	1	cannoli	1	L	8	0	17	0		0	0	102.050756300334	102.15075050015
20394.5	0.0999819999560714	303	hunger	stimuli/non_foods\non-food_animate_bat.jpg	1	3	1	non-food_animate_bat	0	P	11	0	94	0		0	0	102.200765400194	102.30074740015
20432	0.0999857001006603	304	hunger	stimuli/non_foods\non-food_inanimate_hammer.jpg	1	3	1	non-food_inanimate_hammer	0	R	12	0	186	0		0	0	102.350757000037	102.450742700137
20469.5	0.0999978999607265	305	hunger	stimuli/non_foods\non-food_inanimate_stapler.jpg	1	3	1	non-food_inanimate_stapler	0	H	5	0	213	0		0	0	102.500739100389	102.60073700035
20507	0.099980799946934	306	hunger	stimuli/foods\pasta_carbonara.jpg	1	3	1	pasta_carbonara	1	G	4	0	236	0		0	0	102.650761000346	102.750741800293
20544.5	0.0999922999180853	307	hunger	stimuli/non_foods\non-food_inanimate_button.jpg	1	3	1	non-food_inanimate_button	0	W	16	0	168	0		0	0	102.800731600262	102.90072390018
20582	0.0999672999605536	308	hunger	stimuli/non_foods\non-food_animate_sea_lion.jpg	1	3	1	non-food_animate_sea_lion	0	M	9	0	143	0		0	0	102.95077320002	103.050740499981
20619.5	0.0999834001995623	309	hunger	stimuli/non_foods\non-food_inanimate_watering_can.jpg	1	3	1	non-food_inanimate_watering_can	0	J	6	0	225	0		0	0	103.100752300117	103.200735700317
20657	0.0999866998754442	310	hunger	stimuli/non_foods\non-food_inanimate_fern.jpg	1	3	1	non-food_inanimate_fern	0	D	2	0	180	0		0	0	103.250748200342	103.350734900218
20694.5	0.0999822001904249	311	hunger	stimuli/non_foods\non-food_animate_german_shepherd.jpg	1	3	1	non-food_animate_german_shepherd	0	H	5	0	114	0		0	0	103.400743599981	103.500725800171
20732	0.0999869997613132	312	hunger	stimuli/foods\gnocchi.jpg	1	3	1	gnocchi	1	W	16	0	58	0		0	0	103.550746000372	103.650733000133
20769.5	0.0999909997917712	313	hunger	stimuli/non_foods\non-food_animate_rhino.jpg	1	3	1	non-food_animate_rhino	0	F	3	0	141	0		0	0	103.700743200257	103.800734200049
20807	0.0999758001416922	314	hunger	stimuli/non_foods\non-food_inanimate_rope.jpg	1	3	1	non-food_inanimate_rope	0	C	1	0	204	0		0	0	103.850744800176	103.950720600318
20844.5	0.0999835999682546	315	hunger	stimuli/non_foods\non-food_animate_baby_crawling.jpg	1	3	1	non-food_animate_baby_crawling	0	V	15	0	92	0		0	0	104.000735900365	104.100719500333
20882	0.0999837000854313	316	hunger	stimuli/non_foods\non-food_animate_penguin.jpg	1	3	1	non-food_animate_penguin	0	C	1	0	135	0		0	0	104.150735400151	104.250719100237
20919.5	0.0999840996228158	317	hunger	stimuli/foods\cabbage.jpg	1	3	1	cabbage	1	M	9	0	16	0		0	0	104.300732100382	104.400716200005
20957	0.0999716999940574	318	hunger	stimuli/foods\chestnut.jpg	1	3	1	chestnut	1	D	2	0	24	0		0	0	104.45073090028	104.550702600274
20994.5	0.0999854998663068	319	hunger	stimuli/non_foods\non-food_animate_camel.jpg	1	3	1	non-food_animate_camel	0	K	7	0	97	0		0	0	104.600736200344	104.70072170021
21032	0.099991699680686	320	hunger	stimuli/non_foods\non-food_inanimate_ring.jpg	1	3	1	non-food_inanimate_ring	0	B	0	0	203	0		0	0	104.750746200327	104.850737900008
21069.5	0.0999791002832353	321	hunger	stimuli/foods\tomato.jpg	1	3	1	tomato	1	Z	18	0	276	0		0	0	104.900726499967	105.000705600251
21107	0.0999848996289074	322	hunger	stimuli/foods\mussels.jpg	1	3	1	mussels	1	S	13	0	86	0		0	0	105.050718600396	105.150703500025
21144.5	0.0999705996364355	323	hunger	stimuli/non_foods\non-food_animate_snail.jpg	1	3	1	non-food_animate_snail	0	Z	18	0	149	0		0	0	105.200734100305	105.300704699941
21182	0.0999816004186869	324	hunger	stimuli/foods\lemon.jpg	1	3	1	lemon	1	J	6	0	72	0		0	0	105.350719199982	105.4507008004
21219.5	0.0999839003197849	325	hunger	stimuli/non_foods\non-food_animate_swan.jpg	1	3	1	non-food_animate_swan	0	F	3	0	152	0		0	0	105.500722100027	105.600706000347
21257	0.10000400012359	326	hunger	stimuli/foods\chocolate_bar.jpg	1	3	1	chocolate_bar	1	H	5	0	26	0		0	0	105.650705200154	105.750709200278
21294.5	0.0999991996213794	327	hunger	stimuli/foods\corncob.jpg	1	3	1	corncob	1	N	10	0	37	0		0	0	105.800719400402	105.900718600024
21332	0.0999756003729999	328	hunger	stimuli/non_foods\non-food_inanimate_rack.jpg	1	3	1	non-food_inanimate_rack	0	E	20	1	202	0		0	0	105.950719899964	106.050695500337
21369.5	0.0999734001234174	329	hunger	stimuli/foods\pancakes.jpg	1	3	1	pancakes	1	T	14	0	234	0		0	0	106.100712300278	106.200685700402
21407	0.0999811999499798	330	hunger	stimuli/foods\cucumber.jpg	1	3	1	cucumber	1	P	11	0	41	0		0	0	106.250720200129	106.350701400079
21444.5	0.100001099985093	331	hunger	stimuli/foods\cinnamon_sroll.jpg	1	3	1	cinnamon_sroll	1	Z	18	0	31	0		0	0	106.400717500132	106.500718600117
21482	0.100019400008023	332	hunger	stimuli/non_foods\non-food_animate_lion.jpg	1	3	1	non-food_animate_lion	0	J	6	0	125	1	a	0.691798900254071	1	106.550679600332	106.65069900034
21519.5	0.0999794001691043	333	hunger	stimuli/non_foods\non-food_inanimate_folding_chair.jpg	1	3	1	non-food_inanimate_folding_chair	0	L	8	0	182	0		0	0	106.700711200014	106.800690600183
21557	0.0999880996532738	334	hunger	stimuli/foods\pickles.jpg	1	3	1	pickles	1	H	5	0	242	0		0	0	106.850696100388	106.950684200041
21594.5	0.0999818001873791	335	hunger	stimuli/foods\mango.jpg	1	3	1	mango	1	M	9	0	80	0		0	0	107.000706700142	107.10068850033
21632	0.0999822998419404	336	hunger	stimuli/foods\mandarin.jpg	1	3	1	mandarin	1	B	0	0	79	0		0	0	107.150703400373	107.250685700215
21669.5	0.0999905997887254	337	hunger	stimuli/foods\brie.jpg	1	3	1	brie	1	M	9	0	12	0		0	0	107.300697000232	107.40068760002
21707	0.100012599956244	338	hunger	stimuli/non_foods\non-food_animate_mouse.jpg	1	3	1	non-food_animate_mouse	0	Z	18	0	131	0		0	0	107.450676999986	107.550689599942
21744.5	0.0999700003303587	339	hunger	stimuli/non_foods\non-food_inanimate_short_sleeved_shirt.jpg	1	3	1	non-food_inanimate_short_sleeved_shirt	0	W	16	0	207	0		0	0	107.600705699995	107.700675700326
21782	0.0999816996045411	340	hunger	stimuli/non_foods\non-food_animate_hummingbird.jpg	1	3	1	non-food_animate_hummingbird	0	P	11	0	120	0		0	0	107.750691400375	107.85067309998
21819.5	0.0999837997369468	341	hunger	stimuli/foods\mushroom.jpg	1	3	1	mushroom	1	B	0	0	85	0		0	0	107.900691400282	108.000675200019
21857	0.0999823999591172	342	hunger	stimuli/non_foods\non-food_inanimate_teddy_bear.jpg	1	3	1	non-food_inanimate_teddy_bear	0	J	6	0	218	0		0	0	108.050698800012	108.150681199972
21894.5	0.100029299966991	343	hunger	stimuli/foods\oven-roasted_tomatoes.jpg	1	3	1	oven-roasted_tomatoes	1	F	3	0	232	0		0	0	108.200664400123	108.30069370009
21932	0.0999763002619147	344	hunger	stimuli/foods\donut.jpg	1	3	1	donut	1	R	12	0	44	0		0	0	108.350698600058	108.450674900319
21969.5	0.0999867999926209	345	hunger	stimuli/foods\stew_with_potatoes_and_carrots.jpg	1	3	1	stew_with_potatoes_and_carrots	1	K	7	0	271	0		0	0	108.500688600354	108.600675400347
22007	0.0999737000092864	346	hunger	stimuli/foods\cooked_ham.jpg	1	3	1	cooked_ham	1	J	6	0	35	0		0	0	108.650689000264	108.750662700273
22044.5	0.0999687002040446	347	hunger	stimuli/non_foods\non-food_inanimate_padlock.jpg	1	3	1	non-food_inanimate_padlock	0	C	1	0	199	0		0	0	108.800686900038	108.900655600242
22082	0.0999962999485433	348	hunger	stimuli/foods\pepperoni_pizza.jpg	1	3	1	pepperoni_pizza	1	F	3	0	241	0		0	0	108.950665800367	109.050662100315
22119.5	0.0999855999834836	349	hunger	stimuli/non_foods\non-food_animate_yellow_bug.jpg	1	3	1	non-food_animate_yellow_bug	0	X	17	0	155	0		0	0	109.100674000103	109.200659600087
22157	0.0999973001889884	350	hunger	stimuli/non_foods\non-food_animate_Causasian_man.jpg	1	3	1	non-food_animate_Causasian_man	0	A	19	1	89	0		0	0	109.250665199943	109.350662500132
22194.5	0.0999817997217178	351	hunger	stimuli/non_foods\non-food_inanimate_drum_set.jpg	1	3	1	non-food_inanimate_drum_set	0	M	9	0	179	0		0	0	109.400680300314	109.500662100036
22232	0.0999846002086997	352	hunger	stimuli/non_foods\non-food_animate_dolphin.jpg	1	3	1	non-food_animate_dolphin	0	H	5	0	106	0		0	0	109.550677699968	109.650662300177
22269.5	0.099972500000149	353	hunger	stimuli/non_foods\non-food_inanimate_stoplight.jpg	1	3	1	non-food_inanimate_stoplight	0	C	1	0	214	0		0	0	109.700677799992	109.800650299992
22307	0.0999944000504911	354	hunger	stimuli/non_foods\non-food_animate_ladybug.jpg	1	3	1	non-food_animate_ladybug	0	F	3	0	124	0		0	0	109.85066540027	109.950659800321
22344.5	0.100011399947107	355	hunger	stimuli/foods\museli_bars.jpg	1	3	1	museli_bars	1	G	4	0	84	0		0	0	110.000673700124	110.100685100071
22382	0.0999295003712177	356	hunger	stimuli/non_foods\non-food_inanimate_bamboo.jpg	1	3	1	non-food_inanimate_bamboo	0	D	2	0	159	0		0	0	110.150732900016	110.250662400387
22419.5	0.0999843999743462	357	hunger	stimuli/non_foods\non-food_animate_parrot.jpg	1	3	1	non-food_animate_parrot	0	X	17	0	133	0		0	0	110.300667500123	110.400651900098
22457	0.099968200083822	358	hunger	stimuli/non_foods\non-food_animate_peacock.jpg	1	3	1	non-food_animate_peacock	0	B	0	0	134	0		0	0	110.450668500271	110.550636700355
22494.5	0.0999600002542138	359	hunger	stimuli/foods\lentils.jpg	1	3	1	lentils	1	P	11	0	74	0		0	0	110.600668299943	110.700628300197
22532	0.0999838002026081	360	hunger	stimuli/foods\cereal.jpg	1	3	1	cereal	1	S	13	0	22	0		0	0	110.750666200183	110.850650000386
22569.5	0.0999603997915983	361	hunger	stimuli/foods\hazelnuts.jpg	1	3	1	hazelnuts	1	N	10	0	65	0		0	0	110.900660300162	111.000620699953
22607	0.0999948000535369	362	hunger	stimuli/foods\fruit_salad.jpg	1	3	1	fruit_salad	1	R	12	0	55	0		0	0	111.050651900005	111.150646700058
22644.5	0.0999818998388946	363	hunger	stimuli/non_foods\non-food_inanimate_towel.jpg	1	3	1	non-food_inanimate_towel	0	J	6	0	221	0		0	0	111.200662200339	111.300644100178
22682	0.0999867999926209	364	hunger	stimuli/foods\pork_and_rice.jpg	1	3	1	pork_and_rice	1	V	15	0	245	0		0	0	111.35064920038	111.450636000372
22719.5	0.0999912000261247	365	hunger	stimuli/non_foods\non-food_inanimate_nettle.jpg	1	3	1	non-food_inanimate_nettle	0	W	16	0	197	0		0	0	111.500652200077	111.600643400103
22757	0.0999818998388946	366	hunger	stimuli/non_foods\non-food_animate_dragonfly.jpg	1	3	1	non-food_animate_dragonfly	0	L	8	0	108	0		0	0	111.650652700104	111.750634599943
22794.5	0.0999917997978628	367	hunger	stimuli/foods\coffee_beans.jpg	1	3	1	coffee_beans	1	K	7	0	34	0		0	0	111.800665300339	111.900657100137
22832	0.0999623998068273	368	hunger	stimuli/non_foods\non-food_animate_cheetah.jpg	1	3	1	non-food_animate_cheetah	0	B	0	0	100	0		0	0	111.950675700326	112.050638100132
22869.5	0.100010199937969	369	hunger	stimuli/non_foods\non-food_inanimate_bed.jpg	1	3	1	non-food_inanimate_bed	0	D	2	0	160	0		0	0	112.100620500278	112.200630700216
22907	0.0999930999241769	370	hunger	stimuli/non_foods\non-food_inanimate_tent.jpg	1	3	1	non-food_inanimate_tent	0	V	15	0	219	0		0	0	112.250639900099	112.350633000024
22944.5	0.0999823999591172	371	hunger	stimuli/non_foods\non-food_inanimate_skirt.jpg	1	3	1	non-food_inanimate_skirt	0	D	2	0	209	0		0	0	112.400644900277	112.500627300236
22982	0.0999853000976145	372	hunger	stimuli/foods\waffle.jpg	1	3	1	waffle	1	J	6	0	278	0		0	0	112.550642600283	112.650627900381
23019.5	0.0999819999560714	373	hunger	stimuli/foods\almonds.jpg	1	3	1	almonds	1	B	0	0	0	0		0	0	112.700645000208	112.800627000164
23057	0.0999834001995623	374	hunger	stimuli/foods\honey.jpg	1	3	1	honey	1	X	17	0	66	0		0	0	112.850640300196	112.950623700395
23094.5	0.0999764995649457	375	hunger	stimuli/non_foods\non-food_inanimate_tree.jpg	1	3	1	non-food_inanimate_tree	0	J	6	0	223	0		0	0	113.000647700392	113.100624199957
23132	0.0999965001828969	376	hunger	stimuli/foods\roasted_chicken.jpg	1	3	1	roasted_chicken	1	S	13	0	261	0		0	0	113.150624100119	113.250620600302
23169.5	0.100006900262088	377	hunger	stimuli/foods\asparagus.jpg	1	3	1	asparagus	1	N	10	0	4	0		0	0	113.300606300123	113.400613200385
23207	0.0999843003228307	378	hunger	stimuli/non_foods\non-food_animate_cow.jpg	1	3	1	non-food_animate_cow	0	J	6	0	103	0		0	0	113.45062420005	113.550608500373
23244.5	0.0999976000748575	379	hunger	stimuli/foods\avocado.jpg	1	3	1	avocado	1	M	9	0	5	0		0	0	113.600618400145	113.70061600022
23282	0.100013399962336	380	hunger	stimuli/foods\apple.jpg	1	3	1	apple	1	R	12	0	1	0		0	0	113.750600600149	113.850614000112
23319.5	0.0999842998571694	381	hunger	stimuli/non_foods\non-food_inanimate_desk.jpg	1	3	1	non-food_inanimate_desk	0	V	15	0	178	0		0	0	113.900628500152	114.00061280001
23357	0.0999769996851683	382	hunger	stimuli/non_foods\non-food_inanimate_headphones.jpg	1	3	1	non-food_inanimate_headphones	0	J	6	0	188	0		0	0	114.050625500269	114.150602499954
23394.5	0.0999777000397444	383	hunger	stimuli/foods\hamburger.jpg	1	3	1	hamburger	1	D	2	0	64	0		0	0	114.200622600038	114.300600300077
23432	0.0999836996197701	384	hunger	stimuli/non_foods\non-food_animate_frog.jpg	1	3	1	non-food_animate_frog	0	R	12	0	113	0		0	0	114.350615800358	114.450599499978
23469.5	0.0999871003441513	385	hunger	stimuli/non_foods\non-food_inanimate_jeans.jpg	1	3	1	non-food_inanimate_jeans	0	N	10	0	191	0		0	0	114.500615600031	114.600602700375
23507	0.0999894998967648	386	hunger	stimuli/non_foods\non-food_inanimate_shell.jpg	1	3	1	non-food_inanimate_shell	0	G	4	0	206	0		0	0	114.650611600373	114.75060110027
23544.5	0.0999749000184238	387	hunger	stimuli/foods\salmon.jpg	1	3	1	salmon	1	K	7	0	264	0		0	0	114.800600900315	114.900575800333
23582	0.0999854998663068	388	hunger	stimuli/foods\grapes.jpg	1	3	1	grapes	1	H	5	0	60	0		0	0	114.950608800165	115.050594300032
23619.5	0.100004500243813	389	hunger	stimuli/non_foods\non-food_animate_student_female.jpg	1	3	1	non-food_animate_student_female	0	V	15	0	151	0		0	0	115.100595700089	115.200600200333
23657	0.0999763999134302	390	hunger	stimuli/non_foods\non-food_animate_porcupine.jpg	1	3	1	non-food_animate_porcupine	0	J	6	0	138	0		0	0	115.250612300355	115.350588700268
23694.5	0.0999910002574325	391	hunger	stimuli/foods\pear.jpg	1	3	1	pear	1	T	14	0	239	0		0	0	115.400624400005	115.500615400262
23732	0.0999516001902521	392	hunger	stimuli/foods\linguine_with_clams.jpg	1	3	1	linguine_with_clams	1	F	3	0	77	0		0	0	115.55064120004	115.65059280023
23769.5	0.0999942999333143	393	hunger	stimuli/non_foods\non-food_inanimate_horn.jpg	1	3	1	non-food_inanimate_horn	0	V	15	0	190	0		0	0	115.700588600244	115.800582900178
23807	0.0999846998602152	394	hunger	stimuli/non_foods\non-food_inanimate_grass.jpg	1	3	1	non-food_inanimate_grass	0	J	6	0	184	0		0	0	115.850605500396	115.950590200257
23844.5	0.0999862998723984	395	hunger	stimuli/non_foods\non-food_inanimate_fire_extinguisher.jpg	1	3	1	non-food_inanimate_fire_extinguisher	0	S	13	0	181	0		0	0	116.000601400156	116.100587700028
23882	0.0999897997826338	396	hunger	stimuli/foods\artichoke.jpg	1	3	1	artichoke	1	F	3	0	3	0		0	0	116.150596000254	116.250585800037
23919.5	0.099983099848032	397	hunger	stimuli/non_foods\non-food_inanimate_couch.jpg	1	3	1	non-food_inanimate_couch	0	Z	18	0	176	0		0	0	116.30060290033	116.400586000178
23957	0.0999985998496413	398	hunger	stimuli/foods\blackberry.jpg	1	3	1	blackberry	1	C	1	0	11	0		0	0	116.450602100231	116.55060070008
23994.5	0.0999839999713004	399	hunger	stimuli/non_foods\non-food_inanimate_suitcase.jpg	1	3	1	non-food_inanimate_suitcase	0	N	10	0	215	0		0	0	116.60059799999	116.700581999961
24032	0.0999826998449862	400	hunger	stimuli/foods\spring_onions.jpg	1	3	1	spring_onions	1	R	12	0	269	0		0	0	116.750595500227	116.850578200072
24069.5	0.0999798001721501	401	hunger	stimuli/non_foods\non-food_inanimate_wrench.jpg	1	3	1	non-food_inanimate_wrench	0	T	14	0	227	0		0	0	116.900591200218	117.00057100039
24107	0.0999865001067519	402	hunger	stimuli/foods\fries.jpg	1	3	1	fries	1	P	11	0	52	0		0	0	117.050591300242	117.150577800348
24144.5	0.0999934002757072	403	hunger	stimuli/non_foods\non-food_inanimate_cactus_pot_plant.jpg	1	3	1	non-food_inanimate_cactus_pot_plant	0	L	8	0	169	0		0	0	117.20058319997	117.300576600246
24182	0.0999660999514163	404	hunger	stimuli/non_foods\non-food_animate_grasshopper.jpg	1	3	1	non-food_animate_grasshopper	0	X	17	0	117	0		0	0	117.350605600048	117.450571699999
24219.5	0.0999888996593654	405	hunger	stimuli/foods\taco.jpg	1	3	1	taco	1	N	10	0	274	0		0	0	117.500584100373	117.600573000032
24257	0.0999892000108957	406	hunger	stimuli/non_foods\non-food_inanimate_orchid.jpg	1	3	1	non-food_inanimate_orchid	0	Z	18	0	198	0		0	0	117.650576500222	117.750565700233
24294.5	0.0999854998663068	407	hunger	stimuli/non_foods\non-food_inanimate_alarm_clock.jpg	1	3	1	non-food_inanimate_alarm_clock	0	X	17	0	158	0		0	0	117.800581400283	117.900566900149
24332	0.0999861997552216	408	hunger	stimuli/foods\lamb_chops.jpg	1	3	1	lamb_chops	1	Z	18	0	70	0		0	0	117.950577600393	118.050563800149
24369.5	0.0999950002878904	409	hunger	stimuli/non_foods\non-food_animate_iguana.jpg	1	3	1	non-food_animate_iguana	0	F	3	0	121	0		0	0	118.100566700101	118.200561700389
24407	0.0999978999607265	410	hunger	stimuli/non_foods\non-food_animate_ant.jpg	1	3	1	non-food_animate_ant	0	W	16	0	91	0		0	0	118.250578100327	118.350576000288
24444.5	0.0999703998677433	411	hunger	stimuli/non_foods\non-food_inanimate_scissors.jpg	1	3	1	non-food_inanimate_scissors	0	S	13	0	205	0		0	0	118.400576500222	118.50054690009
24482	0.0999917997978628	412	hunger	stimuli/non_foods\non-food_animate_green_bug.jpg	1	3	1	non-food_animate_green_bug	0	P	11	0	118	0		0	0	118.5505706002	118.650562399998
24519.5	0.0999797000549734	413	hunger	stimuli/non_foods\non-food_inanimate_bowling_ball.jpg	1	3	1	non-food_inanimate_bowling_ball	0	F	3	0	162	0		0	0	118.700573700015	118.800553400069
24557	0.0999905001372099	414	hunger	stimuli/foods\cracker.jpg	1	3	1	cracker	1	K	7	0	38	0		0	0	118.850566999987	118.950557500124
24594.5	0.0999618000350893	415	hunger	stimuli/foods\red_cabbage.jpg	1	3	1	red_cabbage	1	Z	18	0	256	0		0	0	119.000592099968	119.100553900003
24632	0.0999599997885525	416	hunger	stimuli/non_foods\non-food_inanimate_chair.jpg	1	3	1	non-food_inanimate_chair	0	H	5	0	172	0		0	0	119.150565000251	119.250525000039
24669.5	0.0999847003258765	417	hunger	stimuli/non_foods\non-food_inanimate_construction_helment.jpg	1	3	1	non-food_inanimate_construction_helment	0	T	14	0	175	0		0	0	119.300557699986	119.400542400312
24707	0.0999817997217178	418	hunger	stimuli/non_foods\non-food_animate_fox.jpg	1	3	1	non-food_animate_fox	0	J	6	0	112	0		0	0	119.450566400308	119.55054820003
24744.5	0.0999842998571694	419	hunger	stimuli/non_foods\non-food_animate_chicken.jpg	1	3	1	non-food_animate_chicken	0	W	16	0	101	0		0	0	119.600562400185	119.700546700042
25294.5	0.0999912996776402	420	hunger	stimuli/foods\papaya.jpg	1	4	1	papaya	1	L	8	0	235	0		0	0	121.800543700345	121.900535000023
25332	0.0999447000212967	421	hunger	stimuli/non_foods\non-food_animate_woman.jpg	1	4	1	non-food_animate_woman	0	V	15	0	154	0		0	0	121.950574400369	122.05051910039
25369.5	0.0999695002101362	422	hunger	stimuli/non_foods\non-food_animate_monkey.jpg	1	4	1	non-food_animate_monkey	0	G	4	0	130	0		0	0	122.100535199977	122.200504700188
25407	0.100001799874008	423	hunger	stimuli/foods\baked_lamb_with_potatoes.jpg	1	4	1	baked_lamb_with_potatoes	1	P	11	0	8	0		0	0	122.250515900087	122.350517699961
25444.5	0.0999857001006603	424	hunger	stimuli/foods\carrot.jpg	1	4	1	carrot	1	J	6	0	19	0		0	0	122.400529600214	122.500515300315
25482	0.0999872996471822	425	hunger	stimuli/foods\chocolate_pudding.jpg	1	4	1	chocolate_pudding	1	S	13	0	29	0		0	0	122.550526600331	122.650513899978
25519.5	0.0999806001782417	426	hunger	stimuli/non_foods\non-food_inanimate_protractor.jpg	1	4	1	non-food_inanimate_protractor	0	C	1	0	201	0		0	0	122.700526800007	122.800507400185
25557	0.0999835003167391	427	hunger	stimuli/non_foods\non-food_animate_mammoth.jpg	1	4	1	non-food_animate_mammoth	0	W	16	0	128	0		0	0	122.850516899955	122.950500400271
25594.5	0.099961900152266	428	hunger	stimuli/non_foods\non-food_animate_seahorse.jpg	1	4	1	non-food_animate_seahorse	0	N	10	0	145	0		0	0	123.000545000192	123.100506900344
25632	0.0999594000168145	429	hunger	stimuli/non_foods\non-food_inanimate_bicycle.jpg	1	4	1	non-food_inanimate_bicycle	0	L	8	0	161	0		0	0	123.150521600153	123.25048100017
25669.5	0.0999869997613132	430	hunger	stimuli/foods\spaghetti_with_meat_sauce.jpg	1	4	1	spaghetti_with_meat_sauce	1	D	2	0	267	0		0	0	123.30050990032	123.400496900082
25707	0.0999835999682546	431	hunger	stimuli/foods\clams.jpg	1	4	1	clams	1	F	3	0	32	0		0	0	123.450520600192	123.550504200161
25744.5	0.0999761000275612	432	hunger	stimuli/non_foods\non-food_animate_giraffe.jpg	1	4	1	non-food_animate_giraffe	0	R	12	0	115	0		0	0	123.600517100189	123.700493200216
25782	0.0999644002877176	433	hunger	stimuli/foods\croissant.jpg	1	4	1	croissant	1	C	1	0	40	0		0	0	123.750528099947	123.850492500234
25819.5	0.0999806998297572	434	hunger	stimuli/foods\baked_cod_with_carrots_and_green_beans.jpg	1	4	1	baked_cod_with_carrots_and_green_beans	1	P	11	0	7	0		0	0	123.900506500155	124.000487199984
25857	0.0999688003212214	435	hunger	stimuli/foods\strawberry.jpg	1	4	1	strawberry	1	M	9	0	272	0		0	0	124.050502500031	124.150471300352
25894.5	0.0999870002269745	436	hunger	stimuli/foods\capsicum.jpg	1	4	1	capsicum	1	D	2	0	18	0		0	0	124.200510099996	124.300497100223
25932	0.0999629003927112	437	hunger	stimuli/non_foods\non-food_animate_young_boy.jpg	1	4	1	non-food_animate_young_boy	0	B	0	0	156	0		0	0	124.350508600008	124.4504715004
25969.5	0.0999731998890638	438	hunger	stimuli/foods\grilled_chicken_breast.jpg	1	4	1	grilled_chicken_breast	1	N	10	0	63	0		0	0	124.500509200152	124.600482400041
26007	0.0999823999591172	439	hunger	stimuli/foods\red_beans.jpg	1	4	1	red_beans	1	W	16	0	255	0		0	0	124.65050550038	124.750487900339
26044.5	0.0999750997871161	440	hunger	stimuli/non_foods\non-food_inanimate_speakers.jpg	1	4	1	non-food_inanimate_speakers	0	X	17	0	212	0		0	0	124.800503000151	124.900478099938
26082	0.099981099832803	441	hunger	stimuli/foods\fruit_flan.jpg	1	4	1	fruit_flan	1	O	22	1	53	0		0	0	124.950499200262	125.050480300095
26119.5	0.0999809000641108	442	hunger	stimuli/foods\onion.jpg	1	4	1	onion	1	X	17	0	229	0		0	0	125.100491700228	125.200472600292
26157	0.0999866998754442	443	hunger	stimuli/foods\broccoli.jpg	1	4	1	broccoli	1	P	11	0	13	0		0	0	125.250486900099	125.350473599974
26194.5	0.0999802998267114	444	hunger	stimuli/foods\cinnamon.jpg	1	4	1	cinnamon	1	H	5	0	30	0		0	0	125.400496600196	125.500476900022
26232	0.0999678000807762	445	hunger	stimuli/foods\risotto_with_peas_and_asparagus_tips.jpg	1	4	1	risotto_with_peas_and_asparagus_tips	1	C	1	0	259	0		0	0	125.55050370004	125.650471500121
26269.5	0.0999924996867776	446	hunger	stimuli/non_foods\non-food_inanimate_toilet.jpg	1	4	1	non-food_inanimate_toilet	0	F	3	0	220	0		0	0	125.700486500282	125.800478999969
26307	0.0999823999591172	447	hunger	stimuli/foods\eggplant.jpg	1	4	1	eggplant	1	B	0	0	46	0		0	0	125.850489899982	125.950472299941
26344.5	0.099974500015378	448	hunger	stimuli/non_foods\non-food_animate_skunk.jpg	1	4	1	non-food_animate_skunk	0	D	2	0	147	0		0	0	126.000490600243	126.100465100259
26382	0.0999851999804378	449	hunger	stimuli/non_foods\non-food_animate_gorilla.jpg	1	4	1	non-food_animate_gorilla	0	K	7	0	116	0		0	0	126.150481200311	126.250466400292
26419.5	0.0999861001037061	450	hunger	stimuli/foods\cauliflower.jpg	1	4	1	cauliflower	1	F	3	0	20	0		0	0	126.300477100071	126.400463200174
26457	0.0999755999073386	451	hunger	stimuli/non_foods\non-food_inanimate_table.jpg	1	4	1	non-food_inanimate_table	0	B	0	0	217	0		0	0	126.450477600098	126.550453200005
26494.5	0.0999965001828969	452	hunger	stimuli/non_foods\non-food_animate_butterfly.jpg	1	4	1	non-food_animate_butterfly	0	V	15	0	96	0		0	0	126.600468200166	126.700464700349
26532	0.0999820996075869	453	hunger	stimuli/foods\pea_pod.jpg	1	4	1	pea_pod	1	F	3	0	237	0		0	0	126.750479600392	126.8504617
26569.5	0.0999815003015101	454	hunger	stimuli/non_foods\non-food_inanimate_clover.jpg	1	4	1	non-food_inanimate_clover	0	M	9	0	174	0		0	0	126.900481699966	127.000463200267
26607	0.099976500030607	455	hunger	stimuli/foods\lemon_meringue_pie.jpg	1	4	1	lemon_meringue_pie	1	C	1	0	73	0		0	0	127.050473200157	127.150449700188
26644.5	0.100005900021642	456	hunger	stimuli/foods\spinach.jpg	1	4	1	spinach	1	T	14	0	268	0		0	0	127.200477400329	127.300483300351
26682	0.0999509999528527	457	hunger	stimuli/foods\brownie.jpg	1	4	1	brownie	1	H	5	0	14	1	a	0	0	127.35050670011	127.450457700063
26719.5	0.0999830001965165	458	hunger	stimuli/foods\risotto_with_zucchini.jpg	1	4	1	risotto_with_zucchini	1	I	21	1	260	0		0	0	127.500472499989	127.600455500185
26757	0.09998709987849	459	hunger	stimuli/foods\omelette.jpg	1	4	1	omelette	1	R	12	0	228	0		0	0	127.650471100118	127.750458199997
26794.5	0.099989099893719	460	hunger	stimuli/foods\ice_cream.jpg	1	4	1	ice_cream	1	C	1	0	68	0		0	0	127.800467600115	127.900456700008
26832	0.0999846998602152	461	hunger	stimuli/foods\rockmelon.jpg	1	4	1	rockmelon	1	S	13	0	262	0		0	0	127.950466900133	128.050451599993
26869.5	0.0999675001949072	462	hunger	stimuli/non_foods\non-food_animate_ram.jpg	1	4	1	non-food_animate_ram	0	J	6	0	140	0		0	0	128.100467800163	128.200435300358
26907	0.0999837000854313	463	hunger	stimuli/foods\steak.jpg	1	4	1	steak	1	V	15	0	270	0		0	0	128.250455200206	128.350438900292
26944.5	0.0999843003228307	464	hunger	stimuli/foods\swordfish.jpg	1	4	1	swordfish	1	M	9	0	273	0		0	0	128.400464300066	128.500448600389
26982	0.0999851999804378	465	hunger	stimuli/foods\rice_cake.jpg	1	4	1	rice_cake	1	V	15	0	258	0		0	0	128.550457700156	128.650442900136
27019.5	0.0999901001341641	466	hunger	stimuli/non_foods\non-food_inanimate_guitar.jpg	1	4	1	non-food_inanimate_guitar	0	B	0	0	185	0		0	0	128.700453500263	128.800443600398
27057	0.0999660999514163	467	hunger	stimuli/non_foods\non-food_inanimate_waterlily.jpg	1	4	1	non-food_inanimate_waterlily	0	G	4	0	226	0		0	0	128.850457100198	128.950423200149
27094.5	0.100000699982047	468	hunger	stimuli/foods\lime.jpg	1	4	1	lime	1	R	12	0	76	0		0	0	129.000473500229	129.100474200211
27132	0.0999932996928692	469	hunger	stimuli/non_foods\non-food_inanimate_socks.jpg	1	4	1	non-food_inanimate_socks	0	F	3	0	211	0		0	0	129.150446700398	129.250440000091
27169.5	0.0999869001097977	470	hunger	stimuli/foods\green_beans.jpg	1	4	1	green_beans	1	D	2	0	61	0		0	0	129.300441000145	129.400427900255
27207	0.0999884996563196	471	hunger	stimuli/foods\peach.jpg	1	4	1	peach	1	Z	18	0	238	0		0	0	129.450440500397	129.550429000054
27244.5	0.0999836996197701	472	hunger	stimuli/foods\celery.jpg	1	4	1	celery	1	X	17	0	21	0		0	0	129.600438200403	129.700421900023
27282	0.099985200446099	473	hunger	stimuli/non_foods\non-food_animate_millipede.jpg	1	4	1	non-food_animate_millipede	0	S	13	0	129	0		0	0	129.750437499955	129.850422700401
27319.5	0.0999969998374581	474	hunger	stimuli/foods\smoked_ham.jpg	1	4	1	smoked_ham	1	U	23	1	266	0		0	0	129.900429800153	130.00042679999
27357	0.100006100255996	475	hunger	stimuli/non_foods\non-food_animate_polar_bear.jpg	1	4	1	non-food_animate_polar_bear	0	H	5	0	137	0		0	0	130.050422200002	130.150428300258
27394.5	0.0999835999682546	476	hunger	stimuli/foods\rice.jpg	1	4	1	rice	1	S	13	0	257	0		0	0	130.200434100349	130.300417700317
27432	0.0999817000702024	477	hunger	stimuli/foods\kiwi.jpg	1	4	1	kiwi	1	H	5	0	69	0		0	0	130.350431900006	130.450413600076
27469.5	0.0999846002086997	478	hunger	stimuli/non_foods\non-food_inanimate_buds.jpg	1	4	1	non-food_inanimate_buds	0	J	6	0	166	0		0	0	130.50042850012	130.600413100328
27507	0.0999859999865294	479	hunger	stimuli/foods\toasted_bread_with_tomatoes.jpg	1	4	1	toasted_bread_with_tomatoes	1	W	16	0	275	0		0	0	130.650435199961	130.750421199948
27544.5	0.0999598000198603	480	hunger	stimuli/non_foods\non-food_inanimate_leaf.jpg	1	4	1	non-food_inanimate_leaf	0	V	15	0	192	0		0	0	130.800457300153	130.900417100172
27582	0.0999564002268016	481	hunger	stimuli/foods\figs.jpg	1	4	1	figs	1	K	7	0	48	0		0	0	130.950463599991	131.050420000218
27619.5	0.0999858002178371	482	hunger	stimuli/foods\fried_zucchini.jpg	1	4	1	fried_zucchini	1	N	10	0	51	0		0	0	131.100427200086	131.200413000304
27657	0.0999875999987125	483	hunger	stimuli/non_foods\non-food_animate_eagle.jpg	1	4	1	non-food_animate_eagle	0	D	2	0	110	0		0	0	131.250426300336	131.350413900334
27694.5	0.0999867999926209	484	hunger	stimuli/foods\savory_pie.jpg	1	4	1	savory_pie	1	K	7	0	265	0		0	0	131.40042470023	131.500411500223
27732	0.0999961998313665	485	hunger	stimuli/foods\garlic.jpg	1	4	1	garlic	1	J	6	0	56	0		0	0	131.550406100228	131.65040230006
27769.5	0.0999846998602152	486	hunger	stimuli/non_foods\non-food_animate_elephant.jpg	1	4	1	non-food_animate_elephant	0	H	5	0	111	0		0	0	131.700416900218	131.800401600078
27807	0.100000000093132	487	hunger	stimuli/non_foods\non-food_animate_lizard.jpg	1	4	1	non-food_animate_lizard	0	B	0	0	126	0		0	0	131.850405300036	131.950405300129
27844.5	0.0999908000230789	488	hunger	stimuli/non_foods\non-food_animate_baby_sitting.jpg	1	4	1	non-food_animate_baby_sitting	0	X	17	0	93	0		0	0	132.000418200158	132.100409000181
27882	0.0999793997034431	489	hunger	stimuli/non_foods\non-food_animate_sea_turtle.jpg	1	4	1	non-food_animate_sea_turtle	0	G	4	0	144	0		0	0	132.150418400299	132.250397800002
27919.5	0.0999842998571694	490	hunger	stimuli/foods\lettuce.jpg	1	4	1	lettuce	1	R	12	0	75	0		0	0	132.300414400175	132.400398700032
27957	0.0999922999180853	491	hunger	stimuli/foods\egg.jpg	1	4	1	egg	1	C	1	0	45	0		0	0	132.450412900187	132.550405200105
27994.5	0.0999333998188376	492	hunger	stimuli/foods\peas.jpg	1	4	1	peas	1	G	4	0	240	0		0	0	132.600456300192	132.70038970001
28032	0.0999900000169873	493	hunger	stimuli/non_foods\non-food_inanimate_bush.jpg	1	4	1	non-food_inanimate_bush	0	Z	18	0	167	0		0	0	132.75038970029	132.850379700307
28069.5	0.100004300009459	494	hunger	stimuli/non_foods\non-food_animate_killer_whale.jpg	1	4	1	non-food_animate_killer_whale	0	L	8	0	123	0		0	0	132.900388900191	133.0003932002
28107	0.0999833000823855	495	hunger	stimuli/non_foods\non-food_inanimate_chandelier.jpg	1	4	1	non-food_inanimate_chandelier	0	X	17	0	173	0		0	0	133.050406100228	133.150389400311
28144.5	0.100009600166231	496	hunger	stimuli/non_foods\non-food_animate_horse.jpg	1	4	1	non-food_animate_horse	0	J	6	0	119	0		0	0	133.200385000091	133.300394600257
28182	0.0999843999743462	497	hunger	stimuli/non_foods\non-food_animate_slug.jpg	1	4	1	non-food_animate_slug	0	L	8	0	148	0		0	0	133.350403400138	133.450387800112
28219.5	0.0999846002086997	498	hunger	stimuli/foods\oyster.jpg	1	4	1	oyster	1	T	14	0	233	0		0	0	133.50040140003	133.600386000238
28257	0.0999839003197849	499	hunger	stimuli/foods\potatoes.jpg	1	4	1	potatoes	1	M	9	0	248	0		0	0	133.650402199943	133.750386100262
28294.5	0.0999829997308552	500	hunger	stimuli/foods\pineapple.jpg	1	4	1	pineapple	1	B	0	0	243	0		0	0	133.800397900399	133.90038090013
28332	0.0999901001341641	501	hunger	stimuli/non_foods\non-food_animate_duck.jpg	1	4	1	non-food_animate_duck	0	X	17	0	109	0		0	0	133.950393000152	134.050383100286
28369.5	0.0999853000976145	502	hunger	stimuli/foods\raw_ham.jpg	1	4	1	raw_ham	1	B	0	0	253	0		0	0	134.100394300185	134.200379600283
28407	0.0999861001037061	503	hunger	stimuli/foods\radish.jpg	1	4	1	radish	1	K	7	0	251	0		0	0	134.250392800197	134.350378900301
28444.5	0.0999712999910116	504	hunger	stimuli/non_foods\non-food_animate_caterpillar.jpg	1	4	1	non-food_animate_caterpillar	0	T	14	0	99	0		0	0	134.400405900087	134.500377200078
28482	0.099976500030607	505	hunger	stimuli/foods\mortadella.jpg	1	4	1	mortadella	1	H	5	0	83	0		0	0	134.550396100152	134.650372600183
28519.5	0.099985099863261	506	hunger	stimuli/non_foods\non-food_animate_young_girl.jpg	1	4	1	non-food_animate_young_girl	0	Z	18	0	157	0		0	0	134.700388600118	134.800373699982
28557	0.099985099863261	507	hunger	stimuli/foods\raisins.jpg	1	4	1	raisins	1	B	0	0	252	0		0	0	134.850385500118	134.950370599981
28594.5	0.0999884000048041	508	hunger	stimuli/foods\cream_donuts.jpg	1	4	1	cream_donuts	1	L	8	0	39	0		0	0	135.000381099992	135.100369499996
28632	0.0999865997582674	509	hunger	stimuli/foods\hotdog.jpg	1	4	1	hotdog	1	J	6	0	67	0		0	0	135.150380300358	135.250366900116
28669.5	0.0999929001554847	510	hunger	stimuli/foods\beetroots.jpg	1	4	1	beetroots	1	M	9	0	10	0		0	0	135.300371400081	135.400364300236
28707	0.0999664999544621	511	hunger	stimuli/non_foods\non-food_animate_pigeon.jpg	1	4	1	non-food_animate_pigeon	0	B	0	0	136	0		0	0	135.450399300084	135.550365800038
28744.5	0.0999610000289977	512	hunger	stimuli/non_foods\non-food_animate_Asian_man.jpg	1	4	1	non-food_animate_Asian_man	0	M	9	0	88	0		0	0	135.600386200007	135.700347200036
28782	0.0999838002026081	513	hunger	stimuli/foods\wafer.jpg	1	4	1	wafer	1	S	13	0	277	0		0	0	135.750378400087	135.85036220029
28819.5	0.0999892996624112	514	hunger	stimuli/non_foods\non-food_inanimate_canoe.jpg	1	4	1	non-food_inanimate_canoe	0	G	4	0	170	0		0	0	135.9003727003	136.000361999962
28857	0.0999921998009086	515	hunger	stimuli/foods\potato_chips.jpg	1	4	1	potato_chips	1	S	13	0	247	0		0	0	136.050357700326	136.150349900126
28894.5	0.0999421998858452	516	hunger	stimuli/non_foods\non-food_animate_squirrel.jpg	1	4	1	non-food_animate_squirrel	0	Z	18	0	150	0		0	0	136.20040460024	136.300346800126
28932	0.0999904000200331	517	hunger	stimuli/non_foods\non-food_animate_dachshund.jpg	1	4	1	non-food_animate_dachshund	0	T	14	0	104	0		0	0	136.350357500371	136.450347900391
28969.5	0.0999822998419404	518	hunger	stimuli/non_foods\non-food_inanimate_highlighter.jpg	1	4	1	non-food_inanimate_highlighter	0	F	3	0	189	0		0	0	136.500371900387	136.600354200229
29007	0.100003600120544	519	hunger	stimuli/foods\chilli.jpg	1	4	1	chilli	1	B	0	0	25	0		0	0	136.650339600164	136.750343200285
29044.5	0.0999889001250267	520	hunger	stimuli/foods\minestrone_soup.jpg	1	4	1	minestrone_soup	1	L	8	0	82	0		0	0	136.800351600163	136.900340500288
29082	0.0999858998693526	521	hunger	stimuli/non_foods\non-food_inanimate_lighter.jpg	1	4	1	non-food_inanimate_lighter	0	W	16	0	193	0		0	0	136.950354400091	137.05034029996
29119.5	0.0999854998663068	522	hunger	stimuli/foods\cherry.jpg	1	4	1	cherry	1	L	8	0	23	0		0	0	137.100352300331	137.200337800197
29157	0.0999822001904249	523	hunger	stimuli/non_foods\non-food_inanimate_briefcase.jpg	1	4	1	non-food_inanimate_briefcase	0	D	2	0	163	0		0	0	137.250351800118	137.350334000308
29194.5	0.0999871003441513	524	hunger	stimuli/non_foods\non-food_inanimate_toy_airplane.jpg	1	4	1	non-food_inanimate_toy_airplane	0	N	10	0	222	0		0	0	137.400347399991	137.500334500335
29232	0.0999874998815358	525	hunger	stimuli/non_foods\non-food_animate_tortoise.jpg	1	4	1	non-food_animate_tortoise	0	T	14	0	153	0		0	0	137.55034700036	137.650334500242
29269.5	0.0999867999926209	526	hunger	stimuli/non_foods\non-food_animate_llama.jpg	1	4	1	non-food_animate_llama	0	P	11	0	127	0		0	0	137.700344500132	137.800331300125
29307	0.0999620999209583	527	hunger	stimuli/foods\fried_calamari.jpg	1	4	1	fried_calamari	1	L	8	0	50	0		0	0	137.850356100127	137.950318200048
29344.5	0.0999950002878904	528	hunger	stimuli/foods\oregano.jpg	1	4	1	oregano	1	M	9	0	231	0		0	0	138.000330199953	138.100325200241
29382	0.0999838998541236	529	hunger	stimuli/non_foods\non-food_inanimate_broom.jpg	1	4	1	non-food_inanimate_broom	0	X	17	0	164	0		0	0	138.150341700297	138.250325600151
29419.5	0.0999726001173258	530	hunger	stimuli/foods\cooked_prawn.jpg	1	4	1	cooked_prawn	1	F	3	0	36	0		0	0	138.30034200009	138.400314600207
29457	0.0999908996745944	531	hunger	stimuli/non_foods\non-food_animate_owl.jpg	1	4	1	non-food_animate_owl	0	C	1	0	132	0		0	0	138.450323200319	138.550314099994
29494.5	0.0999988000839949	532	hunger	stimuli/non_foods\non-food_inanimate_tulip.jpg	1	4	1	non-food_inanimate_tulip	0	J	6	0	224	0		0	0	138.600328600034	138.700327400118
29532	0.0999823999591172	533	hunger	stimuli/foods\bagel.jpg	1	4	1	bagel	1	F	3	0	6	0		0	0	138.750344000291	138.85032640025
29569.5	0.0999651998281479	534	hunger	stimuli/non_foods\non-food_inanimate_soccer_ball.jpg	1	4	1	non-food_inanimate_soccer_ball	0	G	4	0	210	0		0	0	138.900357500184	139.000322700012
29607	0.0999437998980284	535	hunger	stimuli/non_foods\non-food_inanimate_cap.jpg	1	4	1	non-food_inanimate_cap	0	L	8	0	171	0		0	0	139.050373800099	139.150317599997
29644.5	0.0999818001873791	536	hunger	stimuli/non_foods\non-food_animate_seal.jpg	1	4	1	non-food_animate_seal	0	X	17	0	146	0		0	0	139.200339700095	139.300321500283
29682	0.0999878002330661	537	hunger	stimuli/non_foods\non-food_animate_clown.jpg	1	4	1	non-food_animate_clown	0	W	16	0	102	0		0	0	139.35033110017	139.450318900403
29719.5	0.099991999566555	538	hunger	stimuli/foods\frankfurter_and_provolone_salad.jpg	1	4	1	frankfurter_and_provolone_salad	1	X	17	0	49	0		0	0	139.500327000394	139.600318999961
29757	0.0999924000352621	539	hunger	stimuli/foods\chocolate_chip_cookies.jpg	1	4	1	chocolate_chip_cookies	1	P	11	0	27	0		0	0	139.650344199967	139.750336600002
29794.5	0.099993699695915	540	hunger	stimuli/non_foods\non-food_inanimate_nest.jpg	1	4	1	non-food_inanimate_nest	0	N	10	0	196	0		0	0	139.80032110028	139.900314799976
29832	0.0999821997247636	541	hunger	stimuli/foods\banana.jpg	1	4	1	banana	1	M	9	0	9	0		0	0	139.950325100217	140.050307299942
29869.5	0.0999882002361119	542	hunger	stimuli/foods\lasagna.jpg	1	4	1	lasagna	1	R	12	0	71	0		0	0	140.100315500051	140.200303700287
29907	0.0999818998388946	543	hunger	stimuli/non_foods\non-food_inanimate_bucket.jpg	1	4	1	non-food_inanimate_bucket	0	D	2	0	165	0		0	0	140.25032730028	140.350309200119
29944.5	0.100010199937969	544	hunger	stimuli/non_foods\non-food_animate_deer.jpg	1	4	1	non-food_animate_deer	0	X	17	0	105	0		0	0	140.40029010037	140.500300300308
29982	0.0999769000336528	545	hunger	stimuli/foods\apricot.jpg	1	4	1	apricot	1	J	6	0	2	0		0	0	140.550312700216	140.650289600249
30019.5	0.0999881997704506	546	hunger	stimuli/foods\salami.jpg	1	4	1	salami	1	F	3	0	263	0		0	0	140.700319100171	140.800307299942
30057	0.0999627998098731	547	hunger	stimuli/foods\grapefruits.jpg	1	4	1	grapefruits	1	H	5	0	59	0		0	0	140.850316100288	140.950278900098
30094.5	0.0999818001873791	548	hunger	stimuli/foods\chocolate_pralines.jpg	1	4	1	chocolate_pralines	1	D	2	0	28	0		0	0	141.000318000093	141.10029980028
30132	0.0999866002239287	549	hunger	stimuli/non_foods\non-food_inanimate_gloves.jpg	1	4	1	non-food_inanimate_gloves	0	V	15	0	183	0		0	0	141.15031399997	141.250300600193
30169.5	0.0999859999865294	550	hunger	stimuli/foods\coconut.jpg	1	4	1	coconut	1	H	5	0	33	0		0	0	141.300292500295	141.400278500281
30207	0.100000800099224	551	hunger	stimuli/foods\pomegranate.jpg	1	4	1	pomegranate	1	Z	18	0	244	0		0	0	141.450311399996	141.550312200096
30244.5	0.100008499808609	552	hunger	stimuli/foods\watermelon.jpg	1	4	1	watermelon	1	K	7	0	279	0		0	0	141.600307000335	141.700315500144
30282	0.100004899781197	553	hunger	stimuli/foods\green_olives.jpg	1	4	1	green_olives	1	R	12	0	62	0		0	0	141.750287600327	141.850292500108
30319.5	0.0999730001203716	554	hunger	stimuli/foods\lollies.jpg	1	4	1	lollies	1	W	16	0	78	0		0	0	141.900307500269	142.00028050039
30357	0.0999843003228307	555	hunger	stimuli/foods\potato_and_green_bean_salad.jpg	1	4	1	potato_and_green_bean_salad	1	K	7	0	246	0		0	0	142.050297399983	142.150281700306
30394.5	0.0999952000565827	556	hunger	stimuli/non_foods\non-food_animate_bee.jpg	1	4	1	non-food_animate_bee	0	F	3	0	95	0		0	0	142.20028220024	142.300277400296
30432	0.0999575997702777	557	hunger	stimuli/foods\fennel.jpg	1	4	1	fennel	1	K	7	0	47	0		0	0	142.350300600287	142.450258200057
30469.5	0.0999818001873791	558	hunger	stimuli/non_foods\non-food_inanimate_moss.jpg	1	4	1	non-food_inanimate_moss	0	W	16	0	194	0		0	0	142.50030020019	142.600282000378
30507	0.0999836996197701	559	hunger	stimuli/non_foods\non-food_inanimate_cupboard.jpg	1	4	1	non-food_inanimate_cupboard	0	R	12	0	177	0		0	0	142.650292100385	142.750275800005
30969.5	0.0999778998084366	560	hunger	stimuli/non_foods\non-food_animate_young_girl.jpg	1	5	1	non-food_animate_young_girl	0	Z	18	0	157	0		0	0	144.5002840003	144.600261900108
31007	0.0999867999926209	561	hunger	stimuli/non_foods\non-food_animate_frog.jpg	1	5	1	non-food_animate_frog	0	V	15	0	113	0		0	0	144.650274200365	144.750261000358
31044.5	0.0999838998541236	562	hunger	stimuli/foods\mango.jpg	1	5	1	mango	1	D	2	0	80	0		0	0	144.800272900146	144.9002568
31082	0.0999831999652088	563	hunger	stimuli/non_foods\non-food_animate_lizard.jpg	1	5	1	non-food_animate_lizard	0	T	14	0	126	0		0	0	144.95028670039	145.050269900355
31119.5	0.0999853000976145	564	hunger	stimuli/foods\waffle.jpg	1	5	1	waffle	1	G	4	0	278	0		0	0	145.100268600043	145.200253900141
31157	0.0999789000488818	565	hunger	stimuli/foods\salmon.jpg	1	5	1	salmon	1	B	0	0	264	0		0	0	145.250270599965	145.350249500014
31194.5	0.0999835999682546	566	hunger	stimuli/foods\lettuce.jpg	1	5	1	lettuce	1	L	8	0	75	0		0	0	145.400267400313	145.500251000281
31232	0.0999801000580192	567	hunger	stimuli/non_foods\non-food_animate_butterfly.jpg	1	5	1	non-food_animate_butterfly	0	D	2	0	96	0		0	0	145.550264500082	145.65024460014
31269.5	0.0999898002482951	568	hunger	stimuli/foods\wafer.jpg	1	5	1	wafer	1	M	9	0	277	0		0	0	145.700259000063	145.800248800311
31307	0.0999821000732481	569	hunger	stimuli/non_foods\non-food_inanimate_bowling_ball.jpg	1	5	1	non-food_inanimate_bowling_ball	0	F	3	0	162	0		0	0	145.850262000225	145.950244100299
31344.5	0.0999799999408424	570	hunger	stimuli/foods\pepperoni_pizza.jpg	1	5	1	pepperoni_pizza	1	J	6	0	241	0		0	0	146.000254600309	146.10023460025
31382	0.099976500030607	571	hunger	stimuli/non_foods\non-food_animate_dolphin.jpg	1	5	1	non-food_animate_dolphin	0	M	9	0	106	0		0	0	146.150264000054	146.250240500085
31419.5	0.0999988000839949	572	hunger	stimuli/non_foods\non-food_animate_cheetah.jpg	1	5	1	non-food_animate_cheetah	0	B	0	0	100	0		0	0	146.300240700133	146.400239500217
31457	0.100000699982047	573	hunger	stimuli/non_foods\non-food_inanimate_desk.jpg	1	5	1	non-food_inanimate_desk	0	S	13	0	178	0		0	0	146.450232299976	146.550232999958
31494.5	0.100003900006413	574	hunger	stimuli/non_foods\non-food_inanimate_waterlily.jpg	1	5	1	non-food_inanimate_waterlily	0	P	11	0	226	0		0	0	146.600240500178	146.700244400185
31532	0.0999706997536123	575	hunger	stimuli/non_foods\non-food_animate_student_female.jpg	1	5	1	non-food_animate_student_female	0	T	14	0	151	0		0	0	146.750255700201	146.850226399954
31569.5	0.0999777000397444	576	hunger	stimuli/non_foods\non-food_inanimate_short_sleeved_shirt.jpg	1	5	1	non-food_inanimate_short_sleeved_shirt	0	P	11	0	207	0		0	0	146.900260100141	147.000237800181
31607	0.0999982999637723	577	hunger	stimuli/foods\oregano.jpg	1	5	1	oregano	1	L	8	0	231	0		0	0	147.050233500078	147.150231800042
31644.5	0.099976500030607	578	hunger	stimuli/non_foods\non-food_animate_seal.jpg	1	5	1	non-food_animate_seal	0	M	9	0	146	0		0	0	147.200244999956	147.300221499987
31682	0.0999815999530256	579	hunger	stimuli/foods\capsicum.jpg	1	5	1	capsicum	1	V	15	0	18	0		0	0	147.35023810016	147.450219700113
31719.5	0.0999874998815358	580	hunger	stimuli/non_foods\non-food_animate_owl.jpg	1	5	1	non-food_animate_owl	0	N	10	0	132	0		0	0	147.500234300271	147.600221800152
31757	0.0999798998236656	581	hunger	stimuli/foods\dates.jpg	1	5	1	dates	1	P	11	0	43	0		0	0	147.650233500171	147.750213399995
31794.5	0.0999731998890638	582	hunger	stimuli/foods\orange.jpg	1	5	1	orange	1	W	16	0	230	0		0	0	147.800239200238	147.900212400127
31832	0.0999731998890638	583	hunger	stimuli/foods\pork_and_rice.jpg	1	5	1	pork_and_rice	1	N	10	0	245	0		0	0	147.950245600194	148.050218800083
31869.5	0.099989099893719	584	hunger	stimuli/non_foods\non-food_inanimate_bamboo.jpg	1	5	1	non-food_inanimate_bamboo	0	M	9	0	159	0		0	0	148.100233000237	148.200222100131
31907	0.0999815003015101	585	hunger	stimuli/foods\omelette.jpg	1	5	1	omelette	1	P	11	0	228	0		0	0	148.250234500039	148.350216000341
31944.5	0.0999940000474453	586	hunger	stimuli/non_foods\non-food_animate_runner.jpg	1	5	1	non-food_animate_runner	0	T	14	0	142	0		0	0	148.400230600033	148.50022460008
31982	0.0999623001553118	587	hunger	stimuli/non_foods\non-food_inanimate_buds.jpg	1	5	1	non-food_inanimate_buds	0	M	9	0	166	0		0	0	148.550251800101	148.650214100257
32019.5	0.0999861001037061	588	hunger	stimuli/non_foods\non-food_inanimate_soccer_ball.jpg	1	5	1	non-food_inanimate_soccer_ball	0	H	5	0	210	0		0	0	148.700225300156	148.800211400259
32057	0.099984799977392	589	hunger	stimuli/foods\oven-roasted_tomatoes.jpg	1	5	1	oven-roasted_tomatoes	1	M	9	0	232	0		0	0	148.850228200201	148.950213000178
32094.5	0.0999804004095495	590	hunger	stimuli/foods\smoked_ham.jpg	1	5	1	smoked_ham	1	P	11	0	266	0		0	0	149.000228099991	149.1002085004
32132	0.0999733996577561	591	hunger	stimuli/foods\chocolate_pudding.jpg	1	5	1	chocolate_pudding	1	G	4	0	29	0		0	0	149.15022370033	149.250197099987
32169.5	0.0999843999743462	592	hunger	stimuli/non_foods\non-food_inanimate_pine_cone.jpg	1	5	1	non-food_inanimate_pine_cone	0	L	8	0	200	0		0	0	149.300222100224	149.400206500199
32207	0.10001299995929	593	hunger	stimuli/foods\broccoli.jpg	1	5	1	broccoli	1	P	11	0	13	0		0	0	149.450193700381	149.55020670034
32244.5	0.0999866002239287	594	hunger	stimuli/foods\fried_zucchini.jpg	1	5	1	fried_zucchini	1	G	4	0	51	0		0	0	149.600215299986	149.70020190021
32282	0.0999837000854313	595	hunger	stimuli/foods\chocolate_bar.jpg	1	5	1	chocolate_bar	1	F	3	0	26	0		0	0	149.75021540001	149.850199100096
32319.5	0.0999871999956667	596	hunger	stimuli/foods\meatballs.jpg	1	5	1	meatballs	1	A	19	1	81	0		0	0	149.900212100241	150.000199300237
32357	0.0999835003167391	597	hunger	stimuli/foods\brussel_sprouts.jpg	1	5	1	brussel_sprouts	1	J	6	0	15	0		0	0	150.050214400049	150.150197900366
32394.5	0.0999900996685028	598	hunger	stimuli/non_foods\non-food_inanimate_moss.jpg	1	5	1	non-food_inanimate_moss	0	F	3	0	194	0		0	0	150.200210300274	150.300200399943
32432	0.0999406999908388	599	hunger	stimuli/non_foods\non-food_inanimate_sun_flower.jpg	1	5	1	non-food_inanimate_sun_flower	0	R	12	0	216	1	a	0.558654199820012	1	150.350254100282	150.450194800273
32469.5	0.099985099863261	600	hunger	stimuli/foods\prawn.jpg	1	5	1	prawn	1	W	16	0	249	0		0	0	150.500207700301	150.600192800164
32507	0.100002099759877	601	hunger	stimuli/non_foods\non-food_inanimate_cactus_pot_plant.jpg	1	5	1	non-food_inanimate_cactus_pot_plant	0	B	0	0	169	0		0	0	150.650188300293	150.750190400053
32544.5	0.0999694000929594	602	hunger	stimuli/non_foods\non-food_animate_duck.jpg	1	5	1	non-food_animate_duck	0	F	3	0	109	0		0	0	150.800204100087	150.90017350018
32582	0.0999811999499798	603	hunger	stimuli/foods\fruit_pie.jpg	1	5	1	fruit_pie	1	Z	18	0	54	0		0	0	150.950203200337	151.050184400287
32619.5	0.0999863003380597	604	hunger	stimuli/foods\pineapple.jpg	1	5	1	pineapple	1	G	4	0	243	0		0	0	151.100198199973	151.200184500311
32657	0.0999732003547251	605	hunger	stimuli/foods\peach.jpg	1	5	1	peach	1	F	3	0	238	0		0	0	151.250210599974	151.350183800329
32694.5	0.0999753996729851	606	hunger	stimuli/foods\fruit_salad.jpg	1	5	1	fruit_salad	1	Z	18	0	55	0		0	0	151.400205400307	151.50018079998
32732	0.0999884000048041	607	hunger	stimuli/non_foods\non-food_animate_elephant.jpg	1	5	1	non-food_animate_elephant	0	V	15	0	111	0		0	0	151.550194500014	151.650182900019
32769.5	0.0999841000884771	608	hunger	stimuli/foods\pomegranate.jpg	1	5	1	pomegranate	1	F	3	0	244	0		0	0	151.70019440027	151.800178500358
32807	0.0999819999560714	609	hunger	stimuli/non_foods\non-food_inanimate_headphones.jpg	1	5	1	non-food_inanimate_headphones	0	R	12	0	188	0		0	0	151.850191400386	151.950173400342
32844.5	0.100006800144911	610	hunger	stimuli/foods\spring_onions.jpg	1	5	1	spring_onions	1	D	2	0	269	0		0	0	152.000192100182	152.100198900327
32882	0.0999461999163032	611	hunger	stimuli/non_foods\non-food_animate_grasshopper.jpg	1	5	1	non-food_animate_grasshopper	0	P	11	0	117	0		0	0	152.150229700375	152.250175900292
32919.5	0.0999845000915229	612	hunger	stimuli/foods\donut.jpg	1	5	1	donut	1	W	16	0	44	0		0	0	152.300186300185	152.400170800276
32957	0.0999833000823855	613	hunger	stimuli/foods\grilled_chicken_breast.jpg	1	5	1	grilled_chicken_breast	1	F	3	0	63	0		0	0	152.45018870011	152.550172000192
32994.5	0.0999859999865294	614	hunger	stimuli/foods\pumpkin.jpg	1	5	1	pumpkin	1	D	2	0	250	0		0	0	152.600180299953	152.700166299939
33032	0.0999858002178371	615	hunger	stimuli/foods\cracker.jpg	1	5	1	cracker	1	H	5	0	38	0		0	0	152.750181199983	152.850167000201
33069.5	0.0999817997217178	616	hunger	stimuli/non_foods\non-food_animate_woman.jpg	1	5	1	non-food_animate_woman	0	F	3	0	154	0		0	0	152.900181600358	153.00016340008
33107	0.0999860996380448	617	hunger	stimuli/non_foods\non-food_inanimate_toilet.jpg	1	5	1	non-food_inanimate_toilet	0	M	9	0	220	0		0	0	153.050177300349	153.150163399987
33144.5	0.0999698000960052	618	hunger	stimuli/foods\cherry.jpg	1	5	1	cherry	1	Z	18	0	23	0		0	0	153.200195400044	153.30016520014
33182	0.0999587001278996	619	hunger	stimuli/foods\cereal.jpg	1	5	1	cereal	1	J	6	0	22	0		0	0	153.350176400039	153.450135100167
33219.5	0.0999755999073386	620	hunger	stimuli/non_foods\non-food_inanimate_button.jpg	1	5	1	non-food_inanimate_button	0	C	1	0	168	0		0	0	153.500163200311	153.600138800219
33257	0.0999869997613132	621	hunger	stimuli/foods\almonds.jpg	1	5	1	almonds	1	D	2	0	0	0		0	0	153.650164000224	153.750150999986
33294.5	0.0999758997932076	622	hunger	stimuli/foods\mushroom.jpg	1	5	1	mushroom	1	P	11	0	85	0		0	0	153.800170000177	153.90014589997
33332	0.0999491000548005	623	hunger	stimuli/foods\avocado.jpg	1	5	1	avocado	1	K	7	0	5	0		0	0	153.950199100189	154.050148200244
33369.5	0.0999785996973515	624	hunger	stimuli/foods\red_cabbage.jpg	1	5	1	red_cabbage	1	B	0	0	256	0		0	0	154.100159600377	154.200138200074
33407	0.0999758001416922	625	hunger	stimuli/non_foods\non-food_animate_eagle.jpg	1	5	1	non-food_animate_eagle	0	G	4	0	110	0		0	0	154.250164700206	154.350140500348
33444.5	0.0999880000017583	626	hunger	stimuli/non_foods\non-food_animate_mammoth.jpg	1	5	1	non-food_animate_mammoth	0	A	19	1	128	0		0	0	154.400159700308	154.50014770031
33482	0.0999871003441513	627	hunger	stimuli/non_foods\non-food_inanimate_socks.jpg	1	5	1	non-food_inanimate_socks	0	W	16	0	211	0		0	0	154.550160299987	154.650147400331
33519.5	0.0999889001250267	628	hunger	stimuli/foods\steak.jpg	1	5	1	steak	1	D	2	0	270	0		0	0	154.700157000218	154.800145900343
33557	0.099980799946934	629	hunger	stimuli/foods\swordfish.jpg	1	5	1	swordfish	1	J	6	0	273	0		0	0	154.85015950026	154.950140300207
33594.5	0.0999963004142046	630	hunger	stimuli/foods\fruit_flan.jpg	1	5	1	fruit_flan	1	H	5	0	53	1	a	0.593249999918044	1	155.000163699966	155.10016000038
33632	0.0999886998906732	631	hunger	stimuli/non_foods\non-food_animate_llama.jpg	1	5	1	non-food_animate_llama	0	W	16	0	127	0		0	0	155.150158100296	155.250146800186
33669.5	0.0999852996319532	632	hunger	stimuli/foods\apple.jpg	1	5	1	apple	1	M	9	0	1	0		0	0	155.300152300391	155.400137600023
33707	0.099989399779588	633	hunger	stimuli/foods\lamb_chops.jpg	1	5	1	lamb_chops	1	R	12	0	70	0		0	0	155.45014940016	155.550138799939
33744.5	0.10000710003078	634	hunger	stimuli/foods\carrot.jpg	1	5	1	carrot	1	J	6	0	19	0		0	0	155.600154499989	155.70016160002
33782	0.0999787002801895	635	hunger	stimuli/foods\potatoes.jpg	1	5	1	potatoes	1	F	3	0	248	0		0	0	155.750183199998	155.850161900278
33819.5	0.0999795999377966	636	hunger	stimuli/non_foods\non-food_animate_kangaroo.jpg	1	5	1	non-food_animate_kangaroo	0	M	9	0	122	0		0	0	155.900149300229	156.000128900167
33857	0.0999851999804378	637	hunger	stimuli/foods\cooked_prawn.jpg	1	5	1	cooked_prawn	1	D	2	0	36	0		0	0	156.050143400207	156.150128600188
33894.5	0.0999877997674048	638	hunger	stimuli/non_foods\non-food_inanimate_folding_chair.jpg	1	5	1	non-food_inanimate_folding_chair	0	F	3	0	182	0		0	0	156.200142000336	156.300129800104
33932	0.0999798998236656	639	hunger	stimuli/non_foods\non-food_animate_caterpillar.jpg	1	5	1	non-food_animate_caterpillar	0	C	1	0	99	0		0	0	156.350143600255	156.450123500079
33969.5	0.0999851999804378	640	hunger	stimuli/foods\lollies.jpg	1	5	1	lollies	1	J	6	0	78	0		0	0	156.500137499999	156.60012269998
34007	0.099980500061065	641	hunger	stimuli/non_foods\non-food_animate_sea_lion.jpg	1	5	1	non-food_animate_sea_lion	0	Z	18	0	143	0		0	0	156.650140400045	156.750120900106
34044.5	0.0999790001660585	642	hunger	stimuli/foods\cucumber.jpg	1	5	1	cucumber	1	C	1	0	41	0		0	0	156.800141700078	156.900120700244
34082	0.0999881001189351	643	hunger	stimuli/non_foods\non-food_animate_fox.jpg	1	5	1	non-food_animate_fox	0	W	16	0	112	0		0	0	156.950132200029	157.050120300148
34119.5	0.0999842002056539	644	hunger	stimuli/non_foods\non-food_inanimate_towel.jpg	1	5	1	non-food_inanimate_towel	0	N	10	0	221	0		0	0	157.100133900065	157.200118100271
34157	0.0999817000702024	645	hunger	stimuli/foods\pancakes.jpg	1	5	1	pancakes	1	H	5	0	234	0		0	0	157.25013629999	157.35011800006
34194.5	0.0999977001920342	646	hunger	stimuli/non_foods\non-food_inanimate_skirt.jpg	1	5	1	non-food_inanimate_skirt	0	B	0	0	209	0		0	0	157.400131199975	157.500128900167
34232	0.0999409998767078	647	hunger	stimuli/foods\risotto_with_zucchini.jpg	1	5	1	risotto_with_zucchini	1	L	8	0	260	0		0	0	157.550152700394	157.650093700271
34269.5	0.0999853000976145	648	hunger	stimuli/non_foods\non-food_inanimate_watering_can.jpg	1	5	1	non-food_inanimate_watering_can	0	M	9	0	225	0		0	0	157.700124300085	157.800109600183
34307	0.0999859999865294	649	hunger	stimuli/non_foods\non-food_inanimate_leaf.jpg	1	5	1	non-food_inanimate_leaf	0	W	16	0	192	0		0	0	157.850122800097	157.950108800083
34344.5	0.099983099848032	650	hunger	stimuli/foods\rockmelon.jpg	1	5	1	rockmelon	1	Z	18	0	262	0		0	0	158.000122300349	158.100105400197
34382	0.100003200117499	651	hunger	stimuli/non_foods\non-food_animate_slug.jpg	1	5	1	non-food_animate_slug	0	K	7	0	148	0		0	0	158.150117400102	158.25012060022
