onset	duration	eventnumber	hunger_condition	stimfilename	blockno	trialno	is_faststream	stim	food_idx	letter	letter_idx	istarget	image_number	response	keypressed	rt	correct	time_stimon	time_stimoff
11107.5	0.099974500015378	0	satiated	stimuli/foods\hotdog.jpg	1	1	1	hotdog	1	S	13	0	67	0		0	0	60.9590798001736	61.059054300189
11145	0.100027800071985	1	satiated	stimuli/foods\salmon.jpg	1	1	1	salmon	1	R	12	0	264	0		0	0	61.1090799001977	61.2091077002697
11182.5	0.0999837000854313	2	satiated	stimuli/non_foods\non-food_animate_bat.jpg	1	1	1	non-food_animate_bat	0	X	17	0	94	0		0	0	61.2590681002475	61.359051800333
11220	0.0999863999895751	3	satiated	stimuli/non_foods\non-food_animate_porcupine.jpg	1	1	1	non-food_animate_porcupine	0	G	4	0	138	0		0	0	61.4090625001118	61.5090489001013
11257.5	0.0999948000535369	4	satiated	stimuli/foods\rice_cake.jpg	1	1	1	rice_cake	1	L	8	0	258	0		0	0	61.5590359000489	61.6590307001024
11295	0.100025200285017	5	satiated	stimuli/foods\cucumber.jpg	1	1	1	cucumber	1	J	6	0	41	0		0	0	61.7090515000746	61.8090767003596
11332.5	0.0999881001189351	6	satiated	stimuli/foods\hamburger.jpg	1	1	1	hamburger	1	T	14	0	64	0		0	0	61.8590453001671	61.959033400286
11370	0.0999902999028563	7	satiated	stimuli/non_foods\non-food_inanimate_bowling_ball.jpg	1	1	1	non-food_inanimate_bowling_ball	0	N	10	0	162	0		0	0	62.0090477000922	62.1090379999951
11407.5	0.0999825000762939	8	satiated	stimuli/foods\celery.jpg	1	1	1	celery	1	D	2	0	21	0		0	0	62.1590485000052	62.2590310000814
11445	0.0999822998419404	9	satiated	stimuli/non_foods\non-food_animate_cow.jpg	1	1	1	non-food_animate_cow	0	G	4	0	103	0		0	0	62.3090465003625	62.4090288002044
11482.5	0.100002400111407	10	satiated	stimuli/non_foods\non-food_inanimate_skateboard.jpg	1	1	1	non-food_inanimate_skateboard	0	N	10	0	208	0		0	0	62.4590358999558	62.5590383000672
11520	0.0999843999743462	11	satiated	stimuli/foods\ice_cream.jpg	1	1	1	ice_cream	1	C	1	0	68	0		0	0	62.6090489001945	62.7090333001688
11557.5	0.100006999913603	12	satiated	stimuli/foods\bagel.jpg	1	1	1	bagel	1	L	8	0	6	0		0	0	62.7590236002579	62.8590306001715
11595	0.0997345000505447	13	satiated	stimuli/foods\lamb_chops.jpg	1	1	1	lamb_chops	1	X	17	0	70	0		0	0	62.90928550018	63.0090200002305
11632.5	0.0999793997034431	14	satiated	stimuli/foods\smoked_ham.jpg	1	1	1	smoked_ham	1	C	1	0	266	0		0	0	63.0590484002605	63.159027799964
11670	0.0999688003212214	15	satiated	stimuli/foods\brussel_sprouts.jpg	1	1	1	brussel_sprouts	1	F	3	0	15	0		0	0	63.2090443000197	63.309013100341
11707.5	0.100006400141865	16	satiated	stimuli/non_foods\non-food_animate_millipede.jpg	1	1	1	non-food_animate_millipede	0	K	7	0	129	0		0	0	63.3590226001106	63.4590290002525
11745	0.100003800354898	17	satiated	stimuli/non_foods\non-food_animate_baby_crawling.jpg	1	1	1	non-food_animate_baby_crawling	0	M	9	0	92	0		0	0	63.5090427999385	63.6090466002934
11782.5	0.100002899765968	18	satiated	stimuli/non_foods\non-food_animate_cat.jpg	1	1	1	non-food_animate_cat	0	B	0	0	98	0		0	0	63.6590213002637	63.7590242000297
11820	0.0999966003000736	19	satiated	stimuli/foods\red_beans.jpg	1	1	1	red_beans	1	J	6	0	255	0		0	0	63.809028299991	63.9090249002911
11857.5	0.0999842002056539	20	satiated	stimuli/foods\minestrone_soup.jpg	1	1	1	minestrone_soup	1	S	13	0	82	0		0	0	63.9590400001034	64.0590242003091
11895	0.100009100046009	21	satiated	stimuli/foods\clams.jpg	1	1	1	clams	1	Z	18	0	32	0		0	0	64.1090088002384	64.2090179002844
11932.5	0.0999858998693526	22	satiated	stimuli/non_foods\non-food_animate_runner.jpg	1	1	1	non-food_animate_runner	0	H	5	0	142	0		0	0	64.2590330000967	64.359018899966
11970	0.0999823999591172	23	satiated	stimuli/non_foods\non-food_animate_yellow_bug.jpg	1	1	1	non-food_animate_yellow_bug	0	X	17	0	155	0		0	0	64.4090324002318	64.5090148001909
12007.5	0.0999901001341641	24	satiated	stimuli/non_foods\non-food_inanimate_nettle.jpg	1	1	1	non-food_inanimate_nettle	0	R	12	0	197	0		0	0	64.5590081000701	64.6589982002042
12045	0.0999580002389848	25	satiated	stimuli/foods\spring_onions.jpg	1	1	1	spring_onions	1	W	16	0	269	0		0	0	64.7090457999147	64.8090038001537
12082.5	0.0999818001873791	26	satiated	stimuli/non_foods\non-food_animate_green_bug.jpg	1	1	1	non-food_animate_green_bug	0	I	21	1	118	0		0	0	64.8590198000893	64.9590016002767
12120	0.0999818998388946	27	satiated	stimuli/non_foods\non-food_inanimate_cupboard.jpg	1	1	1	non-food_inanimate_cupboard	0	N	10	0	177	0		0	0	65.0090148001909	65.1089967000298
12157.5	0.100001099985093	28	satiated	stimuli/non_foods\non-food_inanimate_toilet.jpg	1	1	1	non-food_inanimate_toilet	0	V	15	0	220	1	a	0.293504199944437	1	65.1590053001419	65.259006400127
12195	0.0999949998222291	29	satiated	stimuli/foods\lentils.jpg	1	1	1	lentils	1	C	1	0	74	0		0	0	65.3090099003166	65.4090049001388
12232.5	0.0999685996212065	30	satiated	stimuli/non_foods\non-food_inanimate_table.jpg	1	1	1	non-food_inanimate_table	0	V	15	0	217	0		0	0	65.4590358003043	65.5590043999255
12270	0.0999906999059021	31	satiated	stimuli/foods\mandarin.jpg	1	1	1	mandarin	1	F	3	0	79	0		0	0	65.6090175001882	65.7090082000941
12307.5	0.099985099863261	32	satiated	stimuli/non_foods\non-food_animate_horse.jpg	1	1	1	non-food_animate_horse	0	G	4	0	119	0		0	0	65.7590155000798	65.8590005999431
12345	0.0999855999834836	33	satiated	stimuli/non_foods\non-food_inanimate_leaf.jpg	1	1	1	non-food_inanimate_leaf	0	D	2	0	192	0		0	0	65.9090122999623	66.0089978999458
12382.5	0.0999813000671566	34	satiated	stimuli/non_foods\non-food_inanimate_soccer_ball.jpg	1	1	1	non-food_inanimate_soccer_ball	0	C	1	0	210	0		0	0	66.0590156000108	66.1589969000779
12420	0.0999832996167243	35	satiated	stimuli/foods\spaghetti_with_meat_sauce.jpg	1	1	1	spaghetti_with_meat_sauce	1	N	10	0	267	0		0	0	66.2090124003589	66.3089956999756
12457.5	0.099987399764359	36	satiated	stimuli/foods\frankfurter_and_provolone_salad.jpg	1	1	1	frankfurter_and_provolone_salad	1	S	13	0	49	0		0	0	66.3590016001835	66.4589889999479
12495	0.0999790001660585	37	satiated	stimuli/foods\taco.jpg	1	1	1	taco	1	F	3	0	274	0		0	0	66.5090040001087	66.6089830002747
12532.5	0.100000000093132	38	satiated	stimuli/foods\papaya.jpg	1	1	1	papaya	1	C	1	0	235	0		0	0	66.6589910001494	66.7589910002425
12570	0.0999674000777304	39	satiated	stimuli/non_foods\non-food_inanimate_skirt.jpg	1	1	1	non-food_inanimate_skirt	0	P	11	0	209	0		0	0	66.8090039002709	66.9089713003486
12607.5	0.100007299799472	40	satiated	stimuli/foods\cracker.jpg	1	1	1	cracker	1	S	13	0	38	0		0	0	66.9589896001853	67.0589968999848
12645	0.0999718001112342	41	satiated	stimuli/foods\kiwi.jpg	1	1	1	kiwi	1	T	14	0	69	0		0	0	67.1090195002034	67.2089913003147
12682.5	0.100004199892282	42	satiated	stimuli/foods\roasted_chicken.jpg	1	1	1	roasted_chicken	1	F	3	0	261	0		0	0	67.2589786001481	67.3589828000404
12720	0.0999733000062406	43	satiated	stimuli/foods\raisins.jpg	1	1	1	raisins	1	N	10	0	252	0		0	0	67.4090078999288	67.5089811999351
12757.5	0.0999859003350139	44	satiated	stimuli/non_foods\non-food_animate_bee.jpg	1	1	1	non-food_animate_bee	0	V	15	0	95	0		0	0	67.5589928999543	67.6589788002893
12795	0.0999884000048041	45	satiated	stimuli/non_foods\non-food_inanimate_towel.jpg	1	1	1	non-food_inanimate_towel	0	N	10	0	221	0		0	0	67.7089933999814	67.8089817999862
12832.5	0.0999839999713004	46	satiated	stimuli/non_foods\non-food_animate_Causasian_man.jpg	1	1	1	non-food_animate_Causasian_man	0	X	17	0	89	0		0	0	67.8589924001135	67.9589764000848
12870	0.0999877997674048	47	satiated	stimuli/non_foods\non-food_inanimate_teddy_bear.jpg	1	1	1	non-food_inanimate_teddy_bear	0	W	16	0	218	0		0	0	68.0089895003475	68.1089773001149
12907.5	0.0999849000945687	48	satiated	stimuli/non_foods\non-food_inanimate_tree.jpg	1	1	1	non-food_inanimate_tree	0	T	14	0	223	0		0	0	68.1589915999211	68.2589765000157
12945	0.0999858002178371	49	satiated	stimuli/non_foods\non-food_animate_chicken.jpg	1	1	1	non-food_animate_chicken	0	S	13	0	101	0		0	0	68.3089878000319	68.4089736002497
12982.5	0.0999886002391577	50	satiated	stimuli/foods\chocolate_pralines.jpg	1	1	1	chocolate_pralines	1	P	11	0	28	0		0	0	68.4589839000255	68.5589725002646
13020	0.0999829997308552	51	satiated	stimuli/foods\risotto_with_zucchini.jpg	1	1	1	risotto_with_zucchini	1	X	17	0	260	0		0	0	68.6089845001698	68.7089674999006
13057.5	0.0999851999804378	52	satiated	stimuli/non_foods\non-food_animate_ladybug.jpg	1	1	1	non-food_animate_ladybug	0	C	1	0	124	0		0	0	68.7589827002957	68.8589679002762
13095	0.0999392000958323	53	satiated	stimuli/foods\chilli.jpg	1	1	1	chilli	1	N	10	0	25	0		0	0	68.9090264001861	69.008965600282
13132.5	0.099985099863261	54	satiated	stimuli/non_foods\non-food_inanimate_nest.jpg	1	1	1	non-food_inanimate_nest	0	K	7	0	196	0		0	0	69.0589784001932	69.1589635000564
13170	0.0999650997109711	55	satiated	stimuli/foods\raw_sausage.jpg	1	1	1	raw_sausage	1	P	11	0	254	0		0	0	69.2089734002948	69.3089385000058
13207.5	0.0999814998358488	56	satiated	stimuli/foods\grapes.jpg	1	1	1	grapes	1	N	10	0	60	0		0	0	69.3589793001302	69.458960799966
13245	0.0999845997430384	57	satiated	stimuli/foods\baked_cod_with_carrots_and_green_beans.jpg	1	1	1	baked_cod_with_carrots_and_green_beans	1	X	17	0	7	0		0	0	69.5089728003368	69.6089574000798
13282.5	0.0999872996471822	58	satiated	stimuli/non_foods\non-food_animate_squirrel.jpg	1	1	1	non-food_animate_squirrel	0	H	5	0	150	0		0	0	69.6589725003578	69.758959800005
13320	0.0999865001067519	59	satiated	stimuli/foods\linguine_with_clams.jpg	1	1	1	linguine_with_clams	1	W	16	0	77	0		0	0	69.8089703000151	69.9089568001218
13357.5	0.100008599925786	60	satiated	stimuli/foods\wafer.jpg	1	1	1	wafer	1	S	13	0	277	0		0	0	69.9589673001319	70.0589759000577
13395	0.0999858002178371	61	satiated	stimuli/foods\fried_calamari.jpg	1	1	1	fried_calamari	1	B	0	0	50	0		0	0	70.1089699999429	70.2089558001608
13432.5	0.0999803999438882	62	satiated	stimuli/non_foods\non-food_inanimate_cap.jpg	1	1	1	non-food_inanimate_cap	0	P	11	0	171	0		0	0	70.2589694000781	70.3589498000219
13470	0.0999874002300203	63	satiated	stimuli/foods\lasagna.jpg	1	1	1	lasagna	1	J	6	0	71	0		0	0	70.4089641999453	70.5089516001754
13507.5	0.100033500231802	64	satiated	stimuli/non_foods\non-food_inanimate_nailpolish.jpg	1	1	1	non-food_inanimate_nailpolish	0	L	8	0	195	0		0	0	70.5589630999602	70.658996600192
13545	0.0999669996090233	65	satiated	stimuli/non_foods\non-food_animate_deer.jpg	1	1	1	non-food_animate_deer	0	G	4	0	105	0		0	0	70.7089810003527	70.8089479999617
13582.5	0.0999607001431286	66	satiated	stimuli/non_foods\non-food_animate_raccoon.jpg	1	1	1	non-food_animate_raccoon	0	R	12	0	139	1	a	0	0	70.8589872000739	70.958947900217
13620	0.0999843999743462	67	satiated	stimuli/foods\swordfish.jpg	1	1	1	swordfish	1	W	16	0	273	0		0	0	71.0089577003382	71.1089421003126
13657.5	0.100005500018597	68	satiated	stimuli/non_foods\non-food_inanimate_hay.jpg	1	1	1	non-food_inanimate_hay	0	B	0	0	187	0		0	0	71.1589556001127	71.2589611001313
13695	0.100009700283408	69	satiated	stimuli/non_foods\non-food_animate_seal.jpg	1	1	1	non-food_animate_seal	0	V	15	0	146	0		0	0	71.3089336999692	71.4089434002526
13732.5	0.10001470008865	70	satiated	stimuli/non_foods\non-food_animate_skunk.jpg	1	1	1	non-food_animate_skunk	0	G	4	0	147	0		0	0	71.4589221999049	71.5589368999936
13770	0.0999896000139415	71	satiated	stimuli/foods\broccoli.jpg	1	1	1	broccoli	1	U	23	1	13	0		0	0	71.6089482000098	71.7089378000237
13807.5	0.0999695998616517	72	satiated	stimuli/foods\lollies.jpg	1	1	1	lollies	1	P	11	0	78	0		0	0	71.7589667001739	71.8589363000356
13845	0.0999863999895751	73	satiated	stimuli/foods\apple.jpg	1	1	1	apple	1	S	13	0	1	0		0	0	71.9089462999254	72.008932699915
13882.5	0.099978799931705	74	satiated	stimuli/foods\baked_lamb_with_potatoes.jpg	1	1	1	baked_lamb_with_potatoes	1	X	17	0	8	1	a	0.541830000001937	1	72.0589540000074	72.1589327999391
13920	0.0999837000854313	75	satiated	stimuli/foods\cinnamon.jpg	1	1	1	cinnamon	1	G	4	0	30	0		0	0	72.2089440999553	72.3089278000407
13957.5	0.100017500109971	76	satiated	stimuli/foods\mussels.jpg	1	1	1	mussels	1	X	17	0	86	0		0	0	72.3589554000646	72.4589729001746
13995	0.0999590000137687	77	satiated	stimuli/non_foods\non-food_animate_dragonfly.jpg	1	1	1	non-food_animate_dragonfly	0	J	6	0	108	0		0	0	72.5089684003033	72.608927400317
14032.5	0.0999835999682546	78	satiated	stimuli/non_foods\non-food_inanimate_ring.jpg	1	1	1	non-food_inanimate_ring	0	M	9	0	203	0		0	0	72.6589389001019	72.7589225000702
14070	0.0999869001097977	79	satiated	stimuli/non_foods\non-food_inanimate_orchid.jpg	1	1	1	non-food_inanimate_orchid	0	F	3	0	198	0		0	0	72.8089378001168	72.9089247002266
14107.5	0.0999835003167391	80	satiated	stimuli/foods\fruit_flan.jpg	1	1	1	fruit_flan	1	V	15	0	53	0		0	0	72.9589372999035	73.0589208002202
14145	0.099970200099051	81	satiated	stimuli/foods\donut.jpg	1	1	1	donut	1	X	17	0	44	0		0	0	73.1089357002638	73.2089059003629
14182.5	0.100008899811655	82	satiated	stimuli/non_foods\non-food_inanimate_shell.jpg	1	1	1	non-food_inanimate_shell	0	W	16	0	206	0		0	0	73.258911000099	73.3589198999107
14220	0.099968200083822	83	satiated	stimuli/foods\grapefruits.jpg	1	1	1	grapefruits	1	C	1	0	59	0		0	0	73.408930900041	73.5088991001248
14257.5	0.0999325001612306	84	satiated	stimuli/non_foods\non-food_animate_llama.jpg	1	1	1	non-food_animate_llama	0	S	13	0	127	0		0	0	73.5589764001779	73.6589089003392
14295	0.100007299799472	85	satiated	stimuli/non_foods\non-food_inanimate_bucket.jpg	1	1	1	non-food_inanimate_bucket	0	G	4	0	165	0		0	0	73.7089065001346	73.8089137999341
14332.5	0.0999493999406695	86	satiated	stimuli/foods\cereal.jpg	1	1	1	cereal	1	M	9	0	22	0		0	0	73.8589266999625	73.9588760999031
14370	0.100007299799472	87	satiated	stimuli/foods\pineapple.jpg	1	1	1	pineapple	1	W	16	0	243	0		0	0	74.0089075001888	74.1089147999883
14407.5	0.100013099610806	88	satiated	stimuli/non_foods\non-food_animate_woman.jpg	1	1	1	non-food_animate_woman	0	V	15	0	154	0		0	0	74.1589244003408	74.2589374999516
14445	0.0999612002633512	89	satiated	stimuli/non_foods\non-food_animate_donkey.jpg	1	1	1	non-food_animate_donkey	0	W	16	0	107	0		0	0	74.3089443999343	74.4089056001976
14482.5	0.099984799977392	90	satiated	stimuli/foods\rice.jpg	1	1	1	rice	1	L	8	0	257	0		0	0	74.4589202003554	74.5589050003327
14520	0.099987699650228	91	satiated	stimuli/non_foods\non-food_inanimate_speakers.jpg	1	1	1	non-food_inanimate_speakers	0	D	2	0	212	0		0	0	74.6089179003611	74.7089056000113
14557.5	0.0999867999926209	92	satiated	stimuli/non_foods\non-food_animate_butterfly.jpg	1	1	1	non-food_animate_butterfly	0	N	10	0	96	0		0	0	74.7589150001295	74.8589018001221
14595	0.0999875003471971	93	satiated	stimuli/non_foods\non-food_animate_eagle.jpg	1	1	1	non-food_animate_eagle	0	C	1	0	110	0		0	0	74.908913299907	75.0089008002542
14632.5	0.0999867003411055	94	satiated	stimuli/non_foods\non-food_animate_sea_lion.jpg	1	1	1	non-food_animate_sea_lion	0	F	3	0	143	0		0	0	75.058912999928	75.1588997002691
14670	0.0999805997125804	95	satiated	stimuli/non_foods\non-food_animate_mouse.jpg	1	1	1	non-food_animate_mouse	0	S	13	0	131	0		0	0	75.2089130003005	75.3088936000131
14707.5	0.099959900137037	96	satiated	stimuli/foods\capsicum.jpg	1	1	1	capsicum	1	X	17	0	18	0		0	0	75.3589093000628	75.4588692001998
14745	0.0999833000823855	97	satiated	stimuli/foods\pea_pod.jpg	1	1	1	pea_pod	1	K	7	0	237	0		0	0	75.508901800029	75.6088851001114
14782.5	0.0999819999560714	98	satiated	stimuli/foods\blackberry.jpg	1	1	1	blackberry	1	V	15	0	11	0		0	0	75.6589001002721	75.7588821002282
14820	0.099989699665457	99	satiated	stimuli/foods\waffle.jpg	1	1	1	waffle	1	X	17	0	278	0		0	0	75.8089002002962	75.9088898999617
14857.5	0.100002400111407	100	satiated	stimuli/non_foods\non-food_inanimate_fire_extinguisher.jpg	1	1	1	non-food_inanimate_fire_extinguisher	0	P	11	0	181	0		0	0	75.958902399987	76.0589048000984
14895	0.0999869001097977	101	satiated	stimuli/foods\prawn.jpg	1	1	1	prawn	1	V	15	0	249	0		0	0	76.1089007002302	76.2088876003399
14932.5	0.100003500003368	102	satiated	stimuli/foods\coconut.jpg	1	1	1	coconut	1	Z	18	0	33	0		0	0	76.2588758002967	76.3588793003
14970	0.0999839999713004	103	satiated	stimuli/non_foods\non-food_inanimate_socks.jpg	1	1	1	non-food_inanimate_socks	0	F	3	0	211	0		0	0	76.4088921002112	76.5088761001825
15007.5	0.0999867003411055	104	satiated	stimuli/non_foods\non-food_animate_mammoth.jpg	1	1	1	non-food_animate_mammoth	0	K	7	0	128	0		0	0	76.5588887999766	76.6588755003177
15045	0.100003900006413	105	satiated	stimuli/foods\oven-roasted_tomatoes.jpg	1	1	1	oven-roasted_tomatoes	1	L	8	0	232	0		0	0	76.7088787001558	76.8088826001622
15082.5	0.0999821997247636	106	satiated	stimuli/non_foods\non-food_animate_snail.jpg	1	1	1	non-food_animate_snail	0	F	3	0	149	0		0	0	76.8588943001814	76.9588764999062
15120	0.10000710003078	107	satiated	stimuli/foods\nectarine.jpg	1	1	1	nectarine	1	V	15	0	87	0		0	0	77.0088888001628	77.1088959001936
15157.5	0.0999842002056539	108	satiated	stimuli/foods\fennel.jpg	1	1	1	fennel	1	L	8	0	47	0		0	0	77.1588898999617	77.2588741001673
15195	0.0999846002086997	109	satiated	stimuli/non_foods\non-food_animate_lizard.jpg	1	1	1	non-food_animate_lizard	0	K	7	0	126	0		0	0	77.3088889000937	77.4088735003024
15232.5	0.0999870002269745	110	satiated	stimuli/non_foods\non-food_animate_tortoise.jpg	1	1	1	non-food_animate_tortoise	0	R	12	0	153	0		0	0	77.4588870001025	77.5588740003295
15270	0.0999917001463473	111	satiated	stimuli/non_foods\non-food_animate_fox.jpg	1	1	1	non-food_animate_fox	0	G	4	0	112	0		0	0	77.6088837999851	77.7088755001314
15307.5	0.0999950002878904	112	satiated	stimuli/non_foods\non-food_inanimate_protractor.jpg	1	1	1	non-food_inanimate_protractor	0	X	17	0	201	0		0	0	77.7589088999666	77.8589039002545
15345	0.0999630996957421	113	satiated	stimuli/non_foods\non-food_inanimate_tent.jpg	1	1	1	non-food_inanimate_tent	0	B	0	0	219	0		0	0	77.9088973002508	78.0088603999466
15382.5	0.0999845000915229	114	satiated	stimuli/foods\red_cabbage.jpg	1	1	1	red_cabbage	1	R	12	0	256	0		0	0	78.0588760999963	78.1588606000878
15420	0.0999789000488818	115	satiated	stimuli/non_foods\non-food_inanimate_fern.jpg	1	1	1	non-food_inanimate_fern	0	M	9	0	180	0		0	0	78.2088677999564	78.3088467000052
15457.5	0.100003100000322	116	satiated	stimuli/non_foods\non-food_animate_dolphin.jpg	1	1	1	non-food_animate_dolphin	0	Z	18	0	106	0		0	0	78.3588582002558	78.4588613002561
15495	0.0999839003197849	117	satiated	stimuli/foods\eggplant.jpg	1	1	1	eggplant	1	F	3	0	46	0		0	0	78.5088754999451	78.6088594002649
15532.5	0.0999892996624112	118	satiated	stimuli/non_foods\non-food_inanimate_rope.jpg	1	1	1	non-food_inanimate_rope	0	R	12	0	204	0		0	0	78.6588727002963	78.7588619999588
15570	0.0999894998967648	119	satiated	stimuli/non_foods\non-food_inanimate_construction_helment.jpg	1	1	1	non-food_inanimate_construction_helment	0	T	14	0	175	0		0	0	78.808869600296	78.9088591001928
15607.5	0.099989699665457	120	satiated	stimuli/foods\onion.jpg	1	1	1	onion	1	S	13	0	229	0		0	0	78.9588685003109	79.0588581999764
15645	0.0999867999926209	121	satiated	stimuli/foods\ginger_root.jpg	1	1	1	ginger_root	1	R	12	0	57	0		0	0	79.1088710003532	79.2088578003459
15682.5	0.0999858002178371	122	satiated	stimuli/non_foods\non-food_inanimate_rack.jpg	1	1	1	non-food_inanimate_rack	0	J	6	0	202	0		0	0	79.2588663999923	79.3588522002101
15720	0.0999910999089479	123	satiated	stimuli/foods\pumpkin.jpg	1	1	1	pumpkin	1	K	7	0	250	0		0	0	79.4088655002415	79.5088566001505
15757.5	0.0999410999938846	124	satiated	stimuli/foods\banana.jpg	1	1	1	banana	1	X	17	0	9	0		0	0	79.5589078003541	79.6588489003479
15795	0.0999888000078499	125	satiated	stimuli/non_foods\non-food_inanimate_canoe.jpg	1	1	1	non-food_inanimate_canoe	0	H	5	0	170	0		0	0	79.70886050025	79.8088493002579
15832.5	0.0999602000229061	126	satiated	stimuli/foods\fried_zucchini.jpg	1	1	1	fried_zucchini	1	F	3	0	51	0		0	0	79.8588629001752	79.9588231001981
15870	0.0999846998602152	127	satiated	stimuli/non_foods\non-food_animate_young_girl.jpg	1	1	1	non-food_animate_young_girl	0	L	8	0	157	0		0	0	80.0088499002159	80.1088346000761
15907.5	0.0999886002391577	128	satiated	stimuli/foods\savory_pie.jpg	1	1	1	savory_pie	1	Z	18	0	265	0		0	0	80.1588498000056	80.2588384002447
15945	0.0999896000139415	129	satiated	stimuli/foods\pomegranate.jpg	1	1	1	pomegranate	1	D	2	0	244	0		0	0	80.3088485002518	80.4088381002657
15982.5	0.0999823999591172	130	satiated	stimuli/foods\toasted_bread_with_tomatoes.jpg	1	1	1	toasted_bread_with_tomatoes	1	R	12	0	275	0		0	0	80.4588458002545	80.5588282002136
16020	0.099997699726373	131	satiated	stimuli/non_foods\non-food_animate_grasshopper.jpg	1	1	1	non-food_animate_grasshopper	0	B	0	0	117	0		0	0	80.6088451002724	80.7088427999988
16057.5	0.100004100240767	132	satiated	stimuli/non_foods\non-food_animate_owl.jpg	1	1	1	non-food_animate_owl	0	Z	18	0	132	0		0	0	80.7588305999525	80.8588347001933
16095	0.0999816996045411	133	satiated	stimuli/non_foods\non-food_animate_peacock.jpg	1	1	1	non-food_animate_peacock	0	J	6	0	134	0		0	0	80.9088489003479	81.0088305999525
16132.5	0.0999826001934707	134	satiated	stimuli/foods\spinach.jpg	1	1	1	spinach	1	M	9	0	268	0		0	0	81.0588499000296	81.1588325002231
16170	0.100020499899983	135	satiated	stimuli/non_foods\non-food_inanimate_watering_can.jpg	1	1	1	non-food_inanimate_watering_can	0	R	12	0	225	0		0	0	81.2088458002545	81.3088663001545
16207.5	0.0999301997944713	136	satiated	stimuli/foods\fruit_pie.jpg	1	1	1	fruit_pie	1	B	0	0	54	0		0	0	81.3588983002119	81.4588285000063
16245	0.0999857001006603	137	satiated	stimuli/foods\chocolate_chip_cookies.jpg	1	1	1	chocolate_chip_cookies	1	J	6	0	27	0		0	0	81.5088406000286	81.6088263001293
16282.5	0.0999926002696157	138	satiated	stimuli/foods\croissant.jpg	1	1	1	croissant	1	V	15	0	40	0		0	0	81.6588381999172	81.7588308001868
16320	0.0999838998541236	139	satiated	stimuli/non_foods\non-food_animate_elephant.jpg	1	1	1	non-food_animate_elephant	0	Z	18	0	111	0		0	0	81.8088424000889	81.908826299943
17190.75	0.0999817000702024	140	satiated	stimuli/non_foods\non-food_inanimate_bush.jpg	1	2	1	non-food_inanimate_bush	0	H	5	0	167	0		0	0	85.2921356000006	85.3921173000708
17228.25	0.0999897001311183	141	satiated	stimuli/non_foods\non-food_animate_alligator.jpg	1	2	1	non-food_animate_alligator	0	G	4	0	90	0		0	0	85.442130099982	85.5421198001131
17265.75	0.099980500061065	142	satiated	stimuli/non_foods\non-food_inanimate_chair.jpg	1	2	1	non-food_inanimate_chair	0	Z	18	0	172	0		0	0	85.5921376002952	85.6921181003563
17303.25	0.100015800446272	143	satiated	stimuli/non_foods\non-food_inanimate_chandelier.jpg	1	2	1	non-food_inanimate_chandelier	0	G	4	0	173	0		0	0	85.7421301999129	85.8421460003592
17340.75	0.0999795002862811	144	satiated	stimuli/non_foods\non-food_animate_monkey.jpg	1	2	1	non-food_animate_monkey	0	L	8	0	130	0		0	0	85.8921324000694	85.9921119003557
17378.25	0.0999877001158893	145	satiated	stimuli/non_foods\non-food_inanimate_scissors.jpg	1	2	1	non-food_inanimate_scissors	0	M	9	0	205	0		0	0	86.0421247999184	86.1421125000343
17415.75	0.0999631001614034	146	satiated	stimuli/foods\orange.jpg	1	2	1	orange	1	S	13	0	230	0		0	0	86.1921251001768	86.2920882003382
17453.25	0.100031900219619	147	satiated	stimuli/non_foods\non-food_animate_sea_turtle.jpg	1	2	1	non-food_animate_sea_turtle	0	K	7	0	144	0		0	0	86.3421028000303	86.4421347002499
17490.75	0.0999711002223194	148	satiated	stimuli/foods\corncob.jpg	1	2	1	corncob	1	B	0	0	37	0		0	0	86.4921343000606	86.5921054002829
17528.25	0.0999742997810245	149	satiated	stimuli/foods\tomato.jpg	1	2	1	tomato	1	R	12	0	276	0		0	0	86.6421079002321	86.7420822000131
17565.75	0.0999863999895751	150	satiated	stimuli/non_foods\non-food_inanimate_guitar.jpg	1	2	1	non-food_inanimate_guitar	0	T	14	0	185	0		0	0	86.7921120999381	86.8920984999277
17603.25	0.0999986999668181	151	satiated	stimuli/foods\watermelon.jpg	1	2	1	watermelon	1	P	11	0	279	0		0	0	86.9421040001325	87.0421027000993
17640.75	0.0999851999804378	152	satiated	stimuli/non_foods\non-food_inanimate_gloves.jpg	1	2	1	non-food_inanimate_gloves	0	L	8	0	183	0		0	0	87.0921152001247	87.1921004001051
17678.5	0.0999420997686684	153	satiated	stimuli/foods\pasta_carbonara.jpg	1	2	1	pasta_carbonara	1	B	0	0	236	0		0	0	87.24215440033	87.3420965000987
17715.75	0.0999845000915229	154	satiated	stimuli/non_foods\non-food_animate_slug.jpg	1	2	1	non-food_animate_slug	0	T	14	0	148	0		0	0	87.3920996999368	87.4920842000283
17753.25	0.100006300024688	155	satiated	stimuli/non_foods\non-food_inanimate_bamboo.jpg	1	2	1	non-food_inanimate_bamboo	0	W	16	0	159	0		0	0	87.5421027000993	87.642109000124
17790.75	0.0999738001264632	156	satiated	stimuli/foods\egg.jpg	1	2	1	egg	1	J	6	0	45	0		0	0	87.6921052001417	87.7920790002681
17828.25	0.0999839999713004	157	satiated	stimuli/foods\steak.jpg	1	2	1	steak	1	K	7	0	270	0		0	0	87.8420997001231	87.9420837000944
17865.75	0.0999759999103844	158	satiated	stimuli/non_foods\non-food_inanimate_moss.jpg	1	2	1	non-food_inanimate_moss	0	R	12	0	194	0		0	0	87.9920987002552	88.0920747001655
17903.25	0.099995999597013	159	satiated	stimuli/non_foods\non-food_animate_baby_sitting.jpg	1	2	1	non-food_animate_baby_sitting	0	D	2	0	93	0		0	0	88.142106000334	88.242101999931
17940.75	0.0999580998905003	160	satiated	stimuli/non_foods\non-food_inanimate_pine_cone.jpg	1	2	1	non-food_inanimate_pine_cone	0	H	5	0	200	0		0	0	88.2921216003597	88.3920797002502
17978.25	0.0999854998663068	161	satiated	stimuli/non_foods\non-food_inanimate_short_sleeved_shirt.jpg	1	2	1	non-food_inanimate_short_sleeved_shirt	0	J	6	0	207	0		0	0	88.4420930002816	88.5420785001479
18015.75	0.0999798998236656	162	satiated	stimuli/non_foods\non-food_animate_killer_whale.jpg	1	2	1	non-food_animate_killer_whale	0	V	15	0	123	0		0	0	88.5920941000804	88.6920739999041
18053.25	0.0999723002314568	163	satiated	stimuli/foods\pear.jpg	1	2	1	pear	1	P	11	0	239	0		0	0	88.7420914000832	88.8420637003146
18090.75	0.0999774001538754	164	satiated	stimuli/non_foods\non-food_inanimate_sun_flower.jpg	1	2	1	non-food_inanimate_sun_flower	0	R	12	0	216	0		0	0	88.8921042000875	88.9920816002414
18128.25	0.100013399962336	165	satiated	stimuli/foods\risotto_with_peas_and_asparagus_tips.jpg	1	2	1	risotto_with_peas_and_asparagus_tips	1	G	4	0	259	0		0	0	89.0420654001646	89.1420788001269
18165.75	0.0999878002330661	166	satiated	stimuli/foods\pork_and_rice.jpg	1	2	1	pork_and_rice	1	H	5	0	245	0		0	0	89.192090800032	89.2920786002651
18203.25	0.0999801000580192	167	satiated	stimuli/foods\mortadella.jpg	1	2	1	mortadella	1	L	8	0	83	0		0	0	89.3420935999602	89.4420737000182
18240.75	0.0999848996289074	168	satiated	stimuli/foods\cauliflower.jpg	1	2	1	cauliflower	1	M	9	0	20	0		0	0	89.4920900003053	89.5920748999342
18278.25	0.0999854998663068	169	satiated	stimuli/non_foods\non-food_animate_polar_bear.jpg	1	2	1	non-food_animate_polar_bear	0	P	11	0	137	0		0	0	89.642089500092	89.7420749999583
18315.75	0.0999885997734964	170	satiated	stimuli/foods\meatballs.jpg	1	2	1	meatballs	1	L	8	0	81	0		0	0	89.7920755003579	89.8920641001314
18353.25	0.0999888996593654	171	satiated	stimuli/non_foods\non-food_inanimate_grass.jpg	1	2	1	non-food_inanimate_grass	0	M	9	0	184	1	a	0	0	89.9420755002648	90.0420643999241
18390.75	0.0999628999270499	172	satiated	stimuli/non_foods\non-food_animate_caterpillar.jpg	1	2	1	non-food_animate_caterpillar	0	K	7	0	99	0		0	0	90.0920970002189	90.192059900146
18428.25	0.0999930999241769	173	satiated	stimuli/non_foods\non-food_inanimate_bicycle.jpg	1	2	1	non-food_inanimate_bicycle	0	C	1	0	161	0		0	0	90.2420704001561	90.3420635000803
18465.75	0.0999853000976145	174	satiated	stimuli/non_foods\non-food_inanimate_jeans.jpg	1	2	1	non-food_inanimate_jeans	0	B	0	0	191	0		0	0	90.392071899958	90.4920572000556
18503.25	0.0999863999895751	175	satiated	stimuli/non_foods\non-food_inanimate_hammer.jpg	1	2	1	non-food_inanimate_hammer	0	Z	18	0	186	0		0	0	90.5420683003031	90.6420547002926
18540.75	0.0999925001524389	176	satiated	stimuli/foods\omelette.jpg	1	2	1	omelette	1	W	16	0	228	0		0	0	90.6920627001673	90.7920552003197
18578.25	0.099984799977392	177	satiated	stimuli/non_foods\non-food_animate_giraffe.jpg	1	2	1	non-food_animate_giraffe	0	G	4	0	115	0		0	0	90.8420652002096	90.942050000187
18615.75	0.0999881997704506	178	satiated	stimuli/foods\cherry.jpg	1	2	1	cherry	1	P	11	0	23	0		0	0	90.9920633002184	91.0920514999889
18653.25	0.0999917997978628	179	satiated	stimuli/non_foods\non-food_animate_iguana.jpg	1	2	1	non-food_animate_iguana	0	D	2	0	121	0		0	0	91.1420639003627	91.2420557001606
18690.75	0.0999845000915229	180	satiated	stimuli/non_foods\non-food_inanimate_desk.jpg	1	2	1	non-food_inanimate_desk	0	X	17	0	178	0		0	0	91.2920681000687	91.3920526001602
18728.25	0.0999867999926209	181	satiated	stimuli/foods\fruit_salad.jpg	1	2	1	fruit_salad	1	H	5	0	55	0		0	0	91.4420644999482	91.5420512999408
18765.75	0.0999591001309454	182	satiated	stimuli/foods\mushroom.jpg	1	2	1	mushroom	1	Z	18	0	85	0		0	0	91.5920679001138	91.6920270002447
18803.25	0.0999974999576807	183	satiated	stimuli/foods\chocolate_pudding.jpg	1	2	1	chocolate_pudding	1	G	4	0	29	0		0	0	91.742070000153	91.8420675001107
18840.75	0.0999670000746846	184	satiated	stimuli/non_foods\non-food_inanimate_folding_chair.jpg	1	2	1	non-food_inanimate_folding_chair	0	B	0	0	182	0		0	0	91.892082599923	91.9920495999977
18878.25	0.0999698000960052	185	satiated	stimuli/foods\cannoli.jpg	1	2	1	cannoli	1	N	10	0	17	0		0	0	92.0420630001463	92.1420328002423
18915.75	0.0999850002117455	186	satiated	stimuli/non_foods\non-food_animate_swan.jpg	1	2	1	non-food_animate_swan	0	I	21	1	152	0		0	0	92.1920612999238	92.2920463001356
18953.25	0.0999703002162278	187	satiated	stimuli/non_foods\non-food_inanimate_suitcase.jpg	1	2	1	non-food_inanimate_suitcase	0	G	4	0	215	0		0	0	92.3420583000407	92.4420286002569
18990.75	0.100001400336623	188	satiated	stimuli/foods\salami.jpg	1	2	1	salami	1	K	7	0	263	1	a	0.391801800113171	1	92.4920399999246	92.5920414002612
19028.25	0.0999839003197849	189	satiated	stimuli/foods\cinnamon_sroll.jpg	1	2	1	cinnamon_sroll	1	G	4	0	31	0		0	0	92.6420547999442	92.7420387002639
19065.75	0.0999834001995623	190	satiated	stimuli/foods\radish.jpg	1	2	1	radish	1	B	0	0	251	0		0	0	92.7920556999743	92.8920391001739
19103.25	0.0999657995998859	191	satiated	stimuli/foods\gnocchi.jpg	1	2	1	gnocchi	1	G	4	0	58	0		0	0	92.942067600321	93.0420333999209
19140.75	0.0999867003411055	192	satiated	stimuli/non_foods\non-food_animate_german_shepherd.jpg	1	2	1	non-food_animate_german_shepherd	0	J	6	0	114	0		0	0	93.0920498999767	93.1920366003178
19178.25	0.0999882002361119	193	satiated	stimuli/non_foods\non-food_inanimate_clover.jpg	1	2	1	non-food_inanimate_clover	0	Z	18	0	174	0		0	0	93.2420479999855	93.3420362002216
19215.75	0.0999699998646975	194	satiated	stimuli/non_foods\non-food_inanimate_padlock.jpg	1	2	1	non-food_inanimate_padlock	0	M	9	0	199	0		0	0	93.3920462001115	93.4920161999762
19253.25	0.0999919003807008	195	satiated	stimuli/non_foods\non-food_animate_lion.jpg	1	2	1	non-food_animate_lion	0	N	10	0	125	0		0	0	93.5420321999118	93.6420241002925
19290.75	0.10000819992274	196	satiated	stimuli/non_foods\non-food_inanimate_alarm_clock.jpg	1	2	1	non-food_inanimate_alarm_clock	0	S	13	0	158	0		0	0	93.6920223003253	93.7920305002481
19328.25	0.0999889001250267	197	satiated	stimuli/foods\hazelnuts.jpg	1	2	1	hazelnuts	1	L	8	0	65	0		0	0	93.8420397001319	93.9420286002569
19365.75	0.0999847003258765	198	satiated	stimuli/non_foods\non-food_animate_ant.jpg	1	2	1	non-food_animate_ant	0	C	1	0	91	0		0	0	93.9920399999246	94.0920247002505
19403.25	0.0999849000945687	199	satiated	stimuli/non_foods\non-food_inanimate_waterlily.jpg	1	2	1	non-food_inanimate_waterlily	0	W	16	0	226	0		0	0	94.1420363001525	94.2420212002471
19440.75	0.0999970999546349	200	satiated	stimuli/foods\lettuce.jpg	1	2	1	lettuce	1	P	11	0	75	0		0	0	94.2920357002877	94.3920328002423
19478.25	0.0999712999910116	201	satiated	stimuli/foods\raw_ham.jpg	1	2	1	raw_ham	1	B	0	0	253	0		0	0	94.442040100228	94.5420114002191
19515.75	0.100015700329095	202	satiated	stimuli/foods\peas.jpg	1	2	1	peas	1	S	13	0	240	0		0	0	94.5920450999402	94.6920608002692
19553.25	0.0999708999879658	203	satiated	stimuli/foods\potato_and_green_bean_salad.jpg	1	2	1	potato_and_green_bean_salad	1	W	16	0	246	0		0	0	94.7420544000342	94.8420253000222
19590.75	0.100021100137383	204	satiated	stimuli/foods\chocolate_bar.jpg	1	2	1	chocolate_bar	1	P	11	0	26	0		0	0	94.8919993001036	94.992020400241
19628.25	0.0999845000915229	205	satiated	stimuli/foods\cooked_ham.jpg	1	2	1	cooked_ham	1	L	8	0	35	0		0	0	95.0420276001096	95.1420121002011
19665.75	0.0999937001615763	206	satiated	stimuli/foods\green_beans.jpg	1	2	1	green_beans	1	T	14	0	61	0		0	0	95.1920272000134	95.292020900175
19703.25	0.0999961998313665	207	satiated	stimuli/non_foods\non-food_animate_young_boy.jpg	1	2	1	non-food_animate_young_boy	0	H	5	0	156	0		0	0	95.3420171001926	95.442013300024
19740.75	0.0999814001843333	208	satiated	stimuli/non_foods\non-food_animate_penguin.jpg	1	2	1	non-food_animate_penguin	0	B	0	0	135	0		0	0	95.4920195001177	95.5920009003021
19778.25	0.0999899003654718	209	satiated	stimuli/non_foods\non-food_animate_Asian_man.jpg	1	2	1	non-food_animate_Asian_man	0	D	2	0	88	0		0	0	95.642013899982	95.7420038003474
19815.75	0.0999786001630127	210	satiated	stimuli/foods\cabbage.jpg	1	2	1	cabbage	1	Z	18	0	16	0		0	0	95.7920185001567	95.8919971003197
19853.25	0.0999884000048041	211	satiated	stimuli/foods\honey.jpg	1	2	1	honey	1	P	11	0	66	0		0	0	95.9420084999874	96.0419968999922
19890.75	0.0999707002192736	212	satiated	stimuli/non_foods\non-food_animate_rhino.jpg	1	2	1	non-food_animate_rhino	0	T	14	0	141	0		0	0	96.0920118000358	96.1919825002551
19928.25	0.100009300280362	213	satiated	stimuli/foods\figs.jpg	1	2	1	figs	1	N	10	0	48	0		0	0	96.2419879999943	96.3419973002747
19965.75	0.100003800354898	214	satiated	stimuli/non_foods\non-food_animate_pigeon.jpg	1	2	1	non-food_animate_pigeon	0	P	11	0	136	0		0	0	96.3920134999789	96.4920173003338
20003.25	0.0999733000062406	215	satiated	stimuli/foods\artichoke.jpg	1	2	1	artichoke	1	M	9	0	3	0		0	0	96.5420246999711	96.6419979999773
20040.75	0.0999834001995623	216	satiated	stimuli/foods\apricot.jpg	1	2	1	apricot	1	S	13	0	2	0		0	0	96.6920096999966	96.7919931001961
20078.25	0.0999870002269745	217	satiated	stimuli/foods\lemon_meringue_pie.jpg	1	2	1	lemon_meringue_pie	1	G	4	0	73	0		0	0	96.8420098000206	96.9419968002476
20115.75	0.0999886002391577	218	satiated	stimuli/non_foods\non-food_animate_duck.jpg	1	2	1	non-food_animate_duck	0	T	14	0	109	0		0	0	96.9920077999122	97.0919964001514
20153.25	0.0999591997824609	219	satiated	stimuli/foods\strawberry.jpg	1	2	1	strawberry	1	D	2	0	272	0		0	0	97.1420253003016	97.2419845000841
20190.75	0.100049499887973	220	satiated	stimuli/non_foods\non-food_inanimate_briefcase.jpg	1	2	1	non-food_inanimate_briefcase	0	B	0	0	163	0		0	0	97.292011000216	97.392060500104
20228.5	0.0999098997563124	221	satiated	stimuli/foods\pickles.jpg	1	2	1	pickles	1	N	10	0	242	0		0	0	97.4420755002648	97.5419854000211
20265.75	0.0999878998845816	222	satiated	stimuli/non_foods\non-food_inanimate_bed.jpg	1	2	1	non-food_inanimate_bed	0	C	1	0	160	0		0	0	97.5919921002351	97.6919800001197
20303.25	0.0999831003136933	223	satiated	stimuli/non_foods\non-food_animate_cheetah.jpg	1	2	1	non-food_animate_cheetah	0	V	15	0	100	0		0	0	97.741995899938	97.8419790002517
20340.75	0.0999921998009086	224	satiated	stimuli/non_foods\non-food_animate_student_female.jpg	1	2	1	non-food_animate_student_female	0	H	5	0	151	0		0	0	97.8919824003242	97.9919746001251
20378.25	0.0999791999347508	225	satiated	stimuli/foods\oregano.jpg	1	2	1	oregano	1	F	3	0	231	0		0	0	98.0419862000272	98.1419653999619
20415.75	0.100002400111407	226	satiated	stimuli/foods\lemon.jpg	1	2	1	lemon	1	P	11	0	72	0		0	0	98.1919762999751	98.2919787000865
20453.25	0.0999647998251021	227	satiated	stimuli/foods\garlic.jpg	1	2	1	garlic	1	B	0	0	56	0		0	0	98.3419921002351	98.4419569000602
20490.75	0.100006599910557	228	satiated	stimuli/non_foods\non-food_inanimate_headphones.jpg	1	2	1	non-food_inanimate_headphones	0	P	11	0	188	0		0	0	98.4919720003381	98.5919786002487
20528.25	0.0999766997992992	229	satiated	stimuli/foods\brownie.jpg	1	2	1	brownie	1	M	9	0	14	0		0	0	98.6419721003622	98.7419488001615
20565.75	0.0999972000718117	230	satiated	stimuli/foods\dates.jpg	1	2	1	dates	1	P	11	0	43	0		0	0	98.7919926000759	98.8919898001477
20603.25	0.0999485002830625	231	satiated	stimuli/foods\mango.jpg	1	2	1	mango	1	S	13	0	80	0		0	0	98.9420157000422	99.0419642003253
20640.75	0.0999794998206198	232	satiated	stimuli/non_foods\non-food_inanimate_toy_airplane.jpg	1	2	1	non-food_inanimate_toy_airplane	0	W	16	0	222	0		0	0	99.0919751003385	99.1919546001591
20678.25	0.10000539990142	233	satiated	stimuli/non_foods\non-food_inanimate_stapler.jpg	1	2	1	non-food_inanimate_stapler	0	V	15	0	213	0		0	0	99.24196390016	99.3419693000615
20715.75	0.099985099863261	234	satiated	stimuli/foods\fries.jpg	1	2	1	fries	1	Z	18	0	52	0		0	0	99.3919796003029	99.4919647001661
20753.25	0.0999832996167243	235	satiated	stimuli/foods\rockmelon.jpg	1	2	1	rockmelon	1	J	6	0	262	0		0	0	99.5419813003391	99.6419645999558
20790.75	0.099985099863261	236	satiated	stimuli/foods\stew_with_potatoes_and_carrots.jpg	1	2	1	stew_with_potatoes_and_carrots	1	L	8	0	271	0		0	0	99.6919752000831	99.7919602999464
20828.25	0.0999833000823855	237	satiated	stimuli/non_foods\non-food_animate_parrot.jpg	1	2	1	non-food_animate_parrot	0	B	0	0	133	0		0	0	99.8419762002304	99.9419595003128
20865.75	0.0999663998372853	238	satiated	stimuli/non_foods\non-food_inanimate_cactus_pot_plant.jpg	1	2	1	non-food_inanimate_cactus_pot_plant	0	D	2	0	169	0		0	0	99.9919954002835	100.091961800121
20903.25	0.0999866998754442	239	satiated	stimuli/foods\lime.jpg	1	2	1	lime	1	V	15	0	76	0		0	0	100.141971600242	100.241958300117
20940.75	0.0999890002422035	240	satiated	stimuli/foods\grilled_chicken_breast.jpg	1	2	1	grilled_chicken_breast	1	C	1	0	63	0		0	0	100.291970999911	100.391960000154
20978.25	0.0999809000641108	241	satiated	stimuli/foods\peach.jpg	1	2	1	peach	1	B	0	0	238	0		0	0	100.441973600071	100.541954500135
21015.75	0.10002090036869	242	satiated	stimuli/non_foods\non-food_animate_hummingbird.jpg	1	2	1	non-food_animate_hummingbird	0	T	14	0	120	0		0	0	100.591966799926	100.691987700295
21053.25	0.0999370999634266	243	satiated	stimuli/non_foods\non-food_inanimate_couch.jpg	1	2	1	non-food_inanimate_couch	0	W	16	0	176	0		0	0	100.742015799973	100.841952899937
21090.75	0.099985099863261	244	satiated	stimuli/non_foods\non-food_animate_seahorse.jpg	1	2	1	non-food_animate_seahorse	0	T	14	0	145	0		0	0	100.89196530031	100.991950400174
21128.25	0.0999865001067519	245	satiated	stimuli/foods\oyster.jpg	1	2	1	oyster	1	F	3	0	233	0		0	0	101.04196000006	101.141946500167
21165.75	0.0999789997003973	246	satiated	stimuli/non_foods\non-food_animate_ram.jpg	1	2	1	non-food_animate_ram	0	X	17	0	140	0		0	0	101.191963400226	101.291942399926
21203.25	0.100006699562073	247	satiated	stimuli/foods\cupcake.jpg	1	2	1	cupcake	1	K	7	0	42	0		0	0	101.341931800358	101.44193849992
21240.75	0.0999759999103844	248	satiated	stimuli/foods\cream_donuts.jpg	1	2	1	cream_donuts	1	G	4	0	39	0		0	0	101.491949200165	101.591925200075
21278.25	0.0999834998510778	249	satiated	stimuli/foods\pancakes.jpg	1	2	1	pancakes	1	D	2	0	234	0		0	0	101.641958500259	101.74194200011
21315.75	0.0999819003045559	250	satiated	stimuli/foods\brie.jpg	1	2	1	brie	1	J	6	0	12	0		0	0	101.791969799902	101.891951700207
21353.25	0.09998709987849	251	satiated	stimuli/foods\potatoes.jpg	1	2	1	potatoes	1	G	4	0	248	0		0	0	101.941952500027	102.041939599905
21390.75	0.0999842998571694	252	satiated	stimuli/non_foods\non-food_inanimate_lighter.jpg	1	2	1	non-food_inanimate_lighter	0	P	11	0	193	0		0	0	102.09195030015	102.191934600007
21428.25	0.0999686000868678	253	satiated	stimuli/non_foods\non-food_animate_kangaroo.jpg	1	2	1	non-food_animate_kangaroo	0	H	5	0	122	0		0	0	102.241952300072	102.341920900159
21465.75	0.100004599895328	254	satiated	stimuli/foods\coffee_beans.jpg	1	2	1	coffee_beans	1	Z	18	0	34	1	a	0	0	102.391948800068	102.491953399964
21503.25	0.0999560002237558	255	satiated	stimuli/non_foods\non-food_inanimate_broom.jpg	1	2	1	non-food_inanimate_broom	0	P	11	0	164	0		0	0	102.541975100059	102.641931100283
21540.75	0.0999794998206198	256	satiated	stimuli/foods\almonds.jpg	1	2	1	almonds	1	N	10	0	0	0		0	0	102.691949100234	102.791928600054
21578.25	0.0999835999682546	257	satiated	stimuli/non_foods\non-food_inanimate_button.jpg	1	2	1	non-food_inanimate_button	0	K	7	0	168	0		0	0	102.841942700092	102.94192630006
21615.75	0.0999904000200331	258	satiated	stimuli/non_foods\non-food_animate_camel.jpg	1	2	1	non-food_animate_camel	0	S	13	0	97	0		0	0	102.991945700254	103.091936100274
21653.25	0.0999926002696157	259	satiated	stimuli/foods\carrot.jpg	1	2	1	carrot	1	T	14	0	19	0		0	0	103.141937999986	103.241930600256
21690.75	0.0999859999865294	260	satiated	stimuli/non_foods\non-food_animate_gorilla.jpg	1	2	1	non-food_animate_gorilla	0	G	4	0	116	0		0	0	103.291938000359	103.391924000345
21728.25	0.0999854998663068	261	satiated	stimuli/foods\museli_bars.jpg	1	2	1	museli_bars	1	F	3	0	84	0		0	0	103.441938400269	103.541923900135
21765.75	0.0999720999971032	262	satiated	stimuli/foods\beetroots.jpg	1	2	1	beetroots	1	V	15	0	10	0		0	0	103.591947900131	103.691920000128
21803.25	0.099982799962163	263	satiated	stimuli/non_foods\non-food_inanimate_tulip.jpg	1	2	1	non-food_inanimate_tulip	0	M	9	0	224	0		0	0	103.741935899947	103.841918699909
21840.75	0.0999797000549734	264	satiated	stimuli/non_foods\non-food_animate_clown.jpg	1	2	1	non-food_animate_clown	0	T	14	0	102	0		0	0	103.891934799962	103.991914500017
21878.25	0.0999896000139415	265	satiated	stimuli/foods\avocado.jpg	1	2	1	avocado	1	H	5	0	5	0		0	0	104.041928000282	104.141917600296
21915.75	0.099974200129509	266	satiated	stimuli/non_foods\non-food_animate_frog.jpg	1	2	1	non-food_animate_frog	0	V	15	0	113	0		0	0	104.191934300121	104.29190850025
21953.25	0.0999694000929594	267	satiated	stimuli/foods\green_olives.jpg	1	2	1	green_olives	1	G	4	0	62	0		0	0	104.34193990007	104.441909300163
21990.75	0.0999880000017583	268	satiated	stimuli/foods\potato_chips.jpg	1	2	1	potato_chips	1	Z	18	0	247	0		0	0	104.49192460021	104.591912600212
22028.25	0.099983399733901	269	satiated	stimuli/non_foods\non-food_inanimate_wrench.jpg	1	2	1	non-food_inanimate_wrench	0	I	21	1	227	0		0	0	104.641925900243	104.741909299977
22065.75	0.0999775002710521	270	satiated	stimuli/non_foods\non-food_inanimate_horn.jpg	1	2	1	non-food_inanimate_horn	0	R	12	0	190	0		0	0	104.791923000012	104.891900500283
22103.25	0.0999961001798511	271	satiated	stimuli/foods\cooked_prawn.jpg	1	2	1	cooked_prawn	1	X	17	0	36	0		0	0	104.941912299953	105.041908400133
22140.75	0.0999846998602152	272	satiated	stimuli/non_foods\non-food_inanimate_stoplight.jpg	1	2	1	non-food_inanimate_stoplight	0	T	14	0	214	0		0	0	105.091911800206	105.191896500066
22178.25	0.0999867003411055	273	satiated	stimuli/non_foods\non-food_inanimate_buds.jpg	1	2	1	non-food_inanimate_buds	0	Z	18	0	166	0		0	0	105.241911299992	105.341898000333
22215.75	0.0999669004231691	274	satiated	stimuli/foods\chestnut.jpg	1	2	1	chestnut	1	N	10	0	24	1	a	0.850152399856597	1	105.391926799901	105.491893700324
22253.25	0.0999886002391577	275	satiated	stimuli/foods\asparagus.jpg	1	2	1	asparagus	1	H	5	0	4	0		0	0	105.541904800106	105.641893400345
22290.75	0.0999894002452493	276	satiated	stimuli/non_foods\non-food_inanimate_highlighter.jpg	1	2	1	non-food_inanimate_highlighter	0	X	17	0	189	0		0	0	105.691902799997	105.791892200243
22328.25	0.100003799889237	277	satiated	stimuli/foods\pepperoni_pizza.jpg	1	2	1	pepperoni_pizza	1	W	16	0	241	0		0	0	105.841891800053	105.941895599943
22365.75	0.0999857001006603	278	satiated	stimuli/non_foods\non-food_inanimate_drum_set.jpg	1	2	1	non-food_inanimate_drum_set	0	D	2	0	179	0		0	0	105.991925400216	106.091911100317
22403.25	0.0999701996333897	279	satiated	stimuli/non_foods\non-food_animate_dachshund.jpg	1	2	1	non-food_animate_dachshund	0	R	12	0	104	0		0	0	106.141922400333	106.241892599966
23245	0.0999519997276366	280	satiated	stimuli/foods\spring_onions.jpg	1	3	1	spring_onions	1	M	9	0	269	0		0	0	109.508567000274	109.608519000001
23282.5	0.099981399718672	281	satiated	stimuli/non_foods\non-food_animate_owl.jpg	1	3	1	non-food_animate_owl	0	F	3	0	132	0		0	0	109.65852890024	109.758510299958
23320	0.099983099848032	282	satiated	stimuli/non_foods\non-food_animate_sea_turtle.jpg	1	3	1	non-food_animate_sea_turtle	0	S	13	0	144	0		0	0	109.808527400251	109.9085105001
23357.5	0.100048299878836	283	satiated	stimuli/non_foods\non-food_animate_clown.jpg	1	3	1	non-food_animate_clown	0	Z	18	0	102	0		0	0	109.958516600076	110.058564899955
23395	0.099963900167495	284	satiated	stimuli/foods\raisins.jpg	1	3	1	raisins	1	K	7	0	252	0		0	0	110.10855250014	110.208516400307
23432.5	0.0999865997582674	285	satiated	stimuli/foods\mango.jpg	1	3	1	mango	1	J	6	0	80	0		0	0	110.258528800216	110.358515399974
23470	0.099981399718672	286	satiated	stimuli/foods\asparagus.jpg	1	3	1	asparagus	1	T	14	0	4	0		0	0	110.40852890024	110.508510299958
23507.5	0.0999687002040446	287	satiated	stimuli/non_foods\non-food_animate_bee.jpg	1	3	1	non-food_animate_bee	0	V	15	0	95	0		0	0	110.558527899906	110.65849660011
23545	0.0999647001735866	288	satiated	stimuli/foods\broccoli.jpg	1	3	1	broccoli	1	D	2	0	13	0		0	0	110.708543099929	110.808507800102
23582.5	0.0999862002208829	289	satiated	stimuli/foods\grilled_chicken_breast.jpg	1	3	1	grilled_chicken_breast	1	M	9	0	63	0		0	0	110.858512300067	110.958498500288
23620	0.0999834998510778	290	satiated	stimuli/non_foods\non-food_inanimate_canoe.jpg	1	3	1	non-food_inanimate_canoe	0	Z	18	0	170	0		0	0	111.00851460034	111.108498100191
23657.5	0.0999957998283207	291	satiated	stimuli/foods\brie.jpg	1	3	1	brie	1	S	13	0	12	0		0	0	111.158502700273	111.258498500101
23695	0.0999878002330661	292	satiated	stimuli/non_foods\non-food_inanimate_stapler.jpg	1	3	1	non-food_inanimate_stapler	0	R	12	0	213	0		0	0	111.308509400114	111.408497200347
23732.5	0.0999942002817988	293	satiated	stimuli/foods\figs.jpg	1	3	1	figs	1	G	4	0	48	0		0	0	111.458509800024	111.558504000306
23770	0.09998709987849	294	satiated	stimuli/non_foods\non-food_animate_student_female.jpg	1	3	1	non-food_animate_student_female	0	X	17	0	151	0		0	0	111.608513600193	111.708500700071
23807.5	0.099999500438571	295	satiated	stimuli/foods\pomegranate.jpg	1	3	1	pomegranate	1	P	11	0	244	0		0	0	111.75848999992	111.858489500359
23845	0.0999529999680817	296	satiated	stimuli/non_foods\non-food_animate_green_bug.jpg	1	3	1	non-food_animate_green_bug	0	W	16	0	118	0		0	0	111.908522600308	112.008475600276
23882.5	0.0999986999668181	297	satiated	stimuli/non_foods\non-food_inanimate_moss.jpg	1	3	1	non-food_inanimate_moss	0	J	6	0	194	0		0	0	112.058495200239	112.158493900206
23920	0.0999668999575078	298	satiated	stimuli/foods\honey.jpg	1	3	1	honey	1	F	3	0	66	0		0	0	112.208510700148	112.308477600105
23957.5	0.10000059986487	299	satiated	stimuli/foods\spaghetti_with_meat_sauce.jpg	1	3	1	spaghetti_with_meat_sauce	1	K	7	0	267	0		0	0	112.358490600251	112.458491200116
23995	0.0999881001189351	300	satiated	stimuli/foods\pasta_carbonara.jpg	1	3	1	pasta_carbonara	1	W	16	0	236	0		0	0	112.508504299913	112.608492400032
24032.5	0.0999908000230789	301	satiated	stimuli/non_foods\non-food_inanimate_soccer_ball.jpg	1	3	1	non-food_inanimate_soccer_ball	0	G	4	0	210	0		0	0	112.658502200153	112.758493000176
24070	0.0999729996547103	302	satiated	stimuli/foods\potato_and_green_bean_salad.jpg	1	3	1	potato_and_green_bean_salad	1	D	2	0	246	0		0	0	112.808505200315	112.90847819997
24107.5	0.0999990003183484	303	satiated	stimuli/foods\brussel_sprouts.jpg	1	3	1	brussel_sprouts	1	K	7	0	15	0		0	0	112.958495399915	113.058494400233
24145	0.100002999883145	304	satiated	stimuli/non_foods\non-food_inanimate_gloves.jpg	1	3	1	non-food_inanimate_gloves	0	W	16	0	183	0		0	0	113.108484900091	113.208487899974
24182.5	0.0999880000017583	305	satiated	stimuli/foods\eggplant.jpg	1	3	1	eggplant	1	G	4	0	46	0		0	0	113.258496600203	113.358484600205
24220	0.0999826998449862	306	satiated	stimuli/non_foods\non-food_animate_young_boy.jpg	1	3	1	non-food_animate_young_boy	0	F	3	0	156	0		0	0	113.408494000323	113.508476700168
24257.5	0.0999993998557329	307	satiated	stimuli/non_foods\non-food_inanimate_waterlily.jpg	1	3	1	non-food_inanimate_waterlily	0	M	9	0	226	0		0	0	113.558504700195	113.658504100051
24295	0.0999838002026081	308	satiated	stimuli/non_foods\non-food_inanimate_hammer.jpg	1	3	1	non-food_inanimate_hammer	0	P	11	0	186	0		0	0	113.708491099998	113.808474900201
24332.5	0.0999843003228307	309	satiated	stimuli/foods\baked_lamb_with_potatoes.jpg	1	3	1	baked_lamb_with_potatoes	1	O	22	1	8	0		0	0	113.858492400032	113.958476700354
24370	0.0999847003258765	310	satiated	stimuli/foods\cannoli.jpg	1	3	1	cannoli	1	W	16	0	17	0		0	0	114.008487700019	114.108472400345
24407.5	0.0999921001493931	311	satiated	stimuli/foods\pepperoni_pizza.jpg	1	3	1	pepperoni_pizza	1	R	12	0	241	0		0	0	114.158485900145	114.258478000294
24445	0.0999930999241769	312	satiated	stimuli/non_foods\non-food_inanimate_ring.jpg	1	3	1	non-food_inanimate_ring	0	Z	18	0	203	1	a	0.443247199989855	1	114.308477600105	114.408470700029
24482.5	0.0999838002026081	313	satiated	stimuli/non_foods\non-food_inanimate_speakers.jpg	1	3	1	non-food_inanimate_speakers	0	M	9	0	212	0		0	0	114.458483200055	114.558467000257
24520	0.099980799946934	314	satiated	stimuli/foods\pork_and_rice.jpg	1	3	1	pork_and_rice	1	B	0	0	245	0		0	0	114.608486700337	114.708467500284
24557.5	0.0999547000974417	315	satiated	stimuli/foods\pancakes.jpg	1	3	1	pancakes	1	K	7	0	234	0		0	0	114.758484899998	114.858439600095
24595	0.0999898002482951	316	satiated	stimuli/non_foods\non-food_animate_german_shepherd.jpg	1	3	1	non-food_animate_german_shepherd	0	T	14	0	114	0		0	0	114.908467900008	115.008457700256
24632.5	0.0999855999834836	317	satiated	stimuli/foods\linguine_with_clams.jpg	1	3	1	linguine_with_clams	1	M	9	0	77	0		0	0	115.058469300158	115.158454900142
24670	0.0999917001463473	318	satiated	stimuli/non_foods\non-food_inanimate_bush.jpg	1	3	1	non-food_inanimate_bush	0	F	3	0	167	0		0	0	115.208457400091	115.308449100237
24707.5	0.100001899991184	319	satiated	stimuli/foods\fried_calamari.jpg	1	3	1	fried_calamari	1	M	9	0	50	0		0	0	115.358473600354	115.458475500345
24745	0.0999924000352621	320	satiated	stimuli/non_foods\non-food_inanimate_bamboo.jpg	1	3	1	non-food_inanimate_bamboo	0	B	0	0	159	0		0	0	115.508469500113	115.608461900149
24782.5	0.0999750997871161	321	satiated	stimuli/foods\mushroom.jpg	1	3	1	mushroom	1	S	13	0	85	0		0	0	115.658464600332	115.758439700119
24820	0.0999759999103844	322	satiated	stimuli/foods\savory_pie.jpg	1	3	1	savory_pie	1	J	6	0	265	0		0	0	115.80847040005	115.908446399961
24857.5	0.100005600135773	323	satiated	stimuli/non_foods\non-food_inanimate_couch.jpg	1	3	1	non-food_inanimate_couch	0	N	10	0	176	0		0	0	115.95845289994	116.058458500076
24895	0.0999879003502429	324	satiated	stimuli/non_foods\non-food_inanimate_alarm_clock.jpg	1	3	1	non-food_inanimate_alarm_clock	0	G	4	0	158	0		0	0	116.108466899954	116.208454800304
24932.5	0.100001700222492	325	satiated	stimuli/foods\cinnamon_sroll.jpg	1	3	1	cinnamon_sroll	1	N	10	0	31	0		0	0	116.258453600109	116.358455300331
24970	0.09998709987849	326	satiated	stimuli/non_foods\non-food_animate_camel.jpg	1	3	1	non-food_animate_camel	0	C	1	0	97	1	a	0	0	116.408463300206	116.508450400084
25007.5	0.0999897001311183	327	satiated	stimuli/non_foods\non-food_inanimate_broom.jpg	1	3	1	non-food_inanimate_broom	0	T	14	0	164	0		0	0	116.55845820019	116.658447900321
25045	0.0999842998571694	328	satiated	stimuli/non_foods\non-food_animate_baby_sitting.jpg	1	3	1	non-food_animate_baby_sitting	0	P	11	0	93	0		0	0	116.708461100236	116.808445400093
25082.5	0.0999829997308552	329	satiated	stimuli/non_foods\non-food_inanimate_protractor.jpg	1	3	1	non-food_inanimate_protractor	0	V	15	0	201	0		0	0	116.858458500355	116.958441500086
25120	0.099980500061065	330	satiated	stimuli/non_foods\non-food_inanimate_cap.jpg	1	3	1	non-food_inanimate_cap	0	C	1	0	171	0		0	0	117.008461300284	117.108441800345
25157.5	0.0999590000137687	331	satiated	stimuli/foods\cherry.jpg	1	3	1	cherry	1	S	13	0	23	0		0	0	117.158475500066	117.25843450008
25195	0.0999881997704506	332	satiated	stimuli/non_foods\non-food_animate_seahorse.jpg	1	3	1	non-food_animate_seahorse	0	T	14	0	145	0		0	0	117.308440700173	117.408428899944
25232.5	0.0999845997430384	333	satiated	stimuli/non_foods\non-food_animate_mammoth.jpg	1	3	1	non-food_animate_mammoth	0	M	9	0	128	0		0	0	117.458432900254	117.558417499997
25270	0.099981399718672	334	satiated	stimuli/foods\pickles.jpg	1	3	1	pickles	1	F	3	0	242	0		0	0	117.60844330024	117.708424699958
25307.5	0.0999970999546349	335	satiated	stimuli/non_foods\non-food_inanimate_toilet.jpg	1	3	1	non-food_inanimate_toilet	0	R	12	0	220	0		0	0	117.758443000261	117.858440100215
25345	0.0999881001189351	336	satiated	stimuli/foods\toasted_bread_with_tomatoes.jpg	1	3	1	toasted_bread_with_tomatoes	1	M	9	0	275	0		0	0	117.908447300084	118.008435400203
25382.5	0.0999842002056539	337	satiated	stimuli/non_foods\non-food_inanimate_leaf.jpg	1	3	1	non-food_inanimate_leaf	0	F	3	0	192	0		0	0	118.058446899988	118.158431100193
25420	0.0999914002604783	338	satiated	stimuli/foods\peas.jpg	1	3	1	peas	1	X	17	0	240	0		0	0	118.208425899968	118.308417300228
25457.5	0.0999857001006603	339	satiated	stimuli/non_foods\non-food_animate_monkey.jpg	1	3	1	non-food_animate_monkey	0	H	5	0	130	0		0	0	118.35844160011	118.458427300211
25495	0.099991699680686	340	satiated	stimuli/foods\minestrone_soup.jpg	1	3	1	minestrone_soup	1	K	7	0	82	0		0	0	118.508438200224	118.608429899905
25532.5	0.100001600105315	341	satiated	stimuli/foods\mandarin.jpg	1	3	1	mandarin	1	B	0	0	79	0		0	0	118.658425299916	118.758426900022
25570	0.0999967004172504	342	satiated	stimuli/non_foods\non-food_animate_polar_bear.jpg	1	3	1	non-food_animate_polar_bear	0	H	5	0	137	0		0	0	118.808441299945	118.908438000362
25607.5	0.0999734997749329	343	satiated	stimuli/foods\pumpkin.jpg	1	3	1	pumpkin	1	T	14	0	250	0		0	0	118.958457600325	119.0584311001
25645	0.100000799633563	344	satiated	stimuli/foods\frankfurter_and_provolone_salad.jpg	1	3	1	frankfurter_and_provolone_salad	1	K	7	0	49	0		0	0	119.108412400354	119.208413199987
25682.5	0.0999819999560714	345	satiated	stimuli/non_foods\non-food_inanimate_tree.jpg	1	3	1	non-food_inanimate_tree	0	C	1	0	223	0		0	0	119.258423800115	119.358405800071
25720	0.0999946002848446	346	satiated	stimuli/foods\chestnut.jpg	1	3	1	chestnut	1	K	7	0	24	0		0	0	119.408413399942	119.508408000227
25757.5	0.0999875999987125	347	satiated	stimuli/non_foods\non-food_animate_sea_lion.jpg	1	3	1	non-food_animate_sea_lion	0	L	8	0	143	0		0	0	119.558430000208	119.658417600207
25795	0.0999838002026081	348	satiated	stimuli/foods\chocolate_pudding.jpg	1	3	1	chocolate_pudding	1	C	1	0	29	0		0	0	119.708429099992	119.808412900195
25832.5	0.0999825000762939	349	satiated	stimuli/foods\cupcake.jpg	1	3	1	cupcake	1	H	5	0	42	0		0	0	119.858428500127	119.958411000203
25870	0.0999970999546349	350	satiated	stimuli/foods\potatoes.jpg	1	3	1	potatoes	1	L	8	0	248	0		0	0	120.00842280034	120.108419900294
25907.5	0.0999861001037061	351	satiated	stimuli/foods\croissant.jpg	1	3	1	croissant	1	K	7	0	40	0		0	0	120.158425299916	120.25841140002
25945	0.0999875999987125	352	satiated	stimuli/non_foods\non-food_inanimate_bowling_ball.jpg	1	3	1	non-food_inanimate_bowling_ball	0	G	4	0	162	0		0	0	120.308421600144	120.408409200143
25982.5	0.099964200053364	353	satiated	stimuli/non_foods\non-food_inanimate_guitar.jpg	1	3	1	non-food_inanimate_guitar	0	S	13	0	185	0		0	0	120.45842450019	120.558388700243
26020	0.100010100286454	354	satiated	stimuli/non_foods\non-food_inanimate_pine_cone.jpg	1	3	1	non-food_inanimate_pine_cone	0	M	9	0	200	0		0	0	120.608419300057	120.708429400343
26057.5	0.0999563001096249	355	satiated	stimuli/non_foods\non-food_animate_llama.jpg	1	3	1	non-food_animate_llama	0	Z	18	0	127	0		0	0	120.75846040016	120.85841670027
26095	0.0999861997552216	356	satiated	stimuli/non_foods\non-food_animate_snail.jpg	1	3	1	non-food_animate_snail	0	T	14	0	149	0		0	0	120.908415600192	121.008401799947
26132.5	0.0999837997369468	357	satiated	stimuli/non_foods\non-food_animate_Causasian_man.jpg	1	3	1	non-food_animate_Causasian_man	0	Z	18	0	89	0		0	0	121.058415300213	121.15839909995
26170	0.0999880000017583	358	satiated	stimuli/non_foods\non-food_animate_squirrel.jpg	1	3	1	non-food_animate_squirrel	0	X	17	0	150	0		0	0	121.208409800194	121.308397800196
26207.5	0.0999798998236656	359	satiated	stimuli/foods\coffee_beans.jpg	1	3	1	coffee_beans	1	P	11	0	34	0		0	0	121.358413100243	121.458393000066
26245	0.0999867999926209	360	satiated	stimuli/foods\waffle.jpg	1	3	1	waffle	1	Z	18	0	278	0		0	0	121.508407799993	121.608394599985
26282.5	0.0999885001219809	361	satiated	stimuli/foods\red_cabbage.jpg	1	3	1	red_cabbage	1	H	5	0	256	0		0	0	121.658407100011	121.758395600133
26320	0.0999664999544621	362	satiated	stimuli/foods\green_olives.jpg	1	3	1	green_olives	1	C	1	0	62	0		0	0	121.808422100265	121.908388600219
26357.5	0.0999885001219809	363	satiated	stimuli/non_foods\non-food_animate_yellow_bug.jpg	1	3	1	non-food_animate_yellow_bug	0	D	2	0	155	0		0	0	121.958402500022	122.058391000144
26395	0.0999846998602152	364	satiated	stimuli/non_foods\non-food_inanimate_padlock.jpg	1	3	1	non-food_inanimate_padlock	0	V	15	0	199	0		0	0	122.108402000275	122.208386700135
26432.5	0.099987699650228	365	satiated	stimuli/non_foods\non-food_animate_fox.jpg	1	3	1	non-food_animate_fox	0	K	7	0	112	1	a	0	0	122.258398100268	122.358385799918
26470	0.100004099775106	366	satiated	stimuli/foods\museli_bars.jpg	1	3	1	museli_bars	1	N	10	0	84	1	a	0	0	122.408403700218	122.508407799993
26507.5	0.0999578000046313	367	satiated	stimuli/foods\cooked_ham.jpg	1	3	1	cooked_ham	1	P	11	0	35	0		0	0	122.558424999937	122.658382799942
26545	0.0999888000078499	368	satiated	stimuli/foods\garlic.jpg	1	3	1	garlic	1	T	14	0	56	0		0	0	122.708396099973	122.808384899981
26582.5	0.0999994999729097	369	satiated	stimuli/foods\cinnamon.jpg	1	3	1	cinnamon	1	H	5	0	30	0		0	0	122.858380699996	122.958380199969
26620	0.0999839999713004	370	satiated	stimuli/non_foods\non-food_inanimate_horn.jpg	1	3	1	non-food_inanimate_horn	0	Z	18	0	190	0		0	0	123.008393200114	123.108377200086
26657.5	0.0999694997444749	371	satiated	stimuli/non_foods\non-food_inanimate_highlighter.jpg	1	3	1	non-food_inanimate_highlighter	0	S	13	0	189	0		0	0	123.158391100354	123.258360600099
26695	0.0999877001158893	372	satiated	stimuli/non_foods\non-food_inanimate_orchid.jpg	1	3	1	non-food_inanimate_orchid	0	V	15	0	198	0		0	0	123.308390200138	123.408377900254
26732.5	0.0999897001311183	373	satiated	stimuli/non_foods\non-food_animate_chicken.jpg	1	3	1	non-food_animate_chicken	0	L	8	0	101	0		0	0	123.458376800176	123.558366500307
26770	0.0999909001402557	374	satiated	stimuli/foods\avocado.jpg	1	3	1	avocado	1	D	2	0	5	0		0	0	123.60837469995	123.70836560009
26807.5	0.0999781996943057	375	satiated	stimuli/foods\wafer.jpg	1	3	1	wafer	1	K	7	0	277	0		0	0	123.758385000285	123.858363199979
26845	0.0999857001006603	376	satiated	stimuli/non_foods\non-food_animate_bat.jpg	1	3	1	non-food_animate_bat	0	F	3	0	94	0		0	0	123.908383199945	124.008368900046
26882.5	0.0999851999804378	377	satiated	stimuli/non_foods\non-food_animate_raccoon.jpg	1	3	1	non-food_animate_raccoon	0	J	6	0	139	0		0	0	124.058384200092	124.158369400073
26920	0.0999990999698639	378	satiated	stimuli/foods\hotdog.jpg	1	3	1	hotdog	1	W	16	0	67	0		0	0	124.208384300116	124.308383400086
26957.5	0.0999707002192736	379	satiated	stimuli/foods\papaya.jpg	1	3	1	papaya	1	P	11	0	235	0		0	0	124.358395100106	124.458365800325
26995	0.0999845997430384	380	satiated	stimuli/foods\radish.jpg	1	3	1	radish	1	X	17	0	251	0		0	0	124.50837830035	124.608362900093
27032.5	0.0999847003258765	381	satiated	stimuli/non_foods\non-food_inanimate_towel.jpg	1	3	1	non-food_inanimate_towel	0	D	2	0	221	1	a	0	0	124.658375300001	124.758360000327
27070	0.0999944000504911	382	satiated	stimuli/non_foods\non-food_inanimate_fern.jpg	1	3	1	non-food_inanimate_fern	0	F	3	0	180	0		0	0	124.80837390013	124.908368300181
27107.5	0.0999834998510778	383	satiated	stimuli/non_foods\non-food_animate_skunk.jpg	1	3	1	non-food_animate_skunk	0	J	6	0	147	0		0	0	124.958372500259	125.058356000111
27145	0.0999819999560714	384	satiated	stimuli/foods\lemon_meringue_pie.jpg	1	3	1	lemon_meringue_pie	1	R	12	0	73	0		0	0	125.108378699981	125.208360699937
27182.5	0.0999751002527773	385	satiated	stimuli/foods\fruit_pie.jpg	1	3	1	fruit_pie	1	F	3	0	54	0		0	0	125.258369300049	125.358344400302
27220	0.0999829000793397	386	satiated	stimuli/non_foods\non-food_animate_dragonfly.jpg	1	3	1	non-food_animate_dragonfly	0	T	14	0	108	0		0	0	125.40836030012	125.508343200199
27257.5	0.100001499988139	387	satiated	stimuli/non_foods\non-food_inanimate_tent.jpg	1	3	1	non-food_inanimate_tent	0	X	17	0	219	0		0	0	125.5583525002	125.658354000188
27295	0.0999753000214696	388	satiated	stimuli/non_foods\non-food_animate_cow.jpg	1	3	1	non-food_animate_cow	0	P	11	0	103	0		0	0	125.708372199908	125.808347499929
27332.5	0.0999873001128435	389	satiated	stimuli/non_foods\non-food_animate_Asian_man.jpg	1	3	1	non-food_animate_Asian_man	0	F	3	0	88	0		0	0	125.858358200174	125.958345500287
27370	0.0999819999560714	390	satiated	stimuli/foods\cereal.jpg	1	3	1	cereal	1	L	8	0	22	0		0	0	126.008357400075	126.108339400031
27407.5	0.0999755002558231	391	satiated	stimuli/non_foods\non-food_inanimate_nailpolish.jpg	1	3	1	non-food_inanimate_nailpolish	0	N	10	0	195	0		0	0	126.158361400012	126.258336900268
27445	0.0999755999073386	392	satiated	stimuli/foods\grapes.jpg	1	3	1	grapes	1	D	2	0	60	0		0	0	126.308353400324	126.408329000231
27482.5	0.100004700012505	393	satiated	stimuli/foods\oven-roasted_tomatoes.jpg	1	3	1	oven-roasted_tomatoes	1	L	8	0	232	0		0	0	126.458336099982	126.558340799995
27520	0.099961600266397	394	satiated	stimuli/foods\lollies.jpg	1	3	1	lollies	1	R	12	0	78	0		0	0	126.608355300035	126.708316900302
27557.5	0.0999845997430384	395	satiated	stimuli/foods\rice.jpg	1	3	1	rice	1	H	5	0	257	0		0	0	126.758355600294	126.858340200037
27595	0.0999957998283207	396	satiated	stimuli/non_foods\non-food_inanimate_hay.jpg	1	3	1	non-food_inanimate_hay	0	W	16	0	187	0		0	0	126.908340400085	127.008336199913
27632.5	0.0999890002422035	397	satiated	stimuli/non_foods\non-food_animate_pigeon.jpg	1	3	1	non-food_animate_pigeon	0	G	4	0	136	0		0	0	127.058349200059	127.158338200301
27670	0.0999849000945687	398	satiated	stimuli/foods\cauliflower.jpg	1	3	1	cauliflower	1	D	2	0	20	0		0	0	127.208351000212	127.308335900307
27707.5	0.0999862998723984	399	satiated	stimuli/non_foods\non-food_inanimate_drum_set.jpg	1	3	1	non-food_inanimate_drum_set	0	R	12	0	179	0		0	0	127.358345200308	127.45833150018
27745	0.0999866998754442	400	satiated	stimuli/non_foods\non-food_inanimate_buds.jpg	1	3	1	non-food_inanimate_buds	0	F	3	0	166	0		0	0	127.508345900103	127.608332599979
27782.5	0.0999880000017583	401	satiated	stimuli/foods\chocolate_pralines.jpg	1	3	1	chocolate_pralines	1	R	12	0	28	0		0	0	127.658341300208	127.75832930021
27820	0.0999976000748575	402	satiated	stimuli/foods\orange.jpg	1	3	1	orange	1	B	0	0	230	0		0	0	127.808340200223	127.908337800298
27857.5	0.0999726001173258	403	satiated	stimuli/foods\fries.jpg	1	3	1	fries	1	K	7	0	52	0		0	0	127.958356500138	128.058329100255
27895	0.100002899765968	404	satiated	stimuli/non_foods\non-food_animate_lizard.jpg	1	3	1	non-food_animate_lizard	0	R	12	0	126	0		0	0	128.108313300181	128.208316199947
27932.5	0.0999953998252749	405	satiated	stimuli/non_foods\non-food_animate_ram.jpg	1	3	1	non-food_animate_ram	0	D	2	0	140	0		0	0	128.258330900222	128.358326300047
27970	0.0999703998677433	406	satiated	stimuli/foods\smoked_ham.jpg	1	3	1	smoked_ham	1	T	14	0	266	0		0	0	128.408339000307	128.508309400175
28007.5	0.0999858002178371	407	satiated	stimuli/non_foods\non-food_inanimate_headphones.jpg	1	3	1	non-food_inanimate_headphones	0	F	3	0	188	0		0	0	128.55832540011	128.658311200328
28045	0.0999750997871161	408	satiated	stimuli/non_foods\non-food_animate_elephant.jpg	1	3	1	non-food_animate_elephant	0	K	7	0	111	0		0	0	128.708338000346	128.808313100133
28082.5	0.0999835999682546	409	satiated	stimuli/non_foods\non-food_inanimate_tulip.jpg	1	3	1	non-food_inanimate_tulip	0	A	19	1	224	0		0	0	128.858322800137	128.958306400105
28120	0.0999845000915229	410	satiated	stimuli/non_foods\non-food_inanimate_jeans.jpg	1	3	1	non-food_inanimate_jeans	0	T	14	0	191	0		0	0	129.00831960002	129.108304100111
28157.5	0.100005900021642	411	satiated	stimuli/foods\lime.jpg	1	3	1	lime	1	P	11	0	76	0		0	0	129.158308099955	129.258313999977
28195	0.0999921001493931	412	satiated	stimuli/foods\spinach.jpg	1	3	1	spinach	1	L	8	0	268	0		0	0	129.308321000077	129.408313100226
28232.5	0.0999904996715486	413	satiated	stimuli/non_foods\non-food_animate_duck.jpg	1	3	1	non-food_animate_duck	0	P	11	0	109	0		0	0	129.458325600252	129.558316099923
28270	0.0999366003088653	414	satiated	stimuli/non_foods\non-food_animate_mouse.jpg	1	3	1	non-food_animate_mouse	0	L	8	0	131	0		0	0	129.608368800022	129.708305400331
28307.5	0.0999859003350139	415	satiated	stimuli/foods\apricot.jpg	1	3	1	apricot	1	H	5	0	2	0		0	0	129.758320299909	129.858306200244
28345	0.0999823999591172	416	satiated	stimuli/non_foods\non-food_animate_young_girl.jpg	1	3	1	non-food_animate_young_girl	0	W	16	0	157	0		0	0	129.908322100062	130.008304500021
28382.5	0.0999843003228307	417	satiated	stimuli/foods\almonds.jpg	1	3	1	almonds	1	S	13	0	0	0		0	0	130.058316099923	130.158300400246
28420	0.0999889001250267	418	satiated	stimuli/non_foods\non-food_inanimate_short_sleeved_shirt.jpg	1	3	1	non-food_inanimate_short_sleeved_shirt	0	T	14	0	207	1	a	1.44181780004874	1	130.208316999953	130.308305900078
28457.5	0.0999851999804378	419	satiated	stimuli/foods\stew_with_potatoes_and_carrots.jpg	1	3	1	stew_with_potatoes_and_carrots	1	P	11	0	271	0		0	0	130.358312200289	130.45829740027
31011.75	0.099978799931705	420	satiated	stimuli/non_foods\non-food_animate_baby_crawling.jpg	1	4	1	non-food_animate_baby_crawling	0	X	17	0	92	0		0	0	140.574879200198	140.674858000129
31049.25	0.0999686000868678	421	satiated	stimuli/foods\red_beans.jpg	1	4	1	red_beans	1	S	13	0	255	0		0	0	140.724873099942	140.824841700029
31086.75	0.0999754001386464	422	satiated	stimuli/foods\steak.jpg	1	4	1	steak	1	N	10	0	270	0		0	0	140.874868500046	140.974843900185
31124.25	0.100007299799472	423	satiated	stimuli/non_foods\non-food_inanimate_construction_helment.jpg	1	4	1	non-food_inanimate_construction_helment	0	R	12	0	175	0		0	0	141.024857100099	141.124864399899
31161.75	0.0999843999743462	424	satiated	stimuli/foods\mussels.jpg	1	4	1	mussels	1	N	10	0	86	0		0	0	141.174859100021	141.274843499996
31199.25	0.0999863999895751	425	satiated	stimuli/non_foods\non-food_inanimate_cupboard.jpg	1	4	1	non-food_inanimate_cupboard	0	C	1	0	177	0		0	0	141.324854800012	141.424841200002
31236.75	0.0999811002984643	426	satiated	stimuli/non_foods\non-food_inanimate_wrench.jpg	1	4	1	non-food_inanimate_wrench	0	L	8	0	227	0		0	0	141.474856900051	141.57483800035
31274.25	0.100012599956244	427	satiated	stimuli/non_foods\non-food_animate_porcupine.jpg	1	4	1	non-food_animate_porcupine	0	S	13	0	138	0		0	0	141.624849900138	141.724862500094
31311.75	0.0999775002710521	428	satiated	stimuli/non_foods\non-food_inanimate_table.jpg	1	4	1	non-food_inanimate_table	0	J	6	0	217	0		0	0	141.774865400046	141.874842900317
31349.25	0.0999560998752713	429	satiated	stimuli/foods\cracker.jpg	1	4	1	cracker	1	W	16	0	38	0		0	0	141.924855000339	142.024811100215
31386.75	0.09998539974913	430	satiated	stimuli/foods\prawn.jpg	1	4	1	prawn	1	S	13	0	249	0		0	0	142.074847100303	142.174832500052
31424.25	0.0999838998541236	431	satiated	stimuli/non_foods\non-food_animate_gorilla.jpg	1	4	1	non-food_animate_gorilla	0	B	0	0	116	0		0	0	142.224846600089	142.324830499943
31461.75	0.0999949998222291	432	satiated	stimuli/foods\green_beans.jpg	1	4	1	green_beans	1	P	11	0	61	0		0	0	142.374845600221	142.474840600044
31499.25	0.0999683998525143	433	satiated	stimuli/non_foods\non-food_animate_runner.jpg	1	4	1	non-food_animate_runner	0	V	15	0	142	0		0	0	142.524858900346	142.624827300198
31536.75	0.0999818998388946	434	satiated	stimuli/non_foods\non-food_animate_parrot.jpg	1	4	1	non-food_animate_parrot	0	S	13	0	133	1	a	0	0	142.674843000248	142.774824900087
31574.25	0.0999794998206198	435	satiated	stimuli/foods\cabbage.jpg	1	4	1	cabbage	1	G	4	0	16	0		0	0	142.82484150026	142.924821000081
31611.75	0.0999854002147913	436	satiated	stimuli/non_foods\non-food_inanimate_skateboard.jpg	1	4	1	non-food_inanimate_skateboard	0	F	3	0	208	0		0	0	142.974837299902	143.074822700117
31649.25	0.0999769996851683	437	satiated	stimuli/foods\dates.jpg	1	4	1	dates	1	Z	18	0	43	0		0	0	143.124838900287	143.224815899972
31686.75	0.0999854998663068	438	satiated	stimuli/foods\pineapple.jpg	1	4	1	pineapple	1	L	8	0	243	0		0	0	143.274835700169	143.374821200036
31724.25	0.100014300085604	439	satiated	stimuli/non_foods\non-food_animate_seal.jpg	1	4	1	non-food_animate_seal	0	X	17	0	146	0		0	0	143.424833999947	143.524848300032
31761.75	0.0999418999999762	440	satiated	stimuli/foods\rice_cake.jpg	1	4	1	rice_cake	1	N	10	0	258	0		0	0	143.574879900087	143.674821800087
31799.25	0.0999746997840703	441	satiated	stimuli/non_foods\non-food_inanimate_socks.jpg	1	4	1	non-food_inanimate_socks	0	R	12	0	211	0		0	0	143.724839500152	143.824814199936
31836.75	0.0999825997278094	442	satiated	stimuli/foods\onion.jpg	1	4	1	onion	1	G	4	0	229	0		0	0	143.874828600325	143.974811200052
31874.25	0.0999865001067519	443	satiated	stimuli/non_foods\non-food_animate_killer_whale.jpg	1	4	1	non-food_animate_killer_whale	0	P	11	0	123	0		0	0	144.024824500084	144.124811000191
31911.75	0.0999768003821373	444	satiated	stimuli/non_foods\non-food_inanimate_bed.jpg	1	4	1	non-food_inanimate_bed	0	M	9	0	160	0		0	0	144.174817299936	144.274794100318
31949.25	0.099984799977392	445	satiated	stimuli/non_foods\non-food_animate_giraffe.jpg	1	4	1	non-food_animate_giraffe	0	H	5	0	115	0		0	0	144.32482139999	144.424806199968
31986.75	0.0999845000915229	446	satiated	stimuli/foods\donut.jpg	1	4	1	donut	1	X	17	0	44	0		0	0	144.474823799916	144.574808300007
32024.25	0.0999841997399926	447	satiated	stimuli/foods\lentils.jpg	1	4	1	lentils	1	C	1	0	74	0		0	0	144.62482140027	144.72480560001
32061.75	0.0999928996898234	448	satiated	stimuli/foods\strawberry.jpg	1	4	1	strawberry	1	X	17	0	272	0		0	0	144.774814700242	144.874807599932
32099.25	0.100004700012505	449	satiated	stimuli/non_foods\non-food_animate_swan.jpg	1	4	1	non-food_animate_swan	0	Z	18	0	152	0		0	0	144.924805200193	145.024809900206
32136.75	0.0999749000184238	450	satiated	stimuli/foods\clams.jpg	1	4	1	clams	1	X	17	0	32	0		0	0	145.074822700117	145.174797600135
32174.25	0.0999873001128435	451	satiated	stimuli/non_foods\non-food_animate_cat.jpg	1	4	1	non-food_animate_cat	0	J	6	0	98	0		0	0	145.224821100011	145.324808400124
32211.75	0.0999549999833107	452	satiated	stimuli/non_foods\non-food_inanimate_cactus_pot_plant.jpg	1	4	1	non-food_inanimate_cactus_pot_plant	0	S	13	0	169	0		0	0	145.374843200203	145.474798200186
32249.25	0.0999839999713004	453	satiated	stimuli/non_foods\non-food_inanimate_rope.jpg	1	4	1	non-food_inanimate_rope	0	H	5	0	204	0		0	0	145.524809100199	145.624793100171
32286.75	0.0999883003532887	454	satiated	stimuli/non_foods\non-food_animate_millipede.jpg	1	4	1	non-food_animate_millipede	0	X	17	0	129	1	a	0	0	145.674807399977	145.77479570033
32324.25	0.099995999597013	455	satiated	stimuli/non_foods\non-food_inanimate_scissors.jpg	1	4	1	non-food_inanimate_scissors	0	F	3	0	205	0		0	0	145.824805800337	145.924801799934
32361.75	0.0999596999026835	456	satiated	stimuli/foods\omelette.jpg	1	4	1	omelette	1	P	11	0	228	0		0	0	145.974815600086	146.074775299989
32399.25	0.099991699680686	457	satiated	stimuli/non_foods\non-food_animate_deer.jpg	1	4	1	non-food_animate_deer	0	V	15	0	105	0		0	0	146.124804700259	146.22479639994
32436.75	0.0999858002178371	458	satiated	stimuli/non_foods\non-food_animate_frog.jpg	1	4	1	non-food_animate_frog	0	H	5	0	113	0		0	0	146.274809800088	146.374795600306
32474.25	0.09998709987849	459	satiated	stimuli/non_foods\non-food_animate_rhino.jpg	1	4	1	non-food_animate_rhino	0	N	10	0	141	0		0	0	146.424809200224	146.524796300102
32511.75	0.0999918999150395	460	satiated	stimuli/non_foods\non-food_inanimate_nest.jpg	1	4	1	non-food_inanimate_nest	0	M	9	0	196	0		0	0	146.574798800051	146.674790699966
32549.25	0.0999870002269745	461	satiated	stimuli/foods\roasted_chicken.jpg	1	4	1	roasted_chicken	1	G	4	0	261	0		0	0	146.724804900121	146.824791900348
32586.75	0.0999817000702024	462	satiated	stimuli/foods\ice_cream.jpg	1	4	1	ice_cream	1	S	13	0	68	0		0	0	146.874806799926	146.974788499996
32624.25	0.0999986999668181	463	satiated	stimuli/non_foods\non-food_animate_peacock.jpg	1	4	1	non-food_animate_peacock	0	X	17	0	134	0		0	0	147.024816900026	147.124815599993
32661.75	0.0999806998297572	464	satiated	stimuli/foods\capsicum.jpg	1	4	1	capsicum	1	C	1	0	18	0		0	0	147.174800500274	147.274781200103
32699.25	0.0999842002056539	465	satiated	stimuli/non_foods\non-food_animate_lion.jpg	1	4	1	non-food_animate_lion	0	H	5	0	125	0		0	0	147.324798400048	147.424782600254
32736.75	0.0999871003441513	466	satiated	stimuli/non_foods\non-food_animate_iguana.jpg	1	4	1	non-food_animate_iguana	0	J	6	0	121	0		0	0	147.474795999937	147.574783100281
32774.25	0.0999819003045559	467	satiated	stimuli/non_foods\non-food_inanimate_bicycle.jpg	1	4	1	non-food_inanimate_bicycle	0	B	0	0	161	0		0	0	147.624798499979	147.724780400284
32811.75	0.0999863999895751	468	satiated	stimuli/foods\brownie.jpg	1	4	1	brownie	1	T	14	0	14	0		0	0	147.774796000216	147.874782400206
32849.25	0.0999870002269745	469	satiated	stimuli/foods\celery.jpg	1	4	1	celery	1	R	12	0	21	0		0	0	147.924792699981	148.024779700208
32886.75	0.0999774001538754	470	satiated	stimuli/foods\blackberry.jpg	1	4	1	blackberry	1	D	2	0	11	0		0	0	148.074801200069	148.174778600223
32924.25	0.0999630000442266	471	satiated	stimuli/non_foods\non-food_inanimate_stoplight.jpg	1	4	1	non-food_inanimate_stoplight	0	P	11	0	214	0		0	0	148.224813300185	148.324776300229
32961.75	0.0999997002072632	472	satiated	stimuli/non_foods\non-food_animate_hummingbird.jpg	1	4	1	non-food_animate_hummingbird	0	L	8	0	120	0		0	0	148.374773600139	148.474773300346
32999.25	0.0999817997217178	473	satiated	stimuli/foods\risotto_with_zucchini.jpg	1	4	1	risotto_with_zucchini	1	N	10	0	260	0		0	0	148.524788100272	148.624769899994
33036.75	0.0999884000048041	474	satiated	stimuli/foods\risotto_with_peas_and_asparagus_tips.jpg	1	4	1	risotto_with_peas_and_asparagus_tips	1	H	5	0	259	0		0	0	148.674784600269	148.774773000274
33074.25	0.100004700012505	475	satiated	stimuli/non_foods\non-food_animate_dolphin.jpg	1	4	1	non-food_animate_dolphin	0	P	11	0	106	0		0	0	148.824779999908	148.924784699921
33111.75	0.0999839003197849	476	satiated	stimuli/non_foods\non-food_inanimate_sun_flower.jpg	1	4	1	non-food_inanimate_sun_flower	0	G	4	0	216	0		0	0	148.974806000013	149.074789900333
33149.25	0.0999818998388946	477	satiated	stimuli/foods\fried_zucchini.jpg	1	4	1	fried_zucchini	1	T	14	0	51	0		0	0	149.124782900326	149.224764800165
33186.75	0.0999818998388946	478	satiated	stimuli/foods\tomato.jpg	1	4	1	tomato	1	D	2	0	276	0		0	0	149.2747808001	149.374762699939
33224.25	0.0999976000748575	479	satiated	stimuli/foods\coconut.jpg	1	4	1	coconut	1	F	3	0	33	0		0	0	149.424750200007	149.524747800082
33261.75	0.100005299784243	480	satiated	stimuli/non_foods\non-food_inanimate_button.jpg	1	4	1	non-food_inanimate_button	0	N	10	0	168	0		0	0	149.574754400179	149.674759699963
33299.25	0.0999869001097977	481	satiated	stimuli/foods\egg.jpg	1	4	1	egg	1	D	2	0	45	0		0	0	149.724774700124	149.824761600234
33336.75	0.100030300207436	482	satiated	stimuli/foods\pea_pod.jpg	1	4	1	pea_pod	1	P	11	0	237	0		0	0	149.874771500006	149.974801800214
33374.25	0.0999819999560714	483	satiated	stimuli/non_foods\non-food_inanimate_shell.jpg	1	4	1	non-food_inanimate_shell	0	N	10	0	206	0		0	0	150.024772800039	150.124754799996
33411.75	0.0999882998876274	484	satiated	stimuli/non_foods\non-food_animate_tortoise.jpg	1	4	1	non-food_animate_tortoise	0	P	11	0	153	0		0	0	150.17476550024	150.274753800128
33449.25	0.0999849997460842	485	satiated	stimuli/foods\mortadella.jpg	1	4	1	mortadella	1	H	5	0	83	0		0	0	150.324768700171	150.424753699917
33486.75	0.0999865997582674	486	satiated	stimuli/foods\ginger_root.jpg	1	4	1	ginger_root	1	S	13	0	57	0		0	0	150.474764800165	150.574751399923
33524.25	0.0999552998691797	487	satiated	stimuli/non_foods\non-food_animate_ant.jpg	1	4	1	non-food_animate_ant	0	N	10	0	91	0		0	0	150.624791400041	150.724746699911
33561.75	0.0999835999682546	488	satiated	stimuli/foods\lemon.jpg	1	4	1	lemon	1	X	17	0	72	0		0	0	150.774763900321	150.874747500289
33599.25	0.0999920000322163	489	satiated	stimuli/foods\fruit_flan.jpg	1	4	1	fruit_flan	1	G	4	0	53	0		0	0	150.924759900197	151.02475190023
33636.75	0.0999846998602152	490	satiated	stimuli/foods\gnocchi.jpg	1	4	1	gnocchi	1	K	7	0	58	0		0	0	151.074760300107	151.174744999968
33674.25	0.0999877001158893	491	satiated	stimuli/foods\oregano.jpg	1	4	1	oregano	1	T	14	0	231	0		0	0	151.224757200107	151.324744900223
33711.75	0.0999898002482951	492	satiated	stimuli/foods\peach.jpg	1	4	1	peach	1	J	6	0	238	0		0	0	151.374755199999	151.474745000247
33749.25	0.0999891995452344	493	satiated	stimuli/non_foods\non-food_animate_donkey.jpg	1	4	1	non-food_animate_donkey	0	F	3	0	107	1	a	0	0	151.524752800353	151.624741999898
33786.75	0.100034100003541	494	satiated	stimuli/non_foods\non-food_inanimate_briefcase.jpg	1	4	1	non-food_inanimate_briefcase	0	G	4	0	163	0		0	0	151.674753699917	151.774787799921
33824.25	0.099989099893719	495	satiated	stimuli/non_foods\non-food_inanimate_folding_chair.jpg	1	4	1	non-food_inanimate_folding_chair	0	X	17	0	182	0		0	0	151.824741300195	151.924730400089
33861.75	0.0999888000078499	496	satiated	stimuli/foods\meatballs.jpg	1	4	1	meatballs	1	N	10	0	81	0		0	0	151.974741000216	152.074729800224
33899.25	0.0999825000762939	497	satiated	stimuli/foods\lasagna.jpg	1	4	1	lasagna	1	L	8	0	71	0		0	0	152.124739000108	152.224721500184
33936.75	0.0999796995893121	498	satiated	stimuli/non_foods\non-food_inanimate_toy_airplane.jpg	1	4	1	non-food_inanimate_toy_airplane	0	K	7	0	222	0		0	0	152.274752800353	152.374732499942
33974.25	0.099943199660629	499	satiated	stimuli/foods\kiwi.jpg	1	4	1	kiwi	1	N	10	0	69	0		0	0	152.424787800293	152.524730999954
34011.75	0.0999372997321188	500	satiated	stimuli/non_foods\non-food_inanimate_suitcase.jpg	1	4	1	non-food_inanimate_suitcase	0	M	9	0	215	0		0	0	152.574790200219	152.674727499951
34049.25	0.0999865997582674	501	satiated	stimuli/non_foods\non-food_inanimate_skirt.jpg	1	4	1	non-food_inanimate_skirt	0	W	16	0	209	0		0	0	152.72474190034	152.824728500098
34086.75	0.100005100015551	502	satiated	stimuli/foods\taco.jpg	1	4	1	taco	1	V	15	0	274	0		0	0	152.874724100344	152.974729200359
34124.25	0.0999641004018486	503	satiated	stimuli/foods\watermelon.jpg	1	4	1	watermelon	1	Z	18	0	279	0		0	0	153.02474049991	153.124704600312
34161.75	0.0999851003289223	504	satiated	stimuli/foods\nectarine.jpg	1	4	1	nectarine	1	L	8	0	87	0		0	0	153.174736700021	153.27472180035
34199.25	0.0999869001097977	505	satiated	stimuli/non_foods\non-food_animate_horse.jpg	1	4	1	non-food_animate_horse	0	B	0	0	119	0		0	0	153.324735200033	153.424722100142
34236.75	0.0999794001691043	506	satiated	stimuli/foods\baked_cod_with_carrots_and_green_beans.jpg	1	4	1	baked_cod_with_carrots_and_green_beans	1	Z	18	0	7	0		0	0	153.474734100047	153.574713500217
34274.25	0.09998539974913	507	satiated	stimuli/foods\chocolate_bar.jpg	1	4	1	chocolate_bar	1	K	7	0	26	0		0	0	153.624724100344	153.724709500093
34311.75	0.0999838002026081	508	satiated	stimuli/non_foods\non-food_inanimate_desk.jpg	1	4	1	non-food_inanimate_desk	0	M	9	0	178	0		0	0	153.774724400137	153.874708200339
34349.25	0.0999881001189351	509	satiated	stimuli/foods\cooked_prawn.jpg	1	4	1	cooked_prawn	1	G	4	0	36	0		0	0	153.924718500115	154.024706600234
34386.75	0.10000229999423	510	satiated	stimuli/foods\fennel.jpg	1	4	1	fennel	1	W	16	0	47	0		0	0	154.074719400145	154.174721700139
34424.25	0.0999619998037815	511	satiated	stimuli/foods\swordfish.jpg	1	4	1	swordfish	1	O	22	1	273	0		0	0	154.224741500337	154.32470350014
34461.75	0.0999781000427902	512	satiated	stimuli/foods\rockmelon.jpg	1	4	1	rockmelon	1	L	8	0	262	0		0	0	154.374728300143	154.474706400186
34499.25	0.100006100255996	513	satiated	stimuli/non_foods\non-food_inanimate_clover.jpg	1	4	1	non-food_inanimate_clover	0	G	4	0	174	0		0	0	154.524726999924	154.62473310018
34536.75	0.0999795999377966	514	satiated	stimuli/non_foods\non-food_animate_eagle.jpg	1	4	1	non-food_animate_eagle	0	V	15	0	110	0		0	0	154.674729899969	154.774709499907
34574.25	0.100015699863434	515	satiated	stimuli/non_foods\non-food_animate_slug.jpg	1	4	1	non-food_animate_slug	0	Z	18	0	148	1	a	0.604836799670011	1	154.82469030004	154.924705999903
34611.75	0.0999838998541236	516	satiated	stimuli/foods\lamb_chops.jpg	1	4	1	lamb_chops	1	B	0	0	70	0		0	0	154.974718000274	155.074701900128
34649.25	0.0999846002086997	517	satiated	stimuli/foods\salmon.jpg	1	4	1	salmon	1	D	2	0	264	0		0	0	155.124717100058	155.224701700266
34686.75	0.0999700003303587	518	satiated	stimuli/foods\artichoke.jpg	1	4	1	artichoke	1	W	16	0	3	0		0	0	155.274734199978	155.374704200309
34724.25	0.0999888000078499	519	satiated	stimuli/non_foods\non-food_inanimate_fire_extinguisher.jpg	1	4	1	non-food_inanimate_fire_extinguisher	0	X	17	0	181	0		0	0	155.424711900298	155.524700700305
34761.75	0.0999862998723984	520	satiated	stimuli/non_foods\non-food_inanimate_rack.jpg	1	4	1	non-food_inanimate_rack	0	C	1	0	202	0		0	0	155.574711500201	155.674697800074
34799.25	0.0999811999499798	521	satiated	stimuli/non_foods\non-food_inanimate_chair.jpg	1	4	1	non-food_inanimate_chair	0	R	12	0	172	0		0	0	155.724711399991	155.824692599941
34836.75	0.100013599731028	522	satiated	stimuli/foods\grapefruits.jpg	1	4	1	grapefruits	1	T	14	0	59	0		0	0	155.874723700341	155.974737300072
34874.25	0.0999677004292607	523	satiated	stimuli/foods\pear.jpg	1	4	1	pear	1	R	12	0	239	0		0	0	156.024724999908	156.124692700338
34911.75	0.0999889997765422	524	satiated	stimuli/foods\lettuce.jpg	1	4	1	lettuce	1	Z	18	0	75	0		0	0	156.174701900221	156.274690899998
34949.25	0.0999870002269745	525	satiated	stimuli/foods\chilli.jpg	1	4	1	chilli	1	H	5	0	25	0		0	0	156.324704899918	156.424691900145
34986.75	0.0999858002178371	526	satiated	stimuli/foods\raw_ham.jpg	1	4	1	raw_ham	1	Z	18	0	253	0		0	0	156.474703100044	156.574688900262
35024.25	0.0999696999788284	527	satiated	stimuli/non_foods\non-food_animate_ladybug.jpg	1	4	1	non-food_animate_ladybug	0	S	13	0	124	0		0	0	156.624684500042	156.724654200021
35061.75	0.0999851999804378	528	satiated	stimuli/non_foods\non-food_inanimate_lighter.jpg	1	4	1	non-food_inanimate_lighter	0	V	15	0	193	0		0	0	156.774680499919	156.874665699899
35099.25	0.0999867999926209	529	satiated	stimuli/foods\raw_sausage.jpg	1	4	1	raw_sausage	1	W	16	0	254	0		0	0	156.924694800284	157.024681600276
35136.75	0.0999944997020066	530	satiated	stimuli/non_foods\non-food_animate_kangaroo.jpg	1	4	1	non-food_animate_kangaroo	0	T	14	0	122	0		0	0	157.074686600361	157.174681100063
35174.25	0.0999889001250267	531	satiated	stimuli/non_foods\non-food_animate_butterfly.jpg	1	4	1	non-food_animate_butterfly	0	M	9	0	96	0		0	0	157.224694299977	157.324683200102
35211.75	0.09998539974913	532	satiated	stimuli/non_foods\non-food_animate_woman.jpg	1	4	1	non-food_animate_woman	0	Z	18	0	154	0		0	0	157.374691800214	157.474677199963
35249.25	0.0999846998602152	533	satiated	stimuli/non_foods\non-food_animate_penguin.jpg	1	4	1	non-food_animate_penguin	0	R	12	0	135	0		0	0	157.524689600337	157.624674300198
35286.75	0.100006999913603	534	satiated	stimuli/foods\banana.jpg	1	4	1	banana	1	Z	18	0	9	0		0	0	157.674699200317	157.774706200231
35324.25	0.0999878002330661	535	satiated	stimuli/non_foods\non-food_animate_cheetah.jpg	1	4	1	non-food_animate_cheetah	0	B	0	0	100	0		0	0	157.824684800114	157.924672600348
35361.75	0.0999934999272227	536	satiated	stimuli/non_foods\non-food_animate_caterpillar.jpg	1	4	1	non-food_animate_caterpillar	0	F	3	0	99	0		0	0	157.974687800277	158.074681300204
35399.25	0.0999848996289074	537	satiated	stimuli/foods\hamburger.jpg	1	4	1	hamburger	1	V	15	0	64	0		0	0	158.124683900271	158.2246687999
35436.75	0.0999801000580192	538	satiated	stimuli/foods\carrot.jpg	1	4	1	carrot	1	J	6	0	19	0		0	0	158.274682600051	158.374662700109
35474.25	0.0999832996167243	539	satiated	stimuli/foods\oyster.jpg	1	4	1	oyster	1	V	15	0	233	0		0	0	158.424666600302	158.524649899919
35511.75	0.0999875999987125	540	satiated	stimuli/foods\fruit_salad.jpg	1	4	1	fruit_salad	1	G	4	0	55	0		0	0	158.574679099955	158.674666699953
35549.25	0.0999694000929594	541	satiated	stimuli/foods\bagel.jpg	1	4	1	bagel	1	W	16	0	6	0		0	0	158.724677300081	158.824646700174
35586.75	0.10000400012359	542	satiated	stimuli/foods\apple.jpg	1	4	1	apple	1	H	5	0	1	0		0	0	158.874656800181	158.974660800304
35624.25	0.099985099863261	543	satiated	stimuli/non_foods\non-food_inanimate_teddy_bear.jpg	1	4	1	non-food_inanimate_teddy_bear	0	G	4	0	218	0		0	0	159.024675700348	159.124660800211
35661.75	0.0999875999987125	544	satiated	stimuli/non_foods\non-food_inanimate_nettle.jpg	1	4	1	non-food_inanimate_nettle	0	N	10	0	197	0		0	0	159.174673900008	159.274661500007
35699.25	0.0999731998890638	545	satiated	stimuli/non_foods\non-food_inanimate_grass.jpg	1	4	1	non-food_inanimate_grass	0	E	20	1	184	0		0	0	159.324653400108	159.424626599997
35736.75	0.0999880000017583	546	satiated	stimuli/foods\hazelnuts.jpg	1	4	1	hazelnuts	1	F	3	0	65	0		0	0	159.47466160031	159.574649600312
35774.25	0.0999977001920342	547	satiated	stimuli/foods\beetroots.jpg	1	4	1	beetroots	1	X	17	0	10	0		0	0	159.624655200168	159.724652900361
35811.75	0.0999863999895751	548	satiated	stimuli/non_foods\non-food_inanimate_chandelier.jpg	1	4	1	non-food_inanimate_chandelier	0	B	0	0	173	0		0	0	159.774666500278	159.874652900267
35849.25	0.0999849997460842	549	satiated	stimuli/foods\corncob.jpg	1	4	1	corncob	1	L	8	0	37	0		0	0	159.924668100197	160.024653099943
35886.75	0.100005500018597	550	satiated	stimuli/foods\potato_chips.jpg	1	4	1	potato_chips	1	D	2	0	247	0		0	0	160.074642099906	160.174647599924
35924.25	0.0999866998754442	551	satiated	stimuli/foods\salami.jpg	1	4	1	salami	1	K	7	0	263	0		0	0	160.224663200323	160.324649900198
35961.75	0.0999929998070002	552	satiated	stimuli/non_foods\non-food_inanimate_watering_can.jpg	1	4	1	non-food_inanimate_watering_can	0	W	16	0	225	0		0	0	160.374656000175	160.474648999982
35999.25	0.10000059986487	553	satiated	stimuli/foods\chocolate_chip_cookies.jpg	1	4	1	chocolate_chip_cookies	1	S	13	0	27	0		0	0	160.52465890022	160.624659500085
36036.75	0.0999879003502429	554	satiated	stimuli/foods\cucumber.jpg	1	4	1	cucumber	1	R	12	0	41	0		0	0	160.674656799994	160.774644700345
36074.25	0.0999824004247785	555	satiated	stimuli/non_foods\non-food_inanimate_bucket.jpg	1	4	1	non-food_inanimate_bucket	0	F	3	0	165	0		0	0	160.824657199904	160.924639600329
36111.75	0.0999803002923727	556	satiated	stimuli/foods\cream_donuts.jpg	1	4	1	cream_donuts	1	H	5	0	39	0		0	0	160.974655800033	161.074636100326
36149.25	0.0999886998906732	557	satiated	stimuli/non_foods\non-food_animate_dachshund.jpg	1	4	1	non-food_animate_dachshund	0	Z	18	0	104	0		0	0	161.124655300286	161.224644000176
36186.75	0.0999582996591926	558	satiated	stimuli/non_foods\non-food_animate_alligator.jpg	1	4	1	non-food_animate_alligator	0	X	17	0	90	0		0	0	161.274679200258	161.374637499917
36224.25	0.0999802998267114	559	satiated	stimuli/non_foods\non-food_animate_grasshopper.jpg	1	4	1	non-food_animate_grasshopper	0	G	4	0	117	0		0	0	161.424665800296	161.524646100122
38315.75	0.0999598000198603	560	satiated	stimuli/non_foods\non-food_inanimate_nettle.jpg	1	5	1	non-food_inanimate_nettle	0	J	6	0	197	0		0	0	169.791238300037	169.891198100056
38353.25	0.0999860996380448	561	satiated	stimuli/non_foods\non-food_animate_peacock.jpg	1	5	1	non-food_animate_peacock	0	B	0	0	134	0		0	0	169.941219900269	170.041205999907
38390.75	0.099983099848032	562	satiated	stimuli/non_foods\non-food_inanimate_canoe.jpg	1	5	1	non-food_inanimate_canoe	0	Z	18	0	170	0		0	0	170.09121960029	170.191202700138
38428.25	0.100002000108361	563	satiated	stimuli/non_foods\non-food_animate_alligator.jpg	1	5	1	non-food_animate_alligator	0	L	8	0	90	0		0	0	170.241201200057	170.341203200165
38465.75	0.0999456001445651	564	satiated	stimuli/foods\baked_cod_with_carrots_and_green_beans.jpg	1	5	1	baked_cod_with_carrots_and_green_beans	1	C	1	0	7	0		0	0	170.391253700014	170.491199300159
38503.25	0.0999845000915229	565	satiated	stimuli/non_foods\non-food_animate_seal.jpg	1	5	1	non-food_animate_seal	0	V	15	0	146	0		0	0	170.541213300079	170.641197800171
38540.75	0.0999840996228158	566	satiated	stimuli/foods\raw_ham.jpg	1	5	1	raw_ham	1	Z	18	0	253	0		0	0	170.691213600338	170.79119769996
38578.25	0.100001600105315	567	satiated	stimuli/foods\fennel.jpg	1	5	1	fennel	1	P	11	0	47	0		0	0	170.84120070003	170.941202300135
38615.75	0.0999857001006603	568	satiated	stimuli/foods\radish.jpg	1	5	1	radish	1	C	1	0	251	0		0	0	170.991213600151	171.091199300252
38653.25	0.0999851003289223	569	satiated	stimuli/foods\pepperoni_pizza.jpg	1	5	1	pepperoni_pizza	1	B	0	0	241	0		0	0	171.141214299947	171.241199400276
38690.75	0.0999840996228158	570	satiated	stimuli/non_foods\non-food_inanimate_tulip.jpg	1	5	1	non-food_inanimate_tulip	0	W	16	0	224	0		0	0	171.291211900301	171.391195999924
38728.25	0.0999831999652088	571	satiated	stimuli/non_foods\non-food_animate_sea_turtle.jpg	1	5	1	non-food_animate_sea_turtle	0	R	12	0	144	0		0	0	171.441222500056	171.541205700021
38765.75	0.0999833000823855	572	satiated	stimuli/foods\fruit_pie.jpg	1	5	1	fruit_pie	1	W	16	0	54	0		0	0	171.591209100094	171.691192400176
38803.25	0.0999922999180853	573	satiated	stimuli/non_foods\non-food_animate_mammoth.jpg	1	5	1	non-food_animate_mammoth	0	T	14	0	128	0		0	0	171.741201300174	171.841193600092
38840.75	0.0999826001934707	574	satiated	stimuli/non_foods\non-food_inanimate_padlock.jpg	1	5	1	non-food_inanimate_padlock	0	U	23	1	199	0		0	0	171.89119380014	171.991176400334
38878.25	0.100029999855906	575	satiated	stimuli/foods\mango.jpg	1	5	1	mango	1	G	4	0	80	0		0	0	172.041179500055	172.14120949991
38915.75	0.0999719998799264	576	satiated	stimuli/non_foods\non-food_inanimate_skateboard.jpg	1	5	1	non-food_inanimate_skateboard	0	W	16	0	208	0		0	0	172.191218600143	172.291190600023
38953.25	0.09998709987849	577	satiated	stimuli/non_foods\non-food_animate_young_boy.jpg	1	5	1	non-food_animate_young_boy	0	V	15	0	156	0		0	0	172.341202100273	172.441189200152
38990.75	0.0999874998815358	578	satiated	stimuli/non_foods\non-food_inanimate_desk.jpg	1	5	1	non-food_inanimate_desk	0	H	5	0	178	0		0	0	172.49119690014	172.591184400022
39028.25	0.0999853000976145	579	satiated	stimuli/foods\peach.jpg	1	5	1	peach	1	X	17	0	238	0		0	0	172.641198900063	172.74118420016
39065.75	0.0999688999727368	580	satiated	stimuli/foods\lettuce.jpg	1	5	1	lettuce	1	H	5	0	75	0		0	0	172.791198200081	172.891167100053
39103.25	0.0999768003821373	581	satiated	stimuli/foods\strawberry.jpg	1	5	1	strawberry	1	C	1	0	272	0		0	0	172.941195799969	173.041172600351
39140.75	0.100002800114453	582	satiated	stimuli/non_foods\non-food_inanimate_button.jpg	1	5	1	non-food_inanimate_button	0	T	14	0	168	0		0	0	173.091181300115	173.191184100229
39178.25	0.0999734001234174	583	satiated	stimuli/non_foods\non-food_inanimate_chair.jpg	1	5	1	non-food_inanimate_chair	0	M	9	0	172	0		0	0	173.241204100195	173.341177500319
39215.75	0.0999722997657955	584	satiated	stimuli/foods\chocolate_bar.jpg	1	5	1	chocolate_bar	1	N	10	0	26	0		0	0	173.391189100221	173.491161399987
39253.25	0.100001300219446	585	satiated	stimuli/non_foods\non-food_inanimate_waterlily.jpg	1	5	1	non-food_inanimate_waterlily	0	P	11	0	226	0		0	0	173.541173500009	173.641174800228
39290.75	0.0999843999743462	586	satiated	stimuli/foods\apple.jpg	1	5	1	apple	1	G	4	0	1	0		0	0	173.691185600124	173.791170000099
39328.25	0.100009600166231	587	satiated	stimuli/foods\apricot.jpg	1	5	1	apricot	1	H	5	0	2	0		0	0	173.841185200028	173.941194800194
39365.75	0.0999503000639379	588	satiated	stimuli/non_foods\non-food_animate_cheetah.jpg	1	5	1	non-food_animate_cheetah	0	Z	18	0	100	0		0	0	173.991215300281	174.091165600345
39403.25	0.09998539974913	589	satiated	stimuli/foods\taco.jpg	1	5	1	taco	1	C	1	0	274	0		0	0	174.141182800289	174.241168200038
39440.75	0.0999859999865294	590	satiated	stimuli/foods\pork_and_rice.jpg	1	5	1	pork_and_rice	1	P	11	0	245	0		0	0	174.291182100307	174.391168100294
39478.25	0.099983099848032	591	satiated	stimuli/non_foods\non-food_animate_monkey.jpg	1	5	1	non-food_animate_monkey	0	N	10	0	130	0		0	0	174.441178100184	174.541161200032
39515.75	0.0999859999865294	592	satiated	stimuli/foods\banana.jpg	1	5	1	banana	1	W	16	0	9	0		0	0	174.591177700087	174.691163700074
39553.25	0.0999829000793397	593	satiated	stimuli/foods\minestrone_soup.jpg	1	5	1	minestrone_soup	1	G	4	0	82	0		0	0	174.741177500226	174.841160400305
39590.75	0.10000229999423	594	satiated	stimuli/foods\cannoli.jpg	1	5	1	cannoli	1	N	10	0	17	0		0	0	174.891147200018	174.991149500012
39628.25	0.0999843999743462	595	satiated	stimuli/non_foods\non-food_animate_runner.jpg	1	5	1	non-food_animate_runner	0	R	12	0	142	0		0	0	175.041176500265	175.141160900239
39665.75	0.0999576998874545	596	satiated	stimuli/foods\lemon_meringue_pie.jpg	1	5	1	lemon_meringue_pie	1	H	5	0	73	0		0	0	175.191171200015	175.291128899902
39703.25	0.0999708003364503	597	satiated	stimuli/foods\lentils.jpg	1	5	1	lentils	1	B	0	0	74	0		0	0	175.341171199922	175.441142000258
39740.75	0.100011500064284	598	satiated	stimuli/foods\egg.jpg	1	5	1	egg	1	J	6	0	45	0		0	0	175.491146100219	175.591157600284
39778.25	0.100002800114453	599	satiated	stimuli/non_foods\non-food_animate_lion.jpg	1	5	1	non-food_animate_lion	0	M	9	0	125	0		0	0	175.64116670005	175.741169500165
39815.75	0.0999749996699393	600	satiated	stimuli/foods\brussel_sprouts.jpg	1	5	1	brussel_sprouts	1	B	0	0	15	0		0	0	175.791177700274	175.891152699944
39853.25	0.09998539974913	601	satiated	stimuli/foods\mandarin.jpg	1	5	1	mandarin	1	D	2	0	79	0		0	0	175.941161800176	176.041147199925
39890.75	0.0999861001037061	602	satiated	stimuli/non_foods\non-food_inanimate_protractor.jpg	1	5	1	non-food_inanimate_protractor	0	P	11	0	201	1	a	0	0	176.091162499972	176.191148600075
39928.25	0.0999838998541236	603	satiated	stimuli/foods\fried_zucchini.jpg	1	5	1	fried_zucchini	1	W	16	0	51	0		0	0	176.241161200218	176.341145100072
39965.75	0.099980799946934	604	satiated	stimuli/non_foods\non-food_inanimate_speakers.jpg	1	5	1	non-food_inanimate_speakers	0	H	5	0	212	0		0	0	176.391162400134	176.491143200081
40003.25	0.0999862998723984	605	satiated	stimuli/non_foods\non-food_animate_yellow_bug.jpg	1	5	1	non-food_animate_yellow_bug	0	L	8	0	155	0		0	0	176.541160400026	176.641146699898
40040.75	0.0999974999576807	606	satiated	stimuli/foods\toasted_bread_with_tomatoes.jpg	1	5	1	toasted_bread_with_tomatoes	1	V	15	0	275	0		0	0	176.691156200133	176.791153700091
40078.25	0.0999814001843333	607	satiated	stimuli/non_foods\non-food_inanimate_gloves.jpg	1	5	1	non-food_inanimate_gloves	0	B	0	0	183	0		0	0	176.841158099938	176.941139500123
40115.75	0.0999862002208829	608	satiated	stimuli/non_foods\non-food_animate_baby_crawling.jpg	1	5	1	non-food_animate_baby_crawling	0	P	11	0	92	0		0	0	176.991153799929	177.09114000015
40153.25	0.0999825000762939	609	satiated	stimuli/non_foods\non-food_inanimate_briefcase.jpg	1	5	1	non-food_inanimate_briefcase	0	K	7	0	163	0		0	0	177.141151800286	177.241134300362
40190.75	0.100005799904466	610	satiated	stimuli/foods\mortadella.jpg	1	5	1	mortadella	1	L	8	0	83	0		0	0	177.291147700045	177.39115349995
40228.25	0.09999810019508	611	satiated	stimuli/foods\dates.jpg	1	5	1	dates	1	Z	18	0	43	0		0	0	177.441125100013	177.541123200208
40265.75	0.0999959004111588	612	satiated	stimuli/foods\oyster.jpg	1	5	1	oyster	1	F	3	0	233	0		0	0	177.5911377999	177.691133700311
40303.25	0.0999869997613132	613	satiated	stimuli/foods\oregano.jpg	1	5	1	oregano	1	Z	18	0	231	0		0	0	177.741147300228	177.84113429999
40340.75	0.0999819999560714	614	satiated	stimuli/non_foods\non-food_animate_deer.jpg	1	5	1	non-food_animate_deer	0	S	13	0	105	0		0	0	177.891139999963	177.991121999919
40378.25	0.099984799977392	615	satiated	stimuli/non_foods\non-food_inanimate_drum_set.jpg	1	5	1	non-food_inanimate_drum_set	0	Z	18	0	179	0		0	0	178.041135500185	178.141120300163
40415.75	0.0999612999148667	616	satiated	stimuli/non_foods\non-food_animate_ant.jpg	1	5	1	non-food_animate_ant	0	T	14	0	91	0		0	0	178.191137799993	178.291099099908
40453.25	0.0999861001037061	617	satiated	stimuli/non_foods\non-food_animate_skunk.jpg	1	5	1	non-food_animate_skunk	0	K	7	0	147	0		0	0	178.341138400137	178.441124500241
40490.75	0.0999826998449862	618	satiated	stimuli/foods\cauliflower.jpg	1	5	1	cauliflower	1	B	0	0	20	0		0	0	178.491141000297	178.591123700142
40528.25	0.0999878002330661	619	satiated	stimuli/non_foods\non-food_animate_pigeon.jpg	1	5	1	non-food_animate_pigeon	0	S	13	0	136	0		0	0	178.641131599899	178.741119400132
40565.75	0.0999882002361119	620	satiated	stimuli/non_foods\non-food_inanimate_toilet.jpg	1	5	1	non-food_inanimate_toilet	0	D	2	0	220	0		0	0	178.791134499945	178.891122700181
40603.25	0.099983099848032	621	satiated	stimuli/foods\lollies.jpg	1	5	1	lollies	1	F	3	0	78	0		0	0	178.941133300308	179.041116400156
40640.75	0.100027000065893	622	satiated	stimuli/non_foods\non-food_animate_gorilla.jpg	1	5	1	non-food_animate_gorilla	0	G	4	0	116	0		0	0	179.091130000073	179.191157000139
40678.25	0.0999237997457385	623	satiated	stimuli/non_foods\non-food_animate_duck.jpg	1	5	1	non-food_animate_duck	0	K	7	0	109	0		0	0	179.241193000227	179.341116799973
40715.75	0.099983399733901	624	satiated	stimuli/foods\donut.jpg	1	5	1	donut	1	X	17	0	44	0		0	0	179.391131200362	179.491114600096
40753.25	0.0999882998876274	625	satiated	stimuli/non_foods\non-food_animate_killer_whale.jpg	1	5	1	non-food_animate_killer_whale	0	J	6	0	123	0		0	0	179.541127700359	179.641116000246
40790.75	0.0999841000884771	626	satiated	stimuli/non_foods\non-food_animate_seahorse.jpg	1	5	1	non-food_animate_seahorse	0	H	5	0	145	0		0	0	179.691127100028	179.791111200117
40828.25	0.0999888000078499	627	satiated	stimuli/non_foods\non-food_animate_swan.jpg	1	5	1	non-food_animate_swan	0	W	16	0	152	0		0	0	179.841121400241	179.941110200249
40865.75	0.100002599880099	628	satiated	stimuli/foods\pumpkin.jpg	1	5	1	pumpkin	1	N	10	0	250	0		0	0	179.991107500158	180.091110100038
40903.25	0.0999843999743462	629	satiated	stimuli/non_foods\non-food_inanimate_wrench.jpg	1	5	1	non-food_inanimate_wrench	0	L	8	0	227	0		0	0	180.141120899934	180.241105299909
40940.75	0.09997220011428	630	satiated	stimuli/foods\figs.jpg	1	5	1	figs	1	R	12	0	48	0		0	0	180.291137100197	180.391109300312
40978.25	0.0999970003031194	631	satiated	stimuli/foods\potatoes.jpg	1	5	1	potatoes	1	X	17	0	248	0		0	0	180.441116699949	180.541113700252
41015.75	0.0999852996319532	632	satiated	stimuli/foods\grapes.jpg	1	5	1	grapes	1	R	12	0	60	0		0	0	180.5911139003	180.691099199932
41053.25	0.0999791999347508	633	satiated	stimuli/foods\papaya.jpg	1	5	1	papaya	1	F	3	0	235	0		0	0	180.741114200093	180.841093400028
41090.75	0.0999737000092864	634	satiated	stimuli/foods\cream_donuts.jpg	1	5	1	cream_donuts	1	V	15	0	39	0		0	0	180.891116700135	180.991090400144
41128.25	0.099964200053364	635	satiated	stimuli/foods\prawn.jpg	1	5	1	prawn	1	N	10	0	249	0		0	0	181.041125100106	181.141089300159
41165.75	0.100004900246859	636	satiated	stimuli/non_foods\non-food_inanimate_ring.jpg	1	5	1	non-food_inanimate_ring	0	X	17	0	203	0		0	0	181.191090899985	181.291095800232
41203.25	0.10000290023163	637	satiated	stimuli/foods\coffee_beans.jpg	1	5	1	coffee_beans	1	P	11	0	34	0		0	0	181.341082700063	181.441085600294
41240.75	0.100001099985093	638	satiated	stimuli/foods\pomegranate.jpg	1	5	1	pomegranate	1	J	6	0	244	0		0	0	181.491094999947	181.591096099932
41278.25	0.0999563997611403	639	satiated	stimuli/non_foods\non-food_animate_millipede.jpg	1	5	1	non-food_animate_millipede	0	D	2	0	129	0		0	0	181.641110100318	181.741066500079
