onset	duration	eventnumber	hunger_condition	stimfilename	blockno	trialno	is_faststream	stim	food_idx	letter	letter_idx	istarget	image_number	response	keypressed	rt	correct	time_stimon	time_stimoff
2005.5	0.0999747000169009	0	satiated	stimuli/non_foods\non-food_inanimate_padlock.jpg	1	1	1	non-food_inanimate_padlock	0	V	15	0	199	0		0	0	65.9575451000128	66.0575198000297
2043	0.100035899959039	1	satiated	stimuli/foods\chilli.jpg	1	1	1	chilli	1	W	16	0	25	0		0	0	66.1075380000402	66.2075738999993
2080.5	0.0999665999552235	2	satiated	stimuli/non_foods\non-food_animate_Causasian_man.jpg	1	1	1	non-food_animate_Causasian_man	0	X	17	0	89	0		0	0	66.2575507000438	66.357517299999
2118	0.0999875999987125	3	satiated	stimuli/foods\artichoke.jpg	1	1	1	artichoke	1	P	11	0	3	0		0	0	66.4075298000243	66.5075174000231
2155.5	0.0999836000264622	4	satiated	stimuli/foods\cupcake.jpg	1	1	1	cupcake	1	J	6	0	42	0		0	0	66.5575312000001	66.6575148000265
2193	0.0999862999888137	5	satiated	stimuli/non_foods\non-food_animate_raccoon.jpg	1	1	1	non-food_animate_raccoon	0	K	7	0	139	0		0	0	66.7075275000534	66.8075138000422
2230.5	0.0999690999742597	6	satiated	stimuli/non_foods\non-food_inanimate_bamboo.jpg	1	1	1	non-food_inanimate_bamboo	0	H	5	0	159	0		0	0	66.8575300000375	66.9574991000118
2268	0.100008499983232	7	satiated	stimuli/foods\almonds.jpg	1	1	1	almonds	1	Z	18	0	0	0		0	0	67.0075061000534	67.1075146000367
2305.5	0.099985699984245	8	satiated	stimuli/foods\egg.jpg	1	1	1	egg	1	B	0	0	45	0		0	0	67.1575244000414	67.2575101000257
2343	0.0999844999751076	9	satiated	stimuli/foods\mushroom.jpg	1	1	1	mushroom	1	L	8	0	85	0		0	0	67.3075282000354	67.4075127000106
2380.5	0.0999835999682546	10	satiated	stimuli/foods\hotdog.jpg	1	1	1	hotdog	1	J	6	0	67	0		0	0	67.4575244000298	67.5575079999981
2418	0.0999862999888137	11	satiated	stimuli/non_foods\non-food_animate_bat.jpg	1	1	1	non-food_animate_bat	0	S	13	0	94	0		0	0	67.6075239000493	67.7075102000381
2455.5	0.0999828999629244	12	satiated	stimuli/non_foods\non-food_animate_giraffe.jpg	1	1	1	non-food_animate_giraffe	0	L	8	0	115	0		0	0	67.7575264000334	67.8575092999963
2493	0.0997688000206836	13	satiated	stimuli/non_foods\non-food_animate_cow.jpg	1	1	1	non-food_animate_cow	0	D	2	0	103	0		0	0	67.9077404999989	68.0075093000196
2530.5	0.0999748999602161	14	satiated	stimuli/foods\frankfurter_and_provolone_salad.jpg	1	1	1	frankfurter_and_provolone_salad	1	G	4	0	49	0		0	0	68.0575293000438	68.157504200004
2568	0.0999845999758691	15	satiated	stimuli/foods\risotto_with_zucchini.jpg	1	1	1	risotto_with_zucchini	1	W	16	0	260	0		0	0	68.2075197000522	68.3075043000281
2605.5	0.099989399954211	16	satiated	stimuli/foods\capsicum.jpg	1	1	1	capsicum	1	B	0	0	18	0		0	0	68.3575160000473	68.4575054000015
2643	0.099986599991098	17	satiated	stimuli/foods\cauliflower.jpg	1	1	1	cauliflower	1	S	13	0	20	0		0	0	68.5075210000505	68.6075076000416
2680.5	0.0999882000032812	18	satiated	stimuli/foods\baked_lamb_with_potatoes.jpg	1	1	1	baked_lamb_with_potatoes	1	F	3	0	8	0		0	0	68.6575152000296	68.7575034000329
2718	0.0999918999732472	19	satiated	stimuli/foods\onion.jpg	1	1	1	onion	1	P	11	0	229	0		0	0	68.8075116000255	68.9075034999987
2755.5	0.0999825000180863	20	satiated	stimuli/foods\cracker.jpg	1	1	1	cracker	1	R	12	0	38	0		0	0	68.9575144000119	69.0574969000299
2793	0.0999882000032812	21	satiated	stimuli/non_foods\non-food_animate_baby_sitting.jpg	1	1	1	non-food_animate_baby_sitting	0	W	16	0	93	0		0	0	69.1075120000169	69.2075002000201
2830.5	0.0999923999770544	22	satiated	stimuli/foods\kiwi.jpg	1	1	1	kiwi	1	V	15	0	69	0		0	0	69.2574952000286	69.3574876000057
2868	0.0999863000470214	23	satiated	stimuli/foods\pickles.jpg	1	1	1	pickles	1	W	16	0	242	0		0	0	69.4075033999979	69.507489700045
2905.5	0.0999763000290841	24	satiated	stimuli/non_foods\non-food_inanimate_teddy_bear.jpg	1	1	1	non-food_inanimate_teddy_bear	0	Z	18	0	218	0		0	0	69.5575011000037	69.6574774000328
2943	0.0999995999736711	25	satiated	stimuli/foods\minestrone_soup.jpg	1	1	1	minestrone_soup	1	M	9	0	82	0		0	0	69.707488700049	69.8074883000227
2980.5	0.0999656000058167	26	satiated	stimuli/foods\gnocchi.jpg	1	1	1	gnocchi	1	G	4	0	58	0		0	0	69.8575201000203	69.9574857000262
3018	0.0999870999949053	27	satiated	stimuli/non_foods\non-food_inanimate_rope.jpg	1	1	1	non-food_inanimate_rope	0	C	1	0	204	0		0	0	70.0074875000282	70.1074746000231
3055.5	0.0999566999962553	28	satiated	stimuli/foods\fries.jpg	1	1	1	fries	1	P	11	0	52	0		0	0	70.157508000033	70.2574647000292
3093	0.0999883000040427	29	satiated	stimuli/foods\strawberry.jpg	1	1	1	strawberry	1	M	9	0	272	0		0	0	70.307501800009	70.4074901000131
3130.5	0.0999798999982886	30	satiated	stimuli/foods\potatoes.jpg	1	1	1	potatoes	1	R	12	0	248	0		0	0	70.4575074000168	70.5574873000151
3168	0.099985699984245	31	satiated	stimuli/non_foods\non-food_animate_polar_bear.jpg	1	1	1	non-food_animate_polar_bear	0	T	14	0	137	0		0	0	70.6075006000465	70.7074863000307
3205.5	0.0999938999884762	32	satiated	stimuli/foods\pasta_carbonara.jpg	1	1	1	pasta_carbonara	1	P	11	0	236	0		0	0	70.7575050000451	70.8574989000335
3243	0.100001399987377	33	satiated	stimuli/non_foods\non-food_inanimate_grass.jpg	1	1	1	non-food_inanimate_grass	0	L	8	0	184	0		0	0	70.9074820000096	71.007483399997
3280.5	0.0999884000048041	34	satiated	stimuli/non_foods\non-food_inanimate_nailpolish.jpg	1	1	1	non-food_inanimate_nailpolish	0	M	9	0	195	0		0	0	71.0574978000368	71.1574862000416
3318	0.0999459000304341	35	satiated	stimuli/foods\pancakes.jpg	1	1	1	pancakes	1	C	1	0	234	0		0	0	71.2075157000218	71.3074616000522
3355.5	0.0999836000264622	36	satiated	stimuli/foods\brussel_sprouts.jpg	1	1	1	brussel_sprouts	1	K	7	0	15	0		0	0	71.3574978000252	71.4574814000516
3393	0.0999910000246018	37	satiated	stimuli/non_foods\non-food_inanimate_tree.jpg	1	1	1	non-food_inanimate_tree	0	Z	18	0	223	0		0	0	71.5074946000241	71.6074856000487
3430.5	0.0999085999792442	38	satiated	stimuli/non_foods\non-food_animate_seal.jpg	1	1	1	non-food_animate_seal	0	K	7	0	146	0		0	0	71.6575458000298	71.757454400009
3468	0.0999836000264622	39	satiated	stimuli/foods\fruit_flan.jpg	1	1	1	fruit_flan	1	L	8	0	53	0		0	0	71.8074878000189	71.9074714000453
3505.5	0.099982000014279	40	satiated	stimuli/foods\cucumber.jpg	1	1	1	cucumber	1	G	4	0	41	0		0	0	71.9574863000307	72.057468300045
3543	0.0999864999903366	41	satiated	stimuli/non_foods\non-food_inanimate_skateboard.jpg	1	1	1	non-food_inanimate_skateboard	0	N	10	0	208	0		0	0	72.1074840000365	72.2074705000268
3580.5	0.100004100007936	42	satiated	stimuli/non_foods\non-food_animate_german_shepherd.jpg	1	1	1	non-food_animate_german_shepherd	0	Z	18	0	114	0		0	0	72.2574719000258	72.3574760000338
3618	0.0999828000203706	43	satiated	stimuli/non_foods\non-food_animate_tortoise.jpg	1	1	1	non-food_animate_tortoise	0	F	3	0	153	0		0	0	72.4074909000192	72.5074737000396
3655.5	0.0999616999761201	44	satiated	stimuli/foods\oyster.jpg	1	1	1	oyster	1	H	5	0	233	0		0	0	72.5574900000356	72.6574517000117
3693	0.0999779000412673	45	satiated	stimuli/non_foods\non-food_animate_frog.jpg	1	1	1	non-food_animate_frog	0	V	15	0	113	0		0	0	72.7074829000048	72.8074608000461
3730.5	0.10000780003611	46	satiated	stimuli/non_foods\non-food_animate_kangaroo.jpg	1	1	1	non-food_animate_kangaroo	0	W	16	0	122	0		0	0	72.8574646000052	72.9574724000413
3768	0.0999870999949053	47	satiated	stimuli/foods\broccoli.jpg	1	1	1	broccoli	1	F	3	0	13	0		0	0	73.0074863000191	73.107473400014
3805.5	0.0999838000279851	48	satiated	stimuli/non_foods\non-food_inanimate_waterlily.jpg	1	1	1	non-food_inanimate_waterlily	0	Z	18	0	226	0		0	0	73.1574886000017	73.2574724000297
3843	0.0999861000454985	49	satiated	stimuli/non_foods\non-food_animate_alligator.jpg	1	1	1	non-food_animate_alligator	0	X	17	0	90	0		0	0	73.3074848999968	73.4074710000423
3880.5	0.0999717999948189	50	satiated	stimuli/non_foods\non-food_inanimate_scissors.jpg	1	1	1	non-food_inanimate_scissors	0	J	6	0	205	0		0	0	73.4574997000163	73.5574715000112
3918	0.0999848999781534	51	satiated	stimuli/non_foods\non-food_inanimate_towel.jpg	1	1	1	non-food_inanimate_towel	0	W	16	0	221	0		0	0	73.6074828000274	73.7074677000055
3955.5	0.099986599991098	52	satiated	stimuli/non_foods\non-food_animate_sea_turtle.jpg	1	1	1	non-food_animate_sea_turtle	0	M	9	0	144	0		0	0	73.7574812000385	73.8574678000296
3993	0.0999796999967657	53	satiated	stimuli/foods\mortadella.jpg	1	1	1	mortadella	1	F	3	0	83	0		0	0	73.9074824000127	74.0074621000094
4030.5	0.0999872999964282	54	satiated	stimuli/foods\grilled_chicken_breast.jpg	1	1	1	grilled_chicken_breast	1	P	11	0	63	0		0	0	74.0574779000017	74.1574651999981
4068	0.0999537999741733	55	satiated	stimuli/foods\cherry.jpg	1	1	1	cherry	1	C	1	0	23	0		0	0	74.2075122000533	74.3074660000275
4105.5	0.0999834999674931	56	satiated	stimuli/non_foods\non-food_animate_dolphin.jpg	1	1	1	non-food_animate_dolphin	0	T	14	0	106	0		0	0	74.3574832000304	74.4574666999979
4143	0.0999770000344142	57	satiated	stimuli/foods\cannoli.jpg	1	1	1	cannoli	1	J	6	0	17	0		0	0	74.5075002000085	74.6074772000429
4180.5	0.0999979000189342	58	satiated	stimuli/non_foods\non-food_inanimate_horn.jpg	1	1	1	non-food_inanimate_horn	0	P	11	0	190	0		0	0	74.6574650999974	74.7574630000163
4218	0.0999786999891512	59	satiated	stimuli/non_foods\non-food_animate_clown.jpg	1	1	1	non-food_animate_clown	0	V	15	0	102	0		0	0	74.807472000015	74.9074507000041
4255.5	0.0999758000252768	60	satiated	stimuli/foods\oregano.jpg	1	1	1	oregano	1	J	6	0	231	0		0	0	74.9574684000108	75.0574442000361
4293	0.0999505000072531	61	satiated	stimuli/foods\potato_chips.jpg	1	1	1	potato_chips	1	W	16	0	247	0		0	0	75.1074873000034	75.2074378000107
4330.5	0.0999712999910116	62	satiated	stimuli/foods\red_beans.jpg	1	1	1	red_beans	1	R	12	0	255	0		0	0	75.2574854000122	75.3574567000032
4368	0.0999854000401683	63	satiated	stimuli/foods\mandarin.jpg	1	1	1	mandarin	1	V	15	0	79	0		0	0	75.4074738000054	75.5074592000456
4405.5	0.0999835999682546	64	satiated	stimuli/non_foods\non-food_animate_duck.jpg	1	1	1	non-food_animate_duck	0	T	14	0	109	0		0	0	75.5574689000496	75.6574525000178
4443	0.0999873999971896	65	satiated	stimuli/non_foods\non-food_inanimate_canoe.jpg	1	1	1	non-food_inanimate_canoe	0	N	10	0	170	0		0	0	75.7074677000055	75.8074551000027
4480.5	0.0999857999850065	66	satiated	stimuli/non_foods\non-food_inanimate_cap.jpg	1	1	1	non-food_inanimate_cap	0	P	11	0	171	0		0	0	75.8574689000379	75.9574547000229
4518	0.0999846999766305	67	satiated	stimuli/foods\grapes.jpg	1	1	1	grapes	1	Z	18	0	60	0		0	0	76.0074656000361	76.1074503000127
4555.5	0.0999873999971896	68	satiated	stimuli/non_foods\non-food_inanimate_moss.jpg	1	1	1	non-food_inanimate_moss	0	C	1	0	194	0		0	0	76.1574613000266	76.2574487000238
4593	0.0999836000264622	69	satiated	stimuli/non_foods\non-food_animate_millipede.jpg	1	1	1	non-food_animate_millipede	0	J	6	0	129	0		0	0	76.3074645000161	76.4074481000425
4630.5	0.0999843999743462	70	satiated	stimuli/non_foods\non-food_animate_hummingbird.jpg	1	1	1	non-food_animate_hummingbird	0	T	14	0	120	0		0	0	76.4574639000348	76.5574483000091
4668	0.0999862999888137	71	satiated	stimuli/non_foods\non-food_inanimate_toy_airplane.jpg	1	1	1	non-food_inanimate_toy_airplane	0	B	0	0	222	0		0	0	76.6074627000489	76.7074490000377
4705.5	0.0999805000028573	72	satiated	stimuli/foods\grapefruits.jpg	1	1	1	grapefruits	1	N	10	0	59	0		0	0	76.7574596000486	76.8574401000515
4743	0.100000299979001	73	satiated	stimuli/non_foods\non-food_animate_cheetah.jpg	1	1	1	non-food_animate_cheetah	0	L	8	0	100	0		0	0	76.9074622000335	77.0074625000125
4780.5	0.0999870999949053	74	satiated	stimuli/foods\swordfish.jpg	1	1	1	swordfish	1	S	13	0	273	0		0	0	77.0574589000316	77.1574460000265
4818	0.0999892000108957	75	satiated	stimuli/foods\ginger_root.jpg	1	1	1	ginger_root	1	D	2	0	57	0		0	0	77.2074554000283	77.3074446000392
4855.5	0.0999885000055656	76	satiated	stimuli/non_foods\non-food_animate_young_boy.jpg	1	1	1	non-food_animate_young_boy	0	M	9	0	156	0		0	0	77.3574557999964	77.457444300002
4893	0.0999849000363611	77	satiated	stimuli/foods\red_cabbage.jpg	1	1	1	red_cabbage	1	H	5	0	256	0		0	0	77.5074555000174	77.6074404000537
4930.5	0.0999702999833971	78	satiated	stimuli/foods\pineapple.jpg	1	1	1	pineapple	1	K	7	0	243	0		0	0	77.6574555000407	77.7574258000241
4968	0.0999756000237539	79	satiated	stimuli/foods\stew_with_potatoes_and_carrots.jpg	1	1	1	stew_with_potatoes_and_carrots	1	P	11	0	271	0		0	0	77.8074562000111	77.9074318000348
5005.5	0.0998736000037752	80	satiated	stimuli/non_foods\non-food_inanimate_highlighter.jpg	1	1	1	non-food_inanimate_highlighter	0	R	12	0	189	0		0	0	77.9575929000275	78.0574665000313
5043	0.100016500044148	81	satiated	stimuli/foods\bagel.jpg	1	1	1	bagel	1	G	4	0	6	0		0	0	78.1074799000053	78.2074964000494
5080.5	0.0999884000048041	82	satiated	stimuli/non_foods\non-food_inanimate_socks.jpg	1	1	1	non-food_inanimate_socks	0	A	19	1	211	0		0	0	78.2574440000462	78.357432400051
5118	0.100028500019107	83	satiated	stimuli/non_foods\non-food_inanimate_tent.jpg	1	1	1	non-food_inanimate_tent	0	F	3	0	219	0		0	0	78.407437100017	78.5074656000361
5155.5	0.100002599996515	84	satiated	stimuli/non_foods\non-food_inanimate_fern.jpg	1	1	1	non-food_inanimate_fern	0	J	6	0	180	1	a	0.409599399950821	1	78.5574553000042	78.6574579000007
5193	0.100000999984331	85	satiated	stimuli/non_foods\non-food_inanimate_leaf.jpg	1	1	1	non-food_inanimate_leaf	0	L	8	0	192	0		0	0	78.7074557000306	78.8074567000149
5230.5	0.0999778000405058	86	satiated	stimuli/foods\lamb_chops.jpg	1	1	1	lamb_chops	1	B	0	0	70	0		0	0	78.8574799000053	78.9574577000458
5268	0.0999849000363611	87	satiated	stimuli/non_foods\non-food_animate_dachshund.jpg	1	1	1	non-food_animate_dachshund	0	P	11	0	104	0		0	0	79.0074537000037	79.10743860004
5305.5	0.0999943999922834	88	satiated	stimuli/non_foods\non-food_inanimate_hammer.jpg	1	1	1	non-food_inanimate_hammer	0	H	5	0	186	0		0	0	79.1574477000395	79.2574421000318
5343	0.10000089998357	89	satiated	stimuli/foods\apricot.jpg	1	1	1	apricot	1	V	15	0	2	0		0	0	79.3074645000161	79.4074653999996
5380.5	0.0999454000266269	90	satiated	stimuli/non_foods\non-food_animate_butterfly.jpg	1	1	1	non-food_animate_butterfly	0	H	5	0	96	0		0	0	79.4574690000154	79.557414400042
5418	0.0999969000113197	91	satiated	stimuli/non_foods\non-food_animate_parrot.jpg	1	1	1	non-food_animate_parrot	0	C	1	0	133	0		0	0	79.6074277000153	79.7074246000266
5455.5	0.0999789999914356	92	satiated	stimuli/foods\donut.jpg	1	1	1	donut	1	S	13	0	44	0		0	0	79.7574464000063	79.8574253999977
5493	0.0999802000005729	93	satiated	stimuli/non_foods\non-food_animate_eagle.jpg	1	1	1	non-food_animate_eagle	0	W	16	0	110	0		0	0	79.9074482000433	80.0074284000439
5530.5	0.0999848000355996	94	satiated	stimuli/foods\salami.jpg	1	1	1	salami	1	T	14	0	263	0		0	0	80.0574389999965	80.1574238000321
5568	0.0999848000355996	95	satiated	stimuli/non_foods\non-food_animate_snail.jpg	1	1	1	non-food_animate_snail	0	W	16	0	149	0		0	0	80.2074382000137	80.3074230000493
5605.5	0.100004300009459	96	satiated	stimuli/foods\fried_zucchini.jpg	1	1	1	fried_zucchini	1	X	17	0	51	0		0	0	80.3574234000407	80.4574277000502
5643	0.100005100015551	97	satiated	stimuli/foods\pea_pod.jpg	1	1	1	pea_pod	1	N	10	0	237	0		0	0	80.5074175000191	80.6074226000346
5680.5	0.0999998999759555	98	satiated	stimuli/foods\lasagna.jpg	1	1	1	lasagna	1	R	12	0	71	0		0	0	80.6574323000386	80.7574322000146
5718	0.0999705999856815	99	satiated	stimuli/foods\omelette.jpg	1	1	1	omelette	1	V	15	0	228	0		0	0	80.8074345000205	80.9074051000061
5755.5	0.0999710999894887	100	satiated	stimuli/non_foods\non-food_animate_grasshopper.jpg	1	1	1	non-food_animate_grasshopper	0	J	6	0	117	0		0	0	80.9574379000114	81.0574090000009
5793	0.100002300052438	101	satiated	stimuli/non_foods\non-food_animate_ram.jpg	1	1	1	non-food_animate_ram	0	Z	18	0	140	0		0	0	81.1074181000004	81.2074204000528
5830.5	0.09997740003746	102	satiated	stimuli/foods\celery.jpg	1	1	1	celery	1	G	4	0	21	0		0	0	81.2574375999975	81.357415000035
5868	0.0999762000283226	103	satiated	stimuli/non_foods\non-food_inanimate_folding_chair.jpg	1	1	1	non-food_inanimate_folding_chair	0	S	13	0	182	0		0	0	81.4074305000249	81.5074067000533
5905.5	0.0999830999644473	104	satiated	stimuli/foods\waffle.jpg	1	1	1	waffle	1	U	23	1	278	0		0	0	81.5574216000387	81.6574047000031
5943	0.100000099977478	105	satiated	stimuli/foods\pumpkin.jpg	1	1	1	pumpkin	1	X	17	0	250	0		0	0	81.707417800033	81.8074179000105
5980.5	0.0999842000310309	106	satiated	stimuli/foods\carrot.jpg	1	1	1	carrot	1	M	9	0	19	0		0	0	81.8574202000163	81.9574044000474
6018	0.0999867999926209	107	satiated	stimuli/foods\blackberry.jpg	1	1	1	blackberry	1	F	3	0	11	1	a	0.541818499972578	1	82.0074157000054	82.107402499998
6055.5	0.0999935999861918	108	satiated	stimuli/foods\chocolate_bar.jpg	1	1	1	chocolate_bar	1	R	12	0	26	0		0	0	82.1574183000484	82.2574119000346
6093	0.0999606999685057	109	satiated	stimuli/non_foods\non-food_animate_green_bug.jpg	1	1	1	non-food_animate_green_bug	0	W	16	0	118	0		0	0	82.3074462000513	82.4074069000199
6130.5	0.100005000014789	110	satiated	stimuli/foods\fruit_salad.jpg	1	1	1	fruit_salad	1	C	1	0	55	0		0	0	82.4574059000006	82.5574109000154
6168	0.0999828999629244	111	satiated	stimuli/foods\green_beans.jpg	1	1	1	green_beans	1	T	14	0	61	0		0	0	82.6074235000415	82.7074064000044
6205.5	0.0999890999519266	112	satiated	stimuli/non_foods\non-food_animate_rhino.jpg	1	1	1	non-food_animate_rhino	0	M	9	0	141	0		0	0	82.757420900045	82.8574099999969
6243	0.0999836000264622	113	satiated	stimuli/foods\tomato.jpg	1	1	1	tomato	1	T	14	0	276	0		0	0	82.9074210000108	83.0074046000373
6280.5	0.0999789999914356	114	satiated	stimuli/foods\fruit_pie.jpg	1	1	1	fruit_pie	1	G	4	0	54	0		0	0	83.0574196000234	83.1573986000149
6318	0.0999889000086114	115	satiated	stimuli/non_foods\non-food_animate_mammoth.jpg	1	1	1	non-food_animate_mammoth	0	N	10	0	128	0		0	0	83.2074107000371	83.3073996000458
6355.5	0.0999701000400819	116	satiated	stimuli/non_foods\non-food_animate_peacock.jpg	1	1	1	non-food_animate_peacock	0	V	15	0	134	0		0	0	83.3574337000027	83.4574038000428
6393	0.0999846999766305	117	satiated	stimuli/foods\coffee_beans.jpg	1	1	1	coffee_beans	1	F	3	0	34	0		0	0	83.5074178000214	83.607402499998
6430.5	0.0999840999720618	118	satiated	stimuli/foods\linguine_with_clams.jpg	1	1	1	linguine_with_clams	1	G	4	0	77	0		0	0	83.6574162000325	83.7574003000045
6468	0.0999870999949053	119	satiated	stimuli/foods\chestnut.jpg	1	1	1	chestnut	1	S	13	0	24	0		0	0	83.8074134000344	83.9074005000293
6505.5	0.099978199985344	120	satiated	stimuli/non_foods\non-food_inanimate_nettle.jpg	1	1	1	non-food_inanimate_nettle	0	Z	18	0	197	0		0	0	83.9574115000432	84.0573897000286
6543	0.100000900041778	121	satiated	stimuli/non_foods\non-food_inanimate_skirt.jpg	1	1	1	non-food_inanimate_skirt	0	M	9	0	209	0		0	0	84.1073959000059	84.2073968000477
6580.5	0.0999826000188477	122	satiated	stimuli/non_foods\non-food_animate_Asian_man.jpg	1	1	1	non-food_animate_Asian_man	0	B	0	0	88	0		0	0	84.2574113000301	84.3573939000489
6618	0.0999861999880522	123	satiated	stimuli/foods\museli_bars.jpg	1	1	1	museli_bars	1	O	22	1	84	0		0	0	84.4074105000473	84.5073967000353
6655.5	0.0999891000101343	124	satiated	stimuli/foods\steak.jpg	1	1	1	steak	1	C	1	0	270	0		0	0	84.5574064000393	84.6573955000495
6693	0.0999869000515901	125	satiated	stimuli/non_foods\non-food_inanimate_lighter.jpg	1	1	1	non-food_inanimate_lighter	0	J	6	0	193	0		0	0	84.7074060000014	84.8073929000529
6730.5	0.099985699984245	126	satiated	stimuli/non_foods\non-food_inanimate_sun_flower.jpg	1	1	1	non-food_inanimate_sun_flower	0	C	1	0	216	0		0	0	84.8574061000254	84.9573918000096
6768	0.0999854999827221	127	satiated	stimuli/non_foods\non-food_inanimate_table.jpg	1	1	1	non-food_inanimate_table	0	D	2	0	217	0		0	0	85.007406800054	85.1073923000367
6805.5	0.0999634999898262	128	satiated	stimuli/non_foods\non-food_inanimate_bed.jpg	1	1	1	non-food_inanimate_bed	0	V	15	0	160	0		0	0	85.157429200015	85.2573927000049
6843	0.0999879000009969	129	satiated	stimuli/non_foods\non-food_animate_caterpillar.jpg	1	1	1	non-food_animate_caterpillar	0	X	17	0	99	1	a	0.991802399978042	1	85.3073933999985	85.4073812999995
6880.5	0.100010699999984	130	satiated	stimuli/non_foods\non-food_inanimate_clover.jpg	1	1	1	non-food_inanimate_clover	0	C	1	0	174	0		0	0	85.4573776000179	85.5573883000179
6918	0.099988600006327	131	satiated	stimuli/non_foods\non-food_animate_skunk.jpg	1	1	1	non-food_animate_skunk	0	D	2	0	147	0		0	0	85.6074008000433	85.7073894000496
6955.5	0.0999832999659702	132	satiated	stimuli/non_foods\non-food_inanimate_rack.jpg	1	1	1	non-food_inanimate_rack	0	F	3	0	202	0		0	0	85.7574051000411	85.857388400007
6993	0.0999847000348382	133	satiated	stimuli/foods\banana.jpg	1	1	1	banana	1	X	17	0	9	0		0	0	85.9074040999985	86.0073888000334
7030.5	0.0999654000042938	134	satiated	stimuli/foods\fried_calamari.jpg	1	1	1	fried_calamari	1	Z	18	0	50	0		0	0	86.0573991000419	86.1573645000462
7068	0.0999851999804378	135	satiated	stimuli/non_foods\non-food_animate_baby_crawling.jpg	1	1	1	non-food_animate_baby_crawling	0	S	13	0	92	0		0	0	86.207397500053	86.3073827000335
7105.5	0.0999849999789149	136	satiated	stimuli/foods\cinnamon.jpg	1	1	1	cinnamon	1	M	9	0	30	0		0	0	86.3573980000219	86.4573830000008
7143	0.0999810000066645	137	satiated	stimuli/foods\pork_and_rice.jpg	1	1	1	pork_and_rice	1	J	6	0	245	0		0	0	86.5073961000307	86.6073771000374
7180.5	0.0999882000032812	138	satiated	stimuli/non_foods\non-food_animate_porcupine.jpg	1	1	1	non-food_animate_porcupine	0	S	13	0	138	0		0	0	86.657394000038	86.7573822000413
7218	0.0999878000002354	139	satiated	stimuli/foods\potato_and_green_bean_salad.jpg	1	1	1	potato_and_green_bean_salad	1	J	6	0	246	0		0	0	86.8073944000062	86.9073822000064
7755.5	0.0999281000113115	140	satiated	stimuli/foods\eggplant.jpg	1	2	1	eggplant	1	K	7	0	46	0		0	0	88.9574229000136	89.0573510000249
7793	0.100014800031204	141	satiated	stimuli/non_foods\non-food_inanimate_short_sleeved_shirt.jpg	1	2	1	non-food_inanimate_short_sleeved_shirt	0	V	15	0	207	0		0	0	89.1073655000073	89.2073803000385
7830.5	0.0999768999754451	142	satiated	stimuli/non_foods\non-food_inanimate_drum_set.jpg	1	2	1	non-food_inanimate_drum_set	0	P	11	0	179	0		0	0	89.2573983000475	89.3573752000229
7868	0.0999994999729097	143	satiated	stimuli/non_foods\non-food_animate_ant.jpg	1	2	1	non-food_animate_ant	0	B	0	0	91	0		0	0	89.4073790000402	89.5073785000131
7905.5	0.0999899000162259	144	satiated	stimuli/foods\savory_pie.jpg	1	2	1	savory_pie	1	T	14	0	265	0		0	0	89.5573900000309	89.6573799000471
7943	0.10000710003078	145	satiated	stimuli/non_foods\non-food_inanimate_pine_cone.jpg	1	2	1	non-food_inanimate_pine_cone	0	S	13	0	200	0		0	0	89.7073699000175	89.8073770000483
7980.5	0.100005600019358	146	satiated	stimuli/foods\lemon.jpg	1	2	1	lemon	1	J	6	0	72	0		0	0	89.8573755000252	89.9573811000446
8018	0.0999847000348382	147	satiated	stimuli/non_foods\non-food_inanimate_broom.jpg	1	2	1	non-food_inanimate_broom	0	S	13	0	164	0		0	0	90.0073867000174	90.1073714000522
8055.5	0.100006599968765	148	satiated	stimuli/foods\hazelnuts.jpg	1	2	1	hazelnuts	1	H	5	0	65	0		0	0	90.1573716000421	90.2573782000109
8093	0.100006500026211	149	satiated	stimuli/non_foods\non-food_animate_horse.jpg	1	2	1	non-food_animate_horse	0	V	15	0	119	0		0	0	90.3073803000152	90.4073868000414
8130.5	0.0999925000360236	150	satiated	stimuli/non_foods\non-food_inanimate_orchid.jpg	1	2	1	non-food_inanimate_orchid	0	K	7	0	198	0		0	0	90.4573772000149	90.5573697000509
8168	0.0999824000173248	151	satiated	stimuli/non_foods\non-food_animate_swan.jpg	1	2	1	non-food_animate_swan	0	L	8	0	152	0		0	0	90.6073803000036	90.7073627000209
8205.5	0.0999637999921106	152	satiated	stimuli/non_foods\non-food_animate_bee.jpg	1	2	1	non-food_animate_bee	0	S	13	0	95	0		0	0	90.7573869000189	90.857350700011
8243	0.0999828999629244	153	satiated	stimuli/foods\papaya.jpg	1	2	1	papaya	1	M	9	0	235	0		0	0	90.9073633000371	91.0073462
8280.5	0.100003200001083	154	satiated	stimuli/non_foods\non-food_inanimate_couch.jpg	1	2	1	non-food_inanimate_couch	0	V	15	0	176	0		0	0	91.0573517000303	91.1573549000314
8318	0.0999862999888137	155	satiated	stimuli/non_foods\non-food_inanimate_alarm_clock.jpg	1	2	1	non-food_inanimate_alarm_clock	0	K	7	0	158	0		0	0	91.2073705000221	91.3073568000109
8355.5	0.099991700029932	156	satiated	stimuli/foods\dates.jpg	1	2	1	dates	1	P	11	0	43	0		0	0	91.3573896000162	91.4573813000461
8393	0.0999589000130072	157	satiated	stimuli/non_foods\non-food_animate_woman.jpg	1	2	1	non-food_animate_woman	0	W	16	0	154	0		0	0	91.5073882000288	91.6073471000418
8430.5	0.0999875999987125	158	satiated	stimuli/foods\lollies.jpg	1	2	1	lollies	1	M	9	0	78	0		0	0	91.6573534000199	91.7573410000186
8468	0.100001399987377	159	satiated	stimuli/foods\rice.jpg	1	2	1	rice	1	H	5	0	257	0		0	0	91.8073494000128	91.9073508000001
8505.5	0.0999785999883898	160	satiated	stimuli/non_foods\non-food_inanimate_headphones.jpg	1	2	1	non-food_inanimate_headphones	0	F	3	0	188	0		0	0	91.9573537000106	92.057332299999
8543	0.0999800999998115	161	satiated	stimuli/non_foods\non-food_animate_owl.jpg	1	2	1	non-food_animate_owl	0	X	17	0	132	0		0	0	92.1073790000519	92.2073591000517
8580.5	0.0999977999599651	162	satiated	stimuli/non_foods\non-food_inanimate_chandelier.jpg	1	2	1	non-food_inanimate_chandelier	0	M	9	0	173	0		0	0	92.2573746000417	92.3573724000016
8618	0.0999855999834836	163	satiated	stimuli/non_foods\non-food_animate_sea_lion.jpg	1	2	1	non-food_animate_sea_lion	0	C	1	0	143	0		0	0	92.4073807000532	92.5073663000367
8655.5	0.0999880000017583	164	satiated	stimuli/foods\wafer.jpg	1	2	1	wafer	1	G	4	0	277	0		0	0	92.5573533000425	92.6573413000442
8693	0.0999519000179134	165	satiated	stimuli/non_foods\non-food_inanimate_jeans.jpg	1	2	1	non-food_inanimate_jeans	0	B	0	0	191	0		0	0	92.7073778000195	92.8073297000374
8730.5	0.0999818000127561	166	satiated	stimuli/non_foods\non-food_inanimate_button.jpg	1	2	1	non-food_inanimate_button	0	G	4	0	168	0		0	0	92.857375600026	92.9573574000387
8768	0.0999977000174113	167	satiated	stimuli/non_foods\non-food_inanimate_protractor.jpg	1	2	1	non-food_inanimate_protractor	0	Z	18	0	201	0		0	0	93.0073661000351	93.1073638000526
8805.5	0.0999945999938063	168	satiated	stimuli/foods\meatballs.jpg	1	2	1	meatballs	1	H	5	0	81	0		0	0	93.1573785000364	93.2573731000302
8843	0.0999632999883033	169	satiated	stimuli/non_foods\non-food_animate_mouse.jpg	1	2	1	non-food_animate_mouse	0	B	0	0	131	0		0	0	93.3073759000399	93.4073392000282
8880.5	0.0999794999952428	170	satiated	stimuli/non_foods\non-food_inanimate_soccer_ball.jpg	1	2	1	non-food_inanimate_soccer_ball	0	J	6	0	210	0		0	0	93.4573791000294	93.5573586000246
8918	0.100006000022404	171	satiated	stimuli/non_foods\non-food_inanimate_bucket.jpg	1	2	1	non-food_inanimate_bucket	0	M	9	0	165	0		0	0	93.6073228000314	93.7073288000538
8955.5	0.100004600011744	172	satiated	stimuli/non_foods\non-food_inanimate_hay.jpg	1	2	1	non-food_inanimate_hay	0	B	0	0	187	0		0	0	93.7573613999994	93.8573660000111
8993	0.0999613999738358	173	satiated	stimuli/foods\figs.jpg	1	2	1	figs	1	T	14	0	48	0		0	0	93.9073730000528	94.0073344000266
9030.5	0.0999957000021823	174	satiated	stimuli/foods\cinnamon_sroll.jpg	1	2	1	cinnamon_sroll	1	L	8	0	31	0		0	0	94.0573641000083	94.1573598000105
9068	0.0999944999930449	175	satiated	stimuli/foods\honey.jpg	1	2	1	honey	1	X	17	0	66	0		0	0	94.2073529000045	94.3073473999975
9105.5	0.0999760000267997	176	satiated	stimuli/non_foods\non-food_animate_ladybug.jpg	1	2	1	non-food_animate_ladybug	0	W	16	0	124	0		0	0	94.3573592000175	94.4573352000443
9143	0.0999762000283226	177	satiated	stimuli/non_foods\non-food_inanimate_stoplight.jpg	1	2	1	non-food_inanimate_stoplight	0	P	11	0	214	0		0	0	94.5073493000236	94.607325500052
9180.5	0.0999899999587797	178	satiated	stimuli/foods\nectarine.jpg	1	2	1	nectarine	1	D	2	0	87	0		0	0	94.6573572000489	94.7573472000076
9218	0.100002099992707	179	satiated	stimuli/non_foods\non-food_animate_penguin.jpg	1	2	1	non-food_animate_penguin	0	B	0	0	135	0		0	0	94.8073427000199	94.9073448000127
9255.5	0.099954700039234	180	satiated	stimuli/non_foods\non-food_animate_lion.jpg	1	2	1	non-food_animate_lion	0	S	13	0	125	0		0	0	94.9573997000116	95.0573544000508
9293	0.0999550999840721	181	satiated	stimuli/foods\chocolate_chip_cookies.jpg	1	2	1	chocolate_chip_cookies	1	F	3	0	27	0		0	0	95.1073545000399	95.207309600024
9330.5	0.0999969000113197	182	satiated	stimuli/non_foods\non-food_animate_runner.jpg	1	2	1	non-food_animate_runner	0	D	2	0	142	0		0	0	95.2573329000152	95.3573298000265
9368	0.0999742000130937	183	satiated	stimuli/non_foods\non-food_inanimate_suitcase.jpg	1	2	1	non-food_inanimate_suitcase	0	B	0	0	215	0		0	0	95.4073686000193	95.5073428000323
9405.5	0.100006000022404	184	satiated	stimuli/non_foods\non-food_animate_llama.jpg	1	2	1	non-food_animate_llama	0	P	11	0	127	0		0	0	95.5573491000105	95.6573551000329
9443	0.0999486999935471	185	satiated	stimuli/non_foods\non-food_animate_iguana.jpg	1	2	1	non-food_animate_iguana	0	T	14	0	121	0		0	0	95.707355600025	95.8073043000186
9480.5	0.0999910999671556	186	satiated	stimuli/foods\coconut.jpg	1	2	1	coconut	1	M	9	0	33	0		0	0	95.8573544000392	95.9573455000063
9518	0.100003600004129	187	satiated	stimuli/non_foods\non-food_animate_yellow_bug.jpg	1	2	1	non-food_animate_yellow_bug	0	F	3	0	155	0		0	0	96.0073443000438	96.1073479000479
9555.5	0.100009499990847	188	satiated	stimuli/foods\spinach.jpg	1	2	1	spinach	1	T	14	0	268	0		0	0	96.1573309000232	96.2573404000141
9593	0.0999748000176623	189	satiated	stimuli/foods\cream_donuts.jpg	1	2	1	cream_donuts	1	M	9	0	39	0		0	0	96.3073515000287	96.4073263000464
9630.5	0.10001520003425	190	satiated	stimuli/foods\peas.jpg	1	2	1	peas	1	Z	18	0	240	0		0	0	96.4573161000153	96.5573313000496
9668	0.100024200044572	191	satiated	stimuli/foods\pear.jpg	1	2	1	pear	1	G	4	0	239	0		0	0	96.6073268000036	96.7073510000482
9705.5	0.100004800013267	192	satiated	stimuli/foods\pomegranate.jpg	1	2	1	pomegranate	1	L	8	0	244	0		0	0	96.7573499000282	96.8573547000415
9743	0.0999599999631755	193	satiated	stimuli/foods\oven-roasted_tomatoes.jpg	1	2	1	oven-roasted_tomatoes	1	W	16	0	232	0		0	0	96.9073554000352	97.0073153999983
9780.5	0.0999765999731608	194	satiated	stimuli/foods\chocolate_pudding.jpg	1	2	1	chocolate_pudding	1	T	14	0	29	0		0	0	97.0573615000467	97.1573381000198
9818	0.100012600014452	195	satiated	stimuli/non_foods\non-food_animate_young_girl.jpg	1	2	1	non-food_animate_young_girl	0	V	15	0	157	0		0	0	97.2073248000233	97.3073374000378
9855.5	0.0999681000248529	196	satiated	stimuli/foods\radish.jpg	1	2	1	radish	1	N	10	0	251	0		0	0	97.3573488999973	97.4573170000222
9893	0.100007600034587	197	satiated	stimuli/foods\cereal.jpg	1	2	1	cereal	1	L	8	0	22	0		0	0	97.5073158000014	97.607323400036
9930.5	0.0999946999945678	198	satiated	stimuli/foods\cooked_ham.jpg	1	2	1	cooked_ham	1	D	2	0	35	0		0	0	97.6573387000244	97.757333400019
9968	0.0999867999926209	199	satiated	stimuli/foods\mango.jpg	1	2	1	mango	1	V	15	0	80	0		0	0	97.8073197000194	97.9073065000121
10005.5	0.0999812000081874	200	satiated	stimuli/foods\roasted_chicken.jpg	1	2	1	roasted_chicken	1	N	10	0	261	0		0	0	97.9573228000081	98.0573040000163
10043	0.0999949999968521	201	satiated	stimuli/non_foods\non-food_inanimate_ring.jpg	1	2	1	non-food_inanimate_ring	0	X	17	0	203	0		0	0	98.107309300045	98.2073043000419
10080.5	0.0999946999945678	202	satiated	stimuli/non_foods\non-food_inanimate_tulip.jpg	1	2	1	non-food_inanimate_tulip	0	T	14	0	224	0		0	0	98.2573102000169	98.3573049000115
10118	0.099986599991098	203	satiated	stimuli/non_foods\non-food_inanimate_shell.jpg	1	2	1	non-food_inanimate_shell	0	R	12	0	206	0		0	0	98.4073083000258	98.5072949000169
10155.5	0.0999520000186749	204	satiated	stimuli/non_foods\non-food_animate_pigeon.jpg	1	2	1	non-food_animate_pigeon	0	G	4	0	136	0		0	0	98.5573510000249	98.6573030000436
10193	0.099981699953787	205	satiated	stimuli/non_foods\non-food_animate_deer.jpg	1	2	1	non-food_animate_deer	0	M	9	0	105	0		0	0	98.7073514000513	98.8073331000051
10230.5	0.0999596000183374	206	satiated	stimuli/non_foods\non-food_animate_chicken.jpg	1	2	1	non-food_animate_chicken	0	N	10	0	101	0		0	0	98.8573491999996	98.9573088000179
10268	0.100004600011744	207	satiated	stimuli/foods\smoked_ham.jpg	1	2	1	smoked_ham	1	T	14	0	266	0		0	0	99.0073091000086	99.1073137000203
10305.5	0.100006300024688	208	satiated	stimuli/foods\raisins.jpg	1	2	1	raisins	1	Z	18	0	252	0		0	0	99.1572988000116	99.2573051000363
10343	0.0999676000210457	209	satiated	stimuli/non_foods\non-food_inanimate_cactus_pot_plant.jpg	1	2	1	non-food_inanimate_cactus_pot_plant	0	C	1	0	169	0		0	0	99.3073107000091	99.4072783000302
10380.5	0.0999884000048041	210	satiated	stimuli/foods\baked_cod_with_carrots_and_green_beans.jpg	1	2	1	baked_cod_with_carrots_and_green_beans	1	T	14	0	7	0		0	0	99.4573059999966	99.5572944000014
10418	0.100026900006924	211	satiated	stimuli/non_foods\non-food_inanimate_fire_extinguisher.jpg	1	2	1	non-food_inanimate_fire_extinguisher	0	G	4	0	181	0		0	0	99.6073034000001	99.707330300007
10455.5	0.099968800030183	212	satiated	stimuli/foods\pepperoni_pizza.jpg	1	2	1	pepperoni_pizza	1	F	3	0	241	0		0	0	99.757308500004	99.8572773000342
10493	0.0999837000272237	213	satiated	stimuli/non_foods\non-food_animate_seahorse.jpg	1	2	1	non-food_animate_seahorse	0	H	5	0	145	0		0	0	99.9073069000151	100.007290600042
10530.5	0.100015799980611	214	satiated	stimuli/non_foods\non-food_inanimate_briefcase.jpg	1	2	1	non-food_inanimate_briefcase	0	S	13	0	163	0		0	0	100.057322600042	100.157338400022
10568	0.0999791999929585	215	satiated	stimuli/foods\cooked_prawn.jpg	1	2	1	cooked_prawn	1	R	12	0	36	0		0	0	100.207305500051	100.307284700044
10605.5	0.0999809000059031	216	satiated	stimuli/foods\raw_ham.jpg	1	2	1	raw_ham	1	X	17	0	253	0		0	0	100.357314500026	100.457295400032
10643	0.0999791000504047	217	satiated	stimuli/foods\lettuce.jpg	1	2	1	lettuce	1	P	11	0	75	0		0	0	100.5073003	100.60727940005
10680.5	0.100016999989748	218	satiated	stimuli/foods\fennel.jpg	1	2	1	fennel	1	R	12	0	47	0		0	0	100.65728720004	100.757304200029
10718	0.100018700002693	219	satiated	stimuli/non_foods\non-food_inanimate_bowling_ball.jpg	1	2	1	non-food_inanimate_bowling_ball	0	T	14	0	162	0		0	0	100.807304400019	100.907323100022
10755.5	0.10001779999584	220	satiated	stimuli/non_foods\non-food_animate_gorilla.jpg	1	2	1	non-food_animate_gorilla	0	W	16	0	116	0		0	0	100.957301500021	101.057319300016
10793	0.0999698999803513	221	satiated	stimuli/foods\brie.jpg	1	2	1	brie	1	S	13	0	12	0		0	0	101.107321600022	101.207291500003
10830.5	0.0999924999778159	222	satiated	stimuli/foods\beetroots.jpg	1	2	1	beetroots	1	N	10	0	10	0		0	0	101.257298300043	101.357290800021
10868	0.100020300014876	223	satiated	stimuli/non_foods\non-food_animate_dragonfly.jpg	1	2	1	non-food_animate_dragonfly	0	R	12	0	108	0		0	0	101.407291700016	101.507312000031
10905.5	0.0999889000086114	224	satiated	stimuli/foods\prawn.jpg	1	2	1	prawn	1	F	3	0	249	0		0	0	101.557297600026	101.657286500034
10943	0.0999978000181727	225	satiated	stimuli/foods\corncob.jpg	1	2	1	corncob	1	Z	18	0	37	0		0	0	101.707288100035	101.807285900053
10980.5	0.0999863999895751	226	satiated	stimuli/non_foods\non-food_inanimate_nest.jpg	1	2	1	non-food_inanimate_nest	0	R	12	0	196	0		0	0	101.857296900009	101.957283299998
11018	0.0999925000360236	227	satiated	stimuli/foods\clams.jpg	1	2	1	clams	1	N	10	0	32	0		0	0	102.007294800016	102.107287300052
11055.5	0.0999759000260383	228	satiated	stimuli/foods\asparagus.jpg	1	2	1	asparagus	1	K	7	0	4	0		0	0	102.157282500004	102.25725840003
11093	0.099987699999474	229	satiated	stimuli/non_foods\non-food_inanimate_speakers.jpg	1	2	1	non-food_inanimate_speakers	0	J	6	0	212	0		0	0	102.307281200017	102.407268900017
11130.5	0.0999775000382215	230	satiated	stimuli/foods\salmon.jpg	1	2	1	salmon	1	H	5	0	264	0		0	0	102.457283199998	102.557260700036
11168	0.100055299990345	231	satiated	stimuli/non_foods\non-food_inanimate_gloves.jpg	1	2	1	non-food_inanimate_gloves	0	Z	18	0	183	0		0	0	102.607262600039	102.707317900029
11205.5	0.0999973999569193	232	satiated	stimuli/foods\brownie.jpg	1	2	1	brownie	1	W	16	0	14	0		0	0	102.757314300048	102.857311700005
11243	0.0999783000443131	233	satiated	stimuli/non_foods\non-food_animate_cat.jpg	1	2	1	non-food_animate_cat	0	P	11	0	98	0		0	0	102.907313100004	103.007291400048
11280.5	0.0999883000040427	234	satiated	stimuli/non_foods\non-food_animate_squirrel.jpg	1	2	1	non-food_animate_squirrel	0	B	0	0	150	0		0	0	103.057320400025	103.157308700029
11318	0.0999837999697775	235	satiated	stimuli/non_foods\non-food_inanimate_toilet.jpg	1	2	1	non-food_inanimate_toilet	0	H	5	0	220	0		0	0	103.207279500028	103.307263299997
11355.5	0.100000099977478	236	satiated	stimuli/foods\orange.jpg	1	2	1	orange	1	K	7	0	230	0		0	0	103.357269600034	103.457269700011
11393	0.0999813000089489	237	satiated	stimuli/non_foods\non-food_inanimate_stapler.jpg	1	2	1	non-food_inanimate_stapler	0	W	16	0	213	0		0	0	103.5072851	103.607266400009
11430.5	0.0999794999952428	238	satiated	stimuli/non_foods\non-food_inanimate_bush.jpg	1	2	1	non-food_inanimate_bush	0	D	2	0	167	0		0	0	103.65728460002	103.757264100015
11468	0.0999765999731608	239	satiated	stimuli/non_foods\non-food_animate_monkey.jpg	1	2	1	non-food_animate_monkey	0	T	14	0	130	0		0	0	103.807285400049	103.907262000022
11505.5	0.100002599996515	240	satiated	stimuli/non_foods\non-food_animate_camel.jpg	1	2	1	non-food_animate_camel	0	N	10	0	97	0		0	0	103.957256500027	104.057259100024
11543	0.100006700027734	241	satiated	stimuli/foods\spring_onions.jpg	1	2	1	spring_onions	1	D	2	0	269	0		0	0	104.107264999999	104.207271700026
11580.5	0.0999830000218935	242	satiated	stimuli/foods\lemon_meringue_pie.jpg	1	2	1	lemon_meringue_pie	1	X	17	0	73	0		0	0	104.257278100005	104.357261100027
11618	0.0999496999429539	243	satiated	stimuli/non_foods\non-food_animate_fox.jpg	1	2	1	non-food_animate_fox	0	L	8	0	112	0		0	0	104.407319600054	104.507269299997
11655.5	0.0999596000183374	244	satiated	stimuli/foods\peach.jpg	1	2	1	peach	1	O	22	1	238	0		0	0	104.557296200015	104.657255800033
11693	0.0999866999918595	245	satiated	stimuli/non_foods\non-food_inanimate_construction_helment.jpg	1	2	1	non-food_inanimate_construction_helment	0	X	17	0	175	0		0	0	104.70726710005	104.807253800042
11730.5	0.0999997000326402	246	satiated	stimuli/foods\lentils.jpg	1	2	1	lentils	1	N	10	0	74	0		0	0	104.857265099999	104.957264800032
11768	0.0999782999861054	247	satiated	stimuli/non_foods\non-food_inanimate_wrench.jpg	1	2	1	non-food_inanimate_wrench	0	B	0	0	227	0		0	0	105.007274300035	105.107252600021
11805.5	0.0999939999892376	248	satiated	stimuli/foods\ice_cream.jpg	1	2	1	ice_cream	1	Z	18	0	68	1	a	0.691793699981645	1	105.157264900045	105.257258900034
11843	0.0999907999648713	249	satiated	stimuli/foods\chocolate_pralines.jpg	1	2	1	chocolate_pralines	1	W	16	0	28	0		0	0	105.307267900032	105.407258699997
11880.5	0.0999868000508286	250	satiated	stimuli/non_foods\non-food_animate_killer_whale.jpg	1	2	1	non-food_animate_killer_whale	0	T	14	0	123	0		0	0	105.457260099996	105.557246900047
11918	0.0999777999822982	251	satiated	stimuli/foods\spaghetti_with_meat_sauce.jpg	1	2	1	spaghetti_with_meat_sauce	1	R	12	0	267	0		0	0	105.607270500041	105.707248300023
11955.5	0.0999817000119947	252	satiated	stimuli/non_foods\non-food_inanimate_guitar.jpg	1	2	1	non-food_inanimate_guitar	0	S	13	0	185	0		0	0	105.757262900006	105.857244600018
11993	0.0999867999926209	253	satiated	stimuli/non_foods\non-food_inanimate_chair.jpg	1	2	1	non-food_inanimate_chair	0	W	16	0	172	0		0	0	105.907257000043	106.007243800035
12030.5	0.0999860999872908	254	satiated	stimuli/foods\cabbage.jpg	1	2	1	cabbage	1	G	4	0	16	0		0	0	106.057270000048	106.157256100036
12068	0.0999903000192717	255	satiated	stimuli/non_foods\non-food_animate_donkey.jpg	1	2	1	non-food_animate_donkey	0	L	8	0	107	0		0	0	106.207261400006	106.307251700026
12105.5	0.0999789000488818	256	satiated	stimuli/foods\croissant.jpg	1	2	1	croissant	1	T	14	0	40	0		0	0	106.357265600003	106.457244500052
12143	0.0999862999888137	257	satiated	stimuli/foods\watermelon.jpg	1	2	1	watermelon	1	S	13	0	279	0		0	0	106.507263900014	106.607250200002
12180.5	0.0999859000439756	258	satiated	stimuli/non_foods\non-food_inanimate_cupboard.jpg	1	2	1	non-food_inanimate_cupboard	0	N	10	0	177	0		0	0	106.65726030001	106.757246200053
12218	0.0999767000321299	259	satiated	stimuli/non_foods\non-food_inanimate_desk.jpg	1	2	1	non-food_inanimate_desk	0	R	12	0	178	0		0	0	106.807272900012	106.907249600044
12255.5	0.0999835000257008	260	satiated	stimuli/non_foods\non-food_animate_elephant.jpg	1	2	1	non-food_animate_elephant	0	H	5	0	111	0		0	0	106.957262000011	107.057245500037
12293	0.0999862000462599	261	satiated	stimuli/non_foods\non-food_inanimate_watering_can.jpg	1	2	1	non-food_inanimate_watering_can	0	J	6	0	225	0		0	0	107.107257199998	107.207243400044
12330.5	0.0999915000284091	262	satiated	stimuli/non_foods\non-food_inanimate_buds.jpg	1	2	1	non-food_inanimate_buds	0	O	22	1	166	0		0	0	107.257256700017	107.357248200045
12368	0.0999647999997251	263	satiated	stimuli/non_foods\non-food_animate_lizard.jpg	1	2	1	non-food_animate_lizard	0	C	1	0	126	0		0	0	107.407278900035	107.507243700034
12405.5	0.0999779999838211	264	satiated	stimuli/non_foods\non-food_inanimate_bicycle.jpg	1	2	1	non-food_inanimate_bicycle	0	B	0	0	161	0		0	0	107.557259200024	107.657237200008
12443	0.0999912000261247	265	satiated	stimuli/non_foods\non-food_animate_student_female.jpg	1	2	1	non-food_animate_student_female	0	W	16	0	151	1	a	0.443335000018124	1	107.707241000026	107.807232200052
12480.5	0.0999867999926209	266	satiated	stimuli/foods\hamburger.jpg	1	2	1	hamburger	1	Z	18	0	64	0		0	0	107.857244700019	107.957231500011
12518	0.0999978000181727	267	satiated	stimuli/foods\avocado.jpg	1	2	1	avocado	1	K	7	0	5	0		0	0	108.007242000022	108.10723980004
12555.5	0.0999881000025198	268	satiated	stimuli/foods\mussels.jpg	1	2	1	mussels	1	R	12	0	86	0		0	0	108.157249500044	108.257237600046
12593	0.099979099992197	269	satiated	stimuli/foods\toasted_bread_with_tomatoes.jpg	1	2	1	toasted_bread_with_tomatoes	1	K	7	0	275	0		0	0	108.307250000013	108.407229100005
12630.5	0.0999968000105582	270	satiated	stimuli/foods\raw_sausage.jpg	1	2	1	raw_sausage	1	R	12	0	254	0		0	0	108.457242000033	108.557238800044
12668	0.0999854000401683	271	satiated	stimuli/foods\apple.jpg	1	2	1	apple	1	K	7	0	1	0		0	0	108.607250500005	108.707235900045
12705.5	0.0999873999971896	272	satiated	stimuli/foods\lime.jpg	1	2	1	lime	1	F	3	0	76	0		0	0	108.757248400012	108.857235800009
12743	0.0999872999964282	273	satiated	stimuli/foods\rockmelon.jpg	1	2	1	rockmelon	1	R	12	0	262	0		0	0	108.907238600019	109.007225900015
12780.5	0.0999968000105582	274	satiated	stimuli/foods\rice_cake.jpg	1	2	1	rice_cake	1	G	4	0	258	0		0	0	109.057236500026	109.157233300037
12818	0.0999585000099614	275	satiated	stimuli/foods\taco.jpg	1	2	1	taco	1	Z	18	0	274	0		0	0	109.207264600031	109.307223100041
12855.5	0.0999835000257008	276	satiated	stimuli/non_foods\non-food_animate_slug.jpg	1	2	1	non-food_animate_slug	0	B	0	0	148	0		0	0	109.357236900018	109.457220400043
12893	0.100009799993131	277	satiated	stimuli/foods\green_olives.jpg	1	2	1	green_olives	1	K	7	0	62	0		0	0	109.507219600026	109.607229400019
12930.5	0.0999867000500672	278	satiated	stimuli/foods\risotto_with_peas_and_asparagus_tips.jpg	1	2	1	risotto_with_peas_and_asparagus_tips	1	H	5	0	259	0		0	0	109.657243299996	109.757230000047
12968	0.0999816000112332	279	satiated	stimuli/foods\garlic.jpg	1	2	1	garlic	1	R	12	0	56	0		0	0	109.807238200039	109.90721980005
13413.75	0.0999403000460006	280	satiated	stimuli/non_foods\non-food_inanimate_horn.jpg	1	3	1	non-food_inanimate_horn	0	Z	18	0	190	0		0	0	111.590577499999	111.690517800045
13451.25	0.0999373999657109	281	satiated	stimuli/foods\banana.jpg	1	3	1	banana	1	B	0	0	9	0		0	0	111.740609700035	111.840547100001
13488.75	0.0999889000086114	282	satiated	stimuli/foods\mandarin.jpg	1	3	1	mandarin	1	Z	18	0	79	0		0	0	111.89056150004	111.990550400049
13526.25	0.0999851999804378	283	satiated	stimuli/foods\cucumber.jpg	1	3	1	cucumber	1	L	8	0	41	0		0	0	112.040557800035	112.140543000016
13563.75	0.0999841000302695	284	satiated	stimuli/foods\frankfurter_and_provolone_salad.jpg	1	3	1	frankfurter_and_provolone_salad	1	F	3	0	49	0		0	0	112.190559800016	112.290543900046
13601.25	0.0999838999705389	285	satiated	stimuli/non_foods\non-food_inanimate_drum_set.jpg	1	3	1	non-food_inanimate_drum_set	0	W	16	0	179	0		0	0	112.34055990004	112.44054380001
13638.75	0.099985699984245	286	satiated	stimuli/non_foods\non-food_animate_dragonfly.jpg	1	3	1	non-food_animate_dragonfly	0	R	12	0	108	0		0	0	112.490556000033	112.590541700018
13676.25	0.0999939999892376	287	satiated	stimuli/foods\brussel_sprouts.jpg	1	3	1	brussel_sprouts	1	Z	18	0	15	0		0	0	112.640550900018	112.740544900007
13713.75	0.0999644999974407	288	satiated	stimuli/foods\ice_cream.jpg	1	3	1	ice_cream	1	X	17	0	68	0		0	0	112.790574400045	112.890538900043
13751.25	0.0999851999804378	289	satiated	stimuli/non_foods\non-food_animate_mammoth.jpg	1	3	1	non-food_animate_mammoth	0	R	12	0	128	0		0	0	112.940532900044	113.040518100024
13788.75	0.100007000030018	290	satiated	stimuli/non_foods\non-food_inanimate_jeans.jpg	1	3	1	non-food_inanimate_jeans	0	C	1	0	191	0		0	0	113.09053310001	113.19054010004
13826.25	0.0999900000169873	291	satiated	stimuli/non_foods\non-food_animate_student_female.jpg	1	3	1	non-food_animate_student_female	0	D	2	0	151	0		0	0	113.240545000008	113.340535000025
13863.75	0.10004290001234	292	satiated	stimuli/foods\cannoli.jpg	1	3	1	cannoli	1	K	7	0	17	0		0	0	113.390533600003	113.490576500015
13901.25	0.0999679999658838	293	satiated	stimuli/non_foods\non-food_inanimate_short_sleeved_shirt.jpg	1	3	1	non-food_inanimate_short_sleeved_shirt	0	H	5	0	207	0		0	0	113.540574600047	113.640542600013
13938.75	0.0999899000162259	294	satiated	stimuli/non_foods\non-food_animate_horse.jpg	1	3	1	non-food_animate_horse	0	C	1	0	119	0		0	0	113.690546700032	113.790536600049
13976.25	0.0999871999956667	295	satiated	stimuli/foods\risotto_with_zucchini.jpg	1	3	1	risotto_with_zucchini	1	S	13	0	260	0		0	0	113.840549900022	113.940537100018
14013.75	0.0999880000017583	296	satiated	stimuli/non_foods\non-food_animate_baby_sitting.jpg	1	3	1	non-food_animate_baby_sitting	0	D	2	0	93	0		0	0	113.990544300003	114.090532300004
14051.25	0.0999892000108957	297	satiated	stimuli/foods\meatballs.jpg	1	3	1	meatballs	1	Z	18	0	81	0		0	0	114.140544100024	114.240533300035
14088.75	0.0999846000340767	298	satiated	stimuli/foods\asparagus.jpg	1	3	1	asparagus	1	V	15	0	4	0		0	0	114.290545399999	114.390530000033
14126.25	0.0999734999495558	299	satiated	stimuli/non_foods\non-food_inanimate_sun_flower.jpg	1	3	1	non-food_inanimate_sun_flower	0	D	2	0	216	0		0	0	114.440541700053	114.540515200002
14163.75	0.0999703000416048	300	satiated	stimuli/foods\lemon.jpg	1	3	1	lemon	1	S	13	0	72	0		0	0	114.590546699998	114.690517000039
14201.25	0.0999861999880522	301	satiated	stimuli/non_foods\non-food_inanimate_nettle.jpg	1	3	1	non-food_inanimate_nettle	0	X	17	0	197	0		0	0	114.740532100026	114.840518300014
14238.75	0.0999913000268862	302	satiated	stimuli/non_foods\non-food_inanimate_soccer_ball.jpg	1	3	1	non-food_inanimate_soccer_ball	0	Z	18	0	210	0		0	0	114.890528100019	114.990519400046
14276.25	0.0999852999811992	303	satiated	stimuli/non_foods\non-food_animate_lizard.jpg	1	3	1	non-food_animate_lizard	0	T	14	0	126	0		0	0	115.040542000032	115.140527300013
14313.75	0.0999988000257872	304	satiated	stimuli/non_foods\non-food_inanimate_teddy_bear.jpg	1	3	1	non-food_inanimate_teddy_bear	0	X	17	0	218	0		0	0	115.190552600019	115.290551400045
14351.25	0.0999760000267997	305	satiated	stimuli/foods\chilli.jpg	1	3	1	chilli	1	V	15	0	25	0		0	0	115.340550000023	115.440526000049
14388.75	0.0999622000381351	306	satiated	stimuli/foods\almonds.jpg	1	3	1	almonds	1	C	1	0	0	0		0	0	115.490545000008	115.590507200046
14426.25	0.0999845999758691	307	satiated	stimuli/foods\spring_onions.jpg	1	3	1	spring_onions	1	T	14	0	269	0		0	0	115.640530600038	115.740515200014
14463.75	0.100003800005652	308	satiated	stimuli/non_foods\non-food_animate_runner.jpg	1	3	1	non-food_animate_runner	0	P	11	0	142	0		0	0	115.790518700029	115.890522500034
14501.25	0.0999848999781534	309	satiated	stimuli/non_foods\non-food_inanimate_bush.jpg	1	3	1	non-food_inanimate_bush	0	B	0	0	167	0		0	0	115.940534000052	116.04051890003
14538.75	0.0999887999496423	310	satiated	stimuli/non_foods\non-food_inanimate_toy_airplane.jpg	1	3	1	non-food_inanimate_toy_airplane	0	S	13	0	222	0		0	0	116.090530900052	116.190519700001
14576.25	0.0999842999735847	311	satiated	stimuli/foods\chestnut.jpg	1	3	1	chestnut	1	P	11	0	24	0		0	0	116.24053260003	116.340516900003
14613.75	0.0999863999895751	312	satiated	stimuli/foods\coffee_beans.jpg	1	3	1	coffee_beans	1	T	14	0	34	0		0	0	116.39052960003	116.49051600002
14651.25	0.0999428000068292	313	satiated	stimuli/non_foods\non-food_inanimate_desk.jpg	1	3	1	non-food_inanimate_desk	0	N	10	0	178	0		0	0	116.540552699997	116.640495500003
14688.75	0.0999864000477828	314	satiated	stimuli/foods\cinnamon_sroll.jpg	1	3	1	cinnamon_sroll	1	W	16	0	31	0		0	0	116.690527700004	116.790514100052
14726.25	0.0999939999892376	315	satiated	stimuli/foods\baked_lamb_with_potatoes.jpg	1	3	1	baked_lamb_with_potatoes	1	B	0	0	8	0		0	0	116.840521100035	116.940515100025
14763.75	0.0999466999783181	316	satiated	stimuli/non_foods\non-food_inanimate_bicycle.jpg	1	3	1	non-food_inanimate_bicycle	0	S	13	0	161	0		0	0	116.990556100034	117.090502800012
14801.25	0.0999918000306934	317	satiated	stimuli/non_foods\non-food_animate_snail.jpg	1	3	1	non-food_animate_snail	0	R	12	0	149	0		0	0	117.140520900022	117.240512700053
14838.75	0.0999864999903366	318	satiated	stimuli/non_foods\non-food_animate_raccoon.jpg	1	3	1	non-food_animate_raccoon	0	W	16	0	139	0		0	0	117.290524000011	117.390510500001
14876.25	0.0999702999833971	319	satiated	stimuli/non_foods\non-food_inanimate_tree.jpg	1	3	1	non-food_inanimate_tree	0	Z	18	0	223	0		0	0	117.440537200018	117.540507500002
14913.75	0.0999745999579318	320	satiated	stimuli/foods\coconut.jpg	1	3	1	coconut	1	L	8	0	33	0		0	0	117.590522100043	117.690496700001
14951.25	0.0999836000264622	321	satiated	stimuli/foods\cooked_prawn.jpg	1	3	1	cooked_prawn	1	W	16	0	36	0		0	0	117.74052370002	117.840507300047
14988.75	0.100013799965382	322	satiated	stimuli/non_foods\non-food_inanimate_hammer.jpg	1	3	1	non-food_inanimate_hammer	0	Z	18	0	186	0		0	0	117.890492400038	117.990506200003
15026.25	0.100007999979425	323	satiated	stimuli/non_foods\non-food_animate_llama.jpg	1	3	1	non-food_animate_llama	0	B	0	0	127	0		0	0	118.040519300033	118.140527300013
15063.75	0.0999865000485443	324	satiated	stimuli/non_foods\non-food_animate_young_boy.jpg	1	3	1	non-food_animate_young_boy	0	G	4	0	156	0		0	0	118.190520000004	118.290506500052
15101.25	0.099965900008101	325	satiated	stimuli/foods\cereal.jpg	1	3	1	cereal	1	H	5	0	22	0		0	0	118.340518400015	118.440484300023
15138.75	0.100007299974095	326	satiated	stimuli/non_foods\non-food_inanimate_fern.jpg	1	3	1	non-food_inanimate_fern	0	R	12	0	180	0		0	0	118.490495200036	118.59050250001
15176.25	0.0999864999903366	327	satiated	stimuli/foods\cupcake.jpg	1	3	1	cupcake	1	D	2	0	42	0		0	0	118.640513200022	118.740499700012
15213.75	0.099994299991522	328	satiated	stimuli/foods\chocolate_chip_cookies.jpg	1	3	1	chocolate_chip_cookies	1	F	3	0	27	0		0	0	118.790543000039	118.890537300031
15251.25	0.0999752000207081	329	satiated	stimuli/non_foods\non-food_inanimate_toilet.jpg	1	3	1	non-food_inanimate_toilet	0	W	16	0	220	0		0	0	118.940519700001	119.040494900022
15288.75	0.0999825000180863	330	satiated	stimuli/non_foods\non-food_animate_giraffe.jpg	1	3	1	non-food_animate_giraffe	0	M	9	0	115	0		0	0	119.090503500018	119.190486000036
15326.25	0.099986599991098	331	satiated	stimuli/foods\carrot.jpg	1	3	1	carrot	1	W	16	0	19	0		0	0	119.240515300015	119.340501900006
15363.75	0.0999855999834836	332	satiated	stimuli/non_foods\non-food_animate_seal.jpg	1	3	1	non-food_animate_seal	0	J	6	0	146	0		0	0	119.390512500016	119.4904981
15401.25	0.0999771999777295	333	satiated	stimuli/foods\steak.jpg	1	3	1	steak	1	H	5	0	270	0		0	0	119.540512000036	119.640489200014
15438.75	0.0999845000333153	334	satiated	stimuli/non_foods\non-food_animate_bee.jpg	1	3	1	non-food_animate_bee	0	C	1	0	95	0		0	0	119.690512400004	119.790496900037
15476.25	0.100009599991608	335	satiated	stimuli/foods\savory_pie.jpg	1	3	1	savory_pie	1	Z	18	0	265	0		0	0	119.840509600006	119.940519199998
15513.75	0.0999322999850847	336	satiated	stimuli/non_foods\non-food_inanimate_cap.jpg	1	3	1	non-food_inanimate_cap	0	R	12	0	171	0		0	0	119.990543100052	120.090475400037
15551.25	0.0999871999956667	337	satiated	stimuli/non_foods\non-food_inanimate_socks.jpg	1	3	1	non-food_inanimate_socks	0	W	16	0	211	1	a	0	0	120.14050400001	120.240491200006
15588.75	0.0999844999751076	338	satiated	stimuli/non_foods\non-food_inanimate_headphones.jpg	1	3	1	non-food_inanimate_headphones	0	D	2	0	188	0		0	0	120.29050360003	120.390488100005
15626.25	0.0999976999592036	339	satiated	stimuli/foods\spaghetti_with_meat_sauce.jpg	1	3	1	spaghetti_with_meat_sauce	1	W	16	0	267	0		0	0	120.44049550005	120.540493200009
15663.75	0.0999400999862701	340	satiated	stimuli/foods\pepperoni_pizza.jpg	1	3	1	pepperoni_pizza	1	Z	18	0	241	0		0	0	120.590550000023	120.690490100009
15701.25	0.0999893000116572	341	satiated	stimuli/foods\capsicum.jpg	1	3	1	capsicum	1	K	7	0	18	0		0	0	120.740501500026	120.840490800038
15738.75	0.0999814000097103	342	satiated	stimuli/non_foods\non-food_animate_sea_lion.jpg	1	3	1	non-food_animate_sea_lion	0	F	3	0	143	0		0	0	120.890504200011	120.990485600021
15776.25	0.100005299958866	343	satiated	stimuli/foods\honey.jpg	1	3	1	honey	1	W	16	0	66	0		0	0	121.04049850005	121.140503800008
15813.75	0.0999847000348382	344	satiated	stimuli/non_foods\non-food_inanimate_folding_chair.jpg	1	3	1	non-food_inanimate_folding_chair	0	D	2	0	182	0		0	0	121.190503899998	121.290488600032
15851.25	0.0999863999895751	345	satiated	stimuli/non_foods\non-food_animate_young_girl.jpg	1	3	1	non-food_animate_young_girl	0	G	4	0	157	0		0	0	121.340495600016	121.440482000005
15888.75	0.0999885000055656	346	satiated	stimuli/foods\pomegranate.jpg	1	3	1	pomegranate	1	X	17	0	244	0		0	0	121.490494300029	121.590482800035
15926.25	0.0999653000035323	347	satiated	stimuli/foods\prawn.jpg	1	3	1	prawn	1	S	13	0	249	0		0	0	121.640520000015	121.740485300019
15963.75	0.0999598000198603	348	satiated	stimuli/non_foods\non-food_animate_peacock.jpg	1	3	1	non-food_animate_peacock	0	G	4	0	134	0		0	0	121.790495500027	121.890455300047
16001.25	0.0999867999926209	349	satiated	stimuli/non_foods\non-food_animate_tortoise.jpg	1	3	1	non-food_animate_tortoise	0	M	9	0	153	0		0	0	121.940495800052	122.040482600045
16038.75	0.100004699954297	350	satiated	stimuli/foods\strawberry.jpg	1	3	1	strawberry	1	X	17	0	272	0		0	0	122.09046190005	122.190466600005
16076.25	0.100020400015637	351	satiated	stimuli/foods\swordfish.jpg	1	3	1	swordfish	1	D	2	0	273	0		0	0	122.240482599998	122.340503000014
16113.75	0.0999504000064917	352	satiated	stimuli/non_foods\non-food_animate_yellow_bug.jpg	1	3	1	non-food_animate_yellow_bug	0	Z	18	0	155	0		0	0	122.39051170001	122.490462100017
16151.25	0.0999891000101343	353	satiated	stimuli/foods\rockmelon.jpg	1	3	1	rockmelon	1	T	14	0	262	0		0	0	122.540487400023	122.640476500033
16188.75	0.0999905999633484	354	satiated	stimuli/foods\peach.jpg	1	3	1	peach	1	C	1	0	238	0		0	0	122.690488000051	122.790478600014
16226.25	0.0999829999636859	355	satiated	stimuli/non_foods\non-food_inanimate_button.jpg	1	3	1	non-food_inanimate_button	0	T	14	0	168	0		0	0	122.840490900038	122.940473900002
16263.75	0.0999621999799274	356	satiated	stimuli/non_foods\non-food_inanimate_rope.jpg	1	3	1	non-food_inanimate_rope	0	U	23	1	204	0		0	0	122.99048170005	123.09044390003
16301.25	0.0999853000394069	357	satiated	stimuli/non_foods\non-food_animate_dolphin.jpg	1	3	1	non-food_animate_dolphin	0	P	11	0	106	0		0	0	123.140479900001	123.24046520004
16338.75	0.0999806000036187	358	satiated	stimuli/non_foods\non-food_animate_rhino.jpg	1	3	1	non-food_animate_rhino	0	L	8	0	141	0		0	0	123.290478200011	123.390458800015
16376.25	0.0999874999979511	359	satiated	stimuli/foods\cherry.jpg	1	3	1	cherry	1	G	4	0	23	0		0	0	123.440477800032	123.54046530003
16413.75	0.0999889000086114	360	satiated	stimuli/foods\wafer.jpg	1	3	1	wafer	1	L	8	0	277	0		0	0	123.590470199997	123.690459100006
16451.25	0.0999864999903366	361	satiated	stimuli/non_foods\non-food_inanimate_lighter.jpg	1	3	1	non-food_inanimate_lighter	0	T	14	0	193	0		0	0	123.740474000049	123.84046050004
16488.75	0.0999848000355996	362	satiated	stimuli/foods\lime.jpg	1	3	1	lime	1	X	17	0	76	0		0	0	123.890473300009	123.990458100045
16526.25	0.0999793999944814	363	satiated	stimuli/non_foods\non-food_animate_cow.jpg	1	3	1	non-food_animate_cow	0	P	11	0	103	0		0	0	124.040478700015	124.14045810001
16563.75	0.0999667000141926	364	satiated	stimuli/foods\fruit_pie.jpg	1	3	1	fruit_pie	1	F	3	0	54	0		0	0	124.19049290003	124.290459600044
16601.25	0.100004000007175	365	satiated	stimuli/non_foods\non-food_inanimate_couch.jpg	1	3	1	non-food_inanimate_couch	0	G	4	0	176	0		0	0	124.340461000043	124.440465000051
16638.75	0.0999898999580182	366	satiated	stimuli/foods\toasted_bread_with_tomatoes.jpg	1	3	1	toasted_bread_with_tomatoes	1	F	3	0	275	0		0	0	124.490474000049	124.590463900007
16676.25	0.0999860999872908	367	satiated	stimuli/non_foods\non-food_animate_Asian_man.jpg	1	3	1	non-food_animate_Asian_man	0	T	14	0	88	0		0	0	124.64047740004	124.740463500028
16713.75	0.0999857999850065	368	satiated	stimuli/foods\pancakes.jpg	1	3	1	pancakes	1	F	3	0	234	0		0	0	124.790473800036	124.890459600021
16751.25	0.0999860999872908	369	satiated	stimuli/non_foods\non-food_inanimate_tulip.jpg	1	3	1	non-food_inanimate_tulip	0	X	17	0	224	0		0	0	124.940476800024	125.040462900011
16788.75	0.0999836000264622	370	satiated	stimuli/foods\pear.jpg	1	3	1	pear	1	D	2	0	239	0		0	0	125.090462699998	125.190446300025
16826.25	0.0999848000355996	371	satiated	stimuli/foods\clams.jpg	1	3	1	clams	1	V	15	0	32	0		0	0	125.240466999996	125.340451800032
16863.75	0.099981100007426	372	satiated	stimuli/foods\rice_cake.jpg	1	3	1	rice_cake	1	N	10	0	258	0		0	0	125.390466800018	125.490447900025
16901.25	0.0999836000264622	373	satiated	stimuli/non_foods\non-food_inanimate_chair.jpg	1	3	1	non-food_inanimate_chair	0	L	8	0	172	0		0	0	125.540464500024	125.64044810005
16938.75	0.0999846999766305	374	satiated	stimuli/non_foods\non-food_animate_cat.jpg	1	3	1	non-food_animate_cat	0	G	4	0	98	0		0	0	125.690461900027	125.790446600004
16976.25	0.0999892000108957	375	satiated	stimuli/foods\oyster.jpg	1	3	1	oyster	1	V	15	0	233	0		0	0	125.840482300031	125.940471500042
17013.75	0.0999739000108093	376	satiated	stimuli/foods\pickles.jpg	1	3	1	pickles	1	K	7	0	242	0		0	0	125.990477400017	126.090451300028
17051.25	0.0999875999987125	377	satiated	stimuli/foods\potatoes.jpg	1	3	1	potatoes	1	C	1	0	248	0		0	0	126.140466900019	126.240454500017
17088.75	0.0999879000009969	378	satiated	stimuli/non_foods\non-food_inanimate_buds.jpg	1	3	1	non-food_inanimate_buds	0	P	11	0	166	0		0	0	126.290462900011	126.390450800012
17126.25	0.0999894999549724	379	satiated	stimuli/non_foods\non-food_animate_mouse.jpg	1	3	1	non-food_animate_mouse	0	V	15	0	131	0		0	0	126.440464200045	126.540453699999
17163.75	0.0999852000386454	380	satiated	stimuli/non_foods\non-food_animate_ram.jpg	1	3	1	non-food_animate_ram	0	N	10	0	140	0		0	0	126.590462699998	126.690447900037
17201.25	0.0999871999956667	381	satiated	stimuli/foods\nectarine.jpg	1	3	1	nectarine	1	T	14	0	87	0		0	0	126.740462900023	126.840450100019
17238.75	0.0999890000093728	382	satiated	stimuli/non_foods\non-food_animate_pigeon.jpg	1	3	1	non-food_animate_pigeon	0	R	12	0	136	0		0	0	126.890460100025	126.990449100034
17276.25	0.099978199985344	383	satiated	stimuli/non_foods\non-food_inanimate_leaf.jpg	1	3	1	non-food_inanimate_leaf	0	H	5	0	192	0		0	0	127.040463800018	127.140442000004
17313.75	0.0999913000268862	384	satiated	stimuli/non_foods\non-food_animate_caterpillar.jpg	1	3	1	non-food_animate_caterpillar	0	R	12	0	99	0		0	0	127.190459600009	127.290450900036
17351.25	0.0999837999697775	385	satiated	stimuli/foods\fried_calamari.jpg	1	3	1	fried_calamari	1	H	5	0	50	0		0	0	127.340460400039	127.440444200009
17388.75	0.0999923999770544	386	satiated	stimuli/foods\cabbage.jpg	1	3	1	cabbage	1	R	12	0	16	0		0	0	127.490456500032	127.59044890001
17426.25	0.0999859999865294	387	satiated	stimuli/foods\rice.jpg	1	3	1	rice	1	N	10	0	257	0		0	0	127.640469000034	127.740455000021
17463.75	0.099956399993971	388	satiated	stimuli/non_foods\non-food_animate_dachshund.jpg	1	3	1	non-food_animate_dachshund	0	K	7	0	104	0		0	0	127.790483500052	127.890439900046
17501.25	0.0999868999933824	389	satiated	stimuli/non_foods\non-food_animate_skunk.jpg	1	3	1	non-food_animate_skunk	0	L	8	0	147	0		0	0	127.940452100011	128.040439000004
17538.75	0.0999875999987125	390	satiated	stimuli/foods\red_beans.jpg	1	3	1	red_beans	1	Z	18	0	255	0		0	0	128.090453400044	128.190441000042
17576.25	0.100006299966481	391	satiated	stimuli/foods\potato_and_green_bean_salad.jpg	1	3	1	potato_and_green_bean_salad	1	X	17	0	246	0		0	0	128.240426100034	128.3404324
17613.75	0.0999882000032812	392	satiated	stimuli/foods\cracker.jpg	1	3	1	cracker	1	S	13	0	38	0		0	0	128.390442000004	128.490430200007
17651.25	0.099987699999474	393	satiated	stimuli/non_foods\non-food_animate_iguana.jpg	1	3	1	non-food_animate_iguana	0	P	11	0	121	0		0	0	128.540441900026	128.640429600026
17688.75	0.0999866999918595	394	satiated	stimuli/foods\fennel.jpg	1	3	1	fennel	1	F	3	0	47	0		0	0	128.690436900011	128.790423600003
17726.25	0.0999970000120811	395	satiated	stimuli/non_foods\non-food_animate_owl.jpg	1	3	1	non-food_animate_owl	0	Z	18	0	132	0		0	0	128.840440300002	128.940437300014
17763.75	0.100004700012505	396	satiated	stimuli/foods\corncob.jpg	1	3	1	corncob	1	V	15	0	37	0		0	0	128.990430000005	129.090434700018
17801.25	0.0999832000234164	397	satiated	stimuli/foods\papaya.jpg	1	3	1	papaya	1	C	1	0	235	0		0	0	129.140449800005	129.240433000028
17838.75	0.0999632999883033	398	satiated	stimuli/foods\beetroots.jpg	1	3	1	beetroots	1	J	6	0	10	0		0	0	129.290444300044	129.390407600033
17876.25	0.0999862999888137	399	satiated	stimuli/foods\cream_donuts.jpg	1	3	1	cream_donuts	1	N	10	0	39	0		0	0	129.440438300022	129.540424600011
17913.75	0.0999973000143655	400	satiated	stimuli/foods\fries.jpg	1	3	1	fries	1	K	7	0	52	0		0	0	129.590435800026	129.690433100041
17951.25	0.0999730000039563	401	satiated	stimuli/foods\blackberry.jpg	1	3	1	blackberry	1	M	9	0	11	0		0	0	129.740437100001	129.840410100005
17988.75	0.0999852000386454	402	satiated	stimuli/non_foods\non-food_inanimate_nailpolish.jpg	1	3	1	non-food_inanimate_nailpolish	0	P	11	0	195	0		0	0	129.890441700001	129.99042690004
18026.25	0.0999892000108957	403	satiated	stimuli/foods\celery.jpg	1	3	1	celery	1	Z	18	0	21	0		0	0	130.04044110002	130.140430300031
18063.75	0.0999816000112332	404	satiated	stimuli/non_foods\non-food_inanimate_stoplight.jpg	1	3	1	non-food_inanimate_stoplight	0	C	1	0	214	0		0	0	130.190432000032	130.290413600043
18101.25	0.0999920999747701	405	satiated	stimuli/non_foods\non-food_animate_alligator.jpg	1	3	1	non-food_animate_alligator	0	N	10	0	90	0		0	0	130.340430700046	130.44042280002
18138.75	0.0999809000059031	406	satiated	stimuli/foods\salmon.jpg	1	3	1	salmon	1	K	7	0	264	0		0	0	130.490433400031	130.590414300037
18176.25	0.0999873999971896	407	satiated	stimuli/foods\risotto_with_peas_and_asparagus_tips.jpg	1	3	1	risotto_with_peas_and_asparagus_tips	1	P	11	0	259	0		0	0	130.640429100022	130.740416500019
18213.75	0.0999890000093728	408	satiated	stimuli/non_foods\non-food_animate_chicken.jpg	1	3	1	non-food_animate_chicken	0	K	7	0	101	0		0	0	130.790426000021	130.890415000031
18251.25	0.0999845000333153	409	satiated	stimuli/non_foods\non-food_inanimate_skateboard.jpg	1	3	1	non-food_inanimate_skateboard	0	O	22	1	208	0		0	0	130.94042910001	131.040413600043
18288.75	0.100017999997362	410	satiated	stimuli/foods\brie.jpg	1	3	1	brie	1	X	17	0	12	0		0	0	131.090421700035	131.190439700033
18326.25	0.0999664000119083	411	satiated	stimuli/non_foods\non-food_inanimate_tent.jpg	1	3	1	non-food_inanimate_tent	0	Z	18	0	219	0		0	0	131.240455200023	131.340421600034
18363.75	0.0999872999964282	412	satiated	stimuli/foods\roasted_chicken.jpg	1	3	1	roasted_chicken	1	D	2	0	261	0		0	0	131.390432700049	131.490420000046
18401.25	0.0999907999648713	413	satiated	stimuli/foods\egg.jpg	1	3	1	egg	1	W	16	0	45	0		0	0	131.540429500048	131.640420300013
18438.75	0.0999866999918595	414	satiated	stimuli/non_foods\non-food_inanimate_gloves.jpg	1	3	1	non-food_inanimate_gloves	0	S	13	0	183	0		0	0	131.690430900024	131.790417600016
18476.25	0.0999879000009969	415	satiated	stimuli/non_foods\non-food_animate_camel.jpg	1	3	1	non-food_animate_camel	0	K	7	0	97	0		0	0	131.840429300035	131.940417200036
18513.75	0.0999862000462599	416	satiated	stimuli/non_foods\non-food_inanimate_speakers.jpg	1	3	1	non-food_inanimate_speakers	0	J	6	0	212	0		0	0	131.990429600002	132.090415800049
18551.25	0.0999582000076771	417	satiated	stimuli/non_foods\non-food_animate_grasshopper.jpg	1	3	1	non-food_animate_grasshopper	0	X	17	0	117	0		0	0	132.140428400016	132.240386600024
18588.75	0.100004900014028	418	satiated	stimuli/non_foods\non-food_animate_fox.jpg	1	3	1	non-food_animate_fox	0	G	4	0	112	0		0	0	132.290397700039	132.390402600053
18626.25	0.0999791999929585	419	satiated	stimuli/foods\lettuce.jpg	1	3	1	lettuce	1	R	12	0	75	0		0	0	132.440434700053	132.540413900046
19097	0.0999831999652088	420	satiated	stimuli/foods\watermelon.jpg	1	4	1	watermelon	1	S	13	0	279	0		0	0	134.323750500043	134.423733700009
19134.5	0.0999829000211321	421	satiated	stimuli/non_foods\non-food_inanimate_chandelier.jpg	1	4	1	non-food_inanimate_chandelier	0	D	2	0	173	0		0	0	134.473749700002	134.573732600024
19172	0.0999892000108957	422	satiated	stimuli/foods\peas.jpg	1	4	1	peas	1	N	10	0	240	0		0	0	134.623747900012	134.723737100023
19209.5	0.0999810000066645	423	satiated	stimuli/non_foods\non-food_animate_eagle.jpg	1	4	1	non-food_animate_eagle	0	T	14	0	110	0		0	0	134.773748400039	134.873729400046
19247	0.0999871999956667	424	satiated	stimuli/foods\hotdog.jpg	1	4	1	hotdog	1	M	9	0	67	0		0	0	134.923742600018	135.023729800014
19284.5	0.0999824000173248	425	satiated	stimuli/non_foods\non-food_animate_sea_turtle.jpg	1	4	1	non-food_animate_sea_turtle	0	Z	18	0	144	0		0	0	135.073744699999	135.173727100017
19322	0.0999863000470214	426	satiated	stimuli/non_foods\non-food_animate_parrot.jpg	1	4	1	non-food_animate_parrot	0	V	15	0	133	0		0	0	135.2237418	135.323728100047
19359.5	0.0999640999943949	427	satiated	stimuli/non_foods\non-food_animate_ant.jpg	1	4	1	non-food_animate_ant	0	M	9	0	91	0		0	0	135.373765300028	135.473729400022
19397	0.0999816000112332	428	satiated	stimuli/non_foods\non-food_inanimate_guitar.jpg	1	4	1	non-food_inanimate_guitar	0	V	15	0	185	0		0	0	135.523743099999	135.62372470001
19434.5	0.0999890000093728	429	satiated	stimuli/foods\cinnamon.jpg	1	4	1	cinnamon	1	H	5	0	30	0		0	0	135.67373650003	135.773725500039
19472	0.0999840999720618	430	satiated	stimuli/foods\orange.jpg	1	4	1	orange	1	R	12	0	230	0		0	0	135.823740500025	135.923724599998
19509.5	0.0999866000493057	431	satiated	stimuli/foods\chocolate_pudding.jpg	1	4	1	chocolate_pudding	1	G	4	0	29	0		0	0	135.973750000005	136.073736600054
19547	0.099983699969016	432	satiated	stimuli/foods\pineapple.jpg	1	4	1	pineapple	1	C	1	0	243	0		0	0	136.123736600042	136.223720300011
19584.5	0.0999556999886408	433	satiated	stimuli/non_foods\non-food_animate_kangaroo.jpg	1	4	1	non-food_animate_kangaroo	0	W	16	0	122	0		0	0	136.273737700016	136.373693400004
19622	0.0999798999982886	434	satiated	stimuli/foods\red_cabbage.jpg	1	4	1	red_cabbage	1	C	1	0	256	0		0	0	136.42373150005	136.523711400048
19659.5	0.0999858999857679	435	satiated	stimuli/foods\oven-roasted_tomatoes.jpg	1	4	1	oven-roasted_tomatoes	1	H	5	0	232	0		0	0	136.573728100047	136.673714000033
19697	0.0999770000344142	436	satiated	stimuli/foods\eggplant.jpg	1	4	1	eggplant	1	M	9	0	46	0		0	0	136.723733699997	136.823710700031
19734.5	0.0999855000409298	437	satiated	stimuli/non_foods\non-food_inanimate_broom.jpg	1	4	1	non-food_inanimate_broom	0	F	3	0	164	0		0	0	136.873724200006	136.973709700047
19772	0.100016399985179	438	satiated	stimuli/foods\mortadella.jpg	1	4	1	mortadella	1	H	5	0	83	0		0	0	137.023715500021	137.123731900007
19809.5	0.0999735000077635	439	satiated	stimuli/foods\grapefruits.jpg	1	4	1	grapefruits	1	T	14	0	59	0		0	0	137.173739799997	137.273713300005
19847	0.0999881000025198	440	satiated	stimuli/foods\bagel.jpg	1	4	1	bagel	1	W	16	0	6	0		0	0	137.323727900046	137.423716000048
19884.5	0.0999941999907605	441	satiated	stimuli/foods\radish.jpg	1	4	1	radish	1	B	0	0	251	0		0	0	137.47373040003	137.573724600021
19922	0.0999980000196956	442	satiated	stimuli/non_foods\non-food_inanimate_bucket.jpg	1	4	1	non-food_inanimate_bucket	0	Z	18	0	165	0		0	0	137.623726600024	137.723724600044
19959.5	0.0999546999810264	443	satiated	stimuli/foods\ginger_root.jpg	1	4	1	ginger_root	1	T	14	0	57	0		0	0	137.773756700044	137.873711400025
19997	0.0999826000188477	444	satiated	stimuli/non_foods\non-food_inanimate_table.jpg	1	4	1	non-food_inanimate_table	0	M	9	0	217	0		0	0	137.92372630001	138.023708900029
20034.5	0.0999909000238404	445	satiated	stimuli/non_foods\non-food_inanimate_protractor.jpg	1	4	1	non-food_inanimate_protractor	0	H	5	0	201	0		0	0	138.073722000001	138.173712900025
20072	0.0999840999720618	446	satiated	stimuli/non_foods\non-food_inanimate_towel.jpg	1	4	1	non-food_inanimate_towel	0	Z	18	0	221	0		0	0	138.223723900039	138.323708000011
20109.5	0.0999936999869533	447	satiated	stimuli/non_foods\non-food_inanimate_rack.jpg	1	4	1	non-food_inanimate_rack	0	S	13	0	202	0		0	0	138.373714500049	138.473708200036
20147	0.0999873999971896	448	satiated	stimuli/foods\raisins.jpg	1	4	1	raisins	1	N	10	0	252	0		0	0	138.5237204	138.623707799998
20184.5	0.0999826999614015	449	satiated	stimuli/non_foods\non-food_inanimate_ring.jpg	1	4	1	non-food_inanimate_ring	0	K	7	0	203	0		0	0	138.673721900035	138.773704599997
20222	0.099990600021556	450	satiated	stimuli/non_foods\non-food_animate_millipede.jpg	1	4	1	non-food_animate_millipede	0	W	16	0	129	0		0	0	138.823714900005	138.923705500027
20259.5	0.0999795999960043	451	satiated	stimuli/foods\mushroom.jpg	1	4	1	mushroom	1	P	11	0	85	0		0	0	138.973720900016	139.073700500012
20297	0.100021000020206	452	satiated	stimuli/non_foods\non-food_inanimate_orchid.jpg	1	4	1	non-food_inanimate_orchid	0	J	6	0	198	0		0	0	139.123717000009	139.22373800003
20334.5	0.0999727000016719	453	satiated	stimuli/non_foods\non-food_animate_duck.jpg	1	4	1	non-food_animate_duck	0	P	11	0	109	0		0	0	139.273719000048	139.37369170005
20372	0.100015499978326	454	satiated	stimuli/foods\pea_pod.jpg	1	4	1	pea_pod	1	X	17	0	237	0		0	0	139.423705000023	139.523720500001
20409.5	0.0999744000146165	455	satiated	stimuli/non_foods\non-food_inanimate_nest.jpg	1	4	1	non-food_inanimate_nest	0	R	12	0	196	0		0	0	139.573744299996	139.673718700011
20447	0.0999984999652952	456	satiated	stimuli/non_foods\non-food_inanimate_cupboard.jpg	1	4	1	non-food_inanimate_cupboard	0	P	11	0	177	0		0	0	139.723701200041	139.823699700006
20484.5	0.0999849999789149	457	satiated	stimuli/foods\apple.jpg	1	4	1	apple	1	L	8	0	1	0		0	0	139.873715100053	139.973700100032
20522	0.0999882000032812	458	satiated	stimuli/foods\chocolate_bar.jpg	1	4	1	chocolate_bar	1	W	16	0	26	0		0	0	140.023709100031	140.123697300034
20559.5	0.0999814000097103	459	satiated	stimuli/foods\pasta_carbonara.jpg	1	4	1	pasta_carbonara	1	D	2	0	236	0		0	0	140.173712500022	140.273693900032
20597	0.0999857999850065	460	satiated	stimuli/foods\grilled_chicken_breast.jpg	1	4	1	grilled_chicken_breast	1	C	1	0	63	0		0	0	140.323708100012	140.423693899997
20634.5	0.099985699984245	461	satiated	stimuli/foods\broccoli.jpg	1	4	1	broccoli	1	F	3	0	13	0		0	0	140.473707600031	140.573693300015
20672	0.100005900021642	462	satiated	stimuli/foods\figs.jpg	1	4	1	figs	1	D	2	0	48	0		0	0	140.623709900014	140.723715800035
20709.5	0.0999786999891512	463	satiated	stimuli/foods\pumpkin.jpg	1	4	1	pumpkin	1	W	16	0	250	0		0	0	140.773704400053	140.873683100042
20747	0.0999746000161394	464	satiated	stimuli/foods\hazelnuts.jpg	1	4	1	hazelnuts	1	D	2	0	65	0		0	0	140.923688700015	141.023663300031
20784.5	0.0999815999530256	465	satiated	stimuli/non_foods\non-food_inanimate_construction_helment.jpg	1	4	1	non-food_inanimate_construction_helment	0	N	10	0	175	0		0	0	141.073705900053	141.173687500006
20822	0.100009700050578	466	satiated	stimuli/non_foods\non-food_animate_elephant.jpg	1	4	1	non-food_animate_elephant	0	Z	18	0	111	0		0	0	141.223703600001	141.323713300051
20859.5	0.0999396000406705	467	satiated	stimuli/non_foods\non-food_inanimate_moss.jpg	1	4	1	non-food_inanimate_moss	0	G	4	0	194	0		0	0	141.373747500009	141.47368710005
20897	0.0999858999857679	468	satiated	stimuli/foods\oregano.jpg	1	4	1	oregano	1	M	9	0	231	0		0	0	141.523701200029	141.623687100015
20934.5	0.0999825000180863	469	satiated	stimuli/non_foods\non-food_animate_squirrel.jpg	1	4	1	non-food_animate_squirrel	0	J	6	0	150	0		0	0	141.673702700005	141.773685200023
20972	0.099987699999474	470	satiated	stimuli/foods\pork_and_rice.jpg	1	4	1	pork_and_rice	1	S	13	0	245	0		0	0	141.82369790005	141.92368560005
21009.5	0.0999858999857679	471	satiated	stimuli/non_foods\non-food_inanimate_padlock.jpg	1	4	1	non-food_inanimate_padlock	0	T	14	0	199	0		0	0	141.97369850002	142.073684400006
21047	0.0999833000241779	472	satiated	stimuli/foods\cooked_ham.jpg	1	4	1	cooked_ham	1	N	10	0	35	0		0	0	142.1237004	142.223683700024
21084.5	0.0999825000180863	473	satiated	stimuli/non_foods\non-food_inanimate_pine_cone.jpg	1	4	1	non-food_inanimate_pine_cone	0	M	9	0	200	0		0	0	142.273697199998	142.373679700017
21122	0.0999713000492193	474	satiated	stimuli/non_foods\non-food_inanimate_grass.jpg	1	4	1	non-food_inanimate_grass	0	H	5	0	184	0		0	0	142.423709499999	142.523680800048
21159.5	0.0999856000416912	475	satiated	stimuli/foods\chocolate_pralines.jpg	1	4	1	chocolate_pralines	1	Z	18	0	28	0		0	0	142.57369260001	142.673678200052
21197	0.0999873999971896	476	satiated	stimuli/foods\green_olives.jpg	1	4	1	green_olives	1	M	9	0	62	0		0	0	142.723693000036	142.823680400033
21234.5	0.0999894000124186	477	satiated	stimuli/foods\smoked_ham.jpg	1	4	1	smoked_ham	1	N	10	0	266	0		0	0	142.873692599998	142.973682000011
21272	0.0999985999660566	478	satiated	stimuli/foods\waffle.jpg	1	4	1	waffle	1	T	14	0	278	0		0	0	143.023696600052	143.123695200018
21309.5	0.0999575000023469	479	satiated	stimuli/foods\fruit_salad.jpg	1	4	1	fruit_salad	1	V	15	0	55	0		0	0	143.173718500009	143.273676000012
21347	0.0999874999979511	480	satiated	stimuli/non_foods\non-food_animate_baby_crawling.jpg	1	4	1	non-food_animate_baby_crawling	0	N	10	0	92	0		0	0	143.323687700031	143.423675200029
21384.5	0.099984799977392	481	satiated	stimuli/non_foods\non-food_inanimate_stapler.jpg	1	4	1	non-food_inanimate_stapler	0	G	4	0	213	0		0	0	143.47369080002	143.573675599997
21422	0.0999872999964282	482	satiated	stimuli/foods\hamburger.jpg	1	4	1	hamburger	1	N	10	0	64	0		0	0	143.623689000029	143.723676300026
21459.5	0.099983699969016	483	satiated	stimuli/non_foods\non-food_inanimate_clover.jpg	1	4	1	non-food_inanimate_clover	0	X	17	0	174	0		0	0	143.773688100046	143.873671800015
21497	0.099979099992197	484	satiated	stimuli/foods\fruit_flan.jpg	1	4	1	fruit_flan	1	V	15	0	53	0		0	0	143.923695200006	144.023674299999
21534.5	0.0999839000287466	485	satiated	stimuli/non_foods\non-food_animate_killer_whale.jpg	1	4	1	non-food_animate_killer_whale	0	G	4	0	123	0		0	0	144.073686800024	144.173670700053
21572	0.0999699999811128	486	satiated	stimuli/non_foods\non-food_inanimate_highlighter.jpg	1	4	1	non-food_inanimate_highlighter	0	W	16	0	189	0		0	0	144.223701500043	144.323671500024
21609.5	0.0999848999781534	487	satiated	stimuli/foods\minestrone_soup.jpg	1	4	1	minestrone_soup	1	S	13	0	82	0		0	0	144.373683900048	144.473668800027
21647	0.0999747000169009	488	satiated	stimuli/foods\onion.jpg	1	4	1	onion	1	C	1	0	229	0		0	0	144.523667500005	144.623642200022
21684.5	0.0999889000086114	489	satiated	stimuli/non_foods\non-food_animate_swan.jpg	1	4	1	non-food_animate_swan	0	E	20	1	152	0		0	0	144.673684200039	144.773673100048
21722	0.0999958000029437	490	satiated	stimuli/foods\spinach.jpg	1	4	1	spinach	1	W	16	0	268	0		0	0	144.823691500002	144.923687300005
21759.5	0.0999493999988772	491	satiated	stimuli/foods\mango.jpg	1	4	1	mango	1	G	4	0	80	0		0	0	144.973714600026	145.073664000025
21797	0.0999857999850065	492	satiated	stimuli/non_foods\non-food_animate_green_bug.jpg	1	4	1	non-food_animate_green_bug	0	Z	18	0	118	0		0	0	145.123679400014	145.223665199999
21834.5	0.0999895000131801	493	satiated	stimuli/non_foods\non-food_animate_cheetah.jpg	1	4	1	non-food_animate_cheetah	0	T	14	0	100	0		0	0	145.273675500008	145.373665000021
21872	0.0999868999933824	494	satiated	stimuli/non_foods\non-food_animate_seahorse.jpg	1	4	1	non-food_animate_seahorse	0	L	8	0	145	0		0	0	145.423675500031	145.523662400024
21909.5	0.099984000029508	495	satiated	stimuli/foods\linguine_with_clams.jpg	1	4	1	linguine_with_clams	1	C	1	0	77	0		0	0	145.573675899999	145.673659900029
21947	0.0999855999834836	496	satiated	stimuli/non_foods\non-food_inanimate_bowling_ball.jpg	1	4	1	non-food_inanimate_bowling_ball	0	H	5	0	162	0		0	0	145.723676300026	145.823661900009
21984.5	0.100000399979763	497	satiated	stimuli/non_foods\non-food_animate_monkey.jpg	1	4	1	non-food_animate_monkey	0	T	14	0	130	0		0	0	145.87367250002	145.9736729
22022	0.0999603000236675	498	satiated	stimuli/foods\baked_cod_with_carrots_and_green_beans.jpg	1	4	1	baked_cod_with_carrots_and_green_beans	1	X	17	0	7	0		0	0	146.023697700002	146.123658000026
22059.5	0.0999878000002354	499	satiated	stimuli/foods\museli_bars.jpg	1	4	1	museli_bars	1	H	5	0	84	0		0	0	146.173670600052	146.273658400052
22097	0.0999835000257008	500	satiated	stimuli/foods\omelette.jpg	1	4	1	omelette	1	G	4	0	228	0		0	0	146.323671900027	146.423655400053
22134.5	0.0999911000253633	501	satiated	stimuli/non_foods\non-food_inanimate_waterlily.jpg	1	4	1	non-food_inanimate_waterlily	0	D	2	0	226	0		0	0	146.473668800027	146.573659900052
22172	0.100000799982809	502	satiated	stimuli/non_foods\non-food_animate_donkey.jpg	1	4	1	non-food_animate_donkey	0	V	15	0	107	0		0	0	146.623674200033	146.723675000016
22209.5	0.0999843000317924	503	satiated	stimuli/non_foods\non-food_inanimate_watering_can.jpg	1	4	1	non-food_inanimate_watering_can	0	Z	18	0	225	0		0	0	146.773667800007	146.873652100039
22247	0.0999850999796763	504	satiated	stimuli/foods\cauliflower.jpg	1	4	1	cauliflower	1	K	7	0	20	0		0	0	146.923666800023	147.023651900003
22284.5	0.0999878000002354	505	satiated	stimuli/non_foods\non-food_animate_slug.jpg	1	4	1	non-food_animate_slug	0	L	8	0	148	0		0	0	147.073664400028	147.173652200028
22322	0.0999891000101343	506	satiated	stimuli/foods\apricot.jpg	1	4	1	apricot	1	W	16	0	2	0		0	0	147.223662600038	147.323651700048
22359.5	0.0999879999435507	507	satiated	stimuli/non_foods\non-food_animate_lion.jpg	1	4	1	non-food_animate_lion	0	K	7	0	125	0		0	0	147.373661500053	147.473649499996
22397	0.0999852999811992	508	satiated	stimuli/non_foods\non-food_animate_porcupine.jpg	1	4	1	non-food_animate_porcupine	0	W	16	0	138	0		0	0	147.523664000037	147.623649300018
22434.5	0.0999975999584422	509	satiated	stimuli/non_foods\non-food_animate_clown.jpg	1	4	1	non-food_animate_clown	0	D	2	0	102	0		0	0	147.673662600049	147.773660200008
22472	0.0999756999663077	510	satiated	stimuli/non_foods\non-food_animate_bat.jpg	1	4	1	non-food_animate_bat	0	W	16	0	94	0		0	0	147.823673500039	147.923649200005
22509.5	0.0999825000180863	511	satiated	stimuli/foods\fried_zucchini.jpg	1	4	1	fried_zucchini	1	T	14	0	51	0		0	0	147.973661500029	148.073644000047
22547	0.0999875999987125	512	satiated	stimuli/foods\avocado.jpg	1	4	1	avocado	1	B	0	0	5	0		0	0	148.123659600038	148.223647200037
22584.5	0.100077700044494	513	satiated	stimuli/foods\raw_ham.jpg	1	4	1	raw_ham	1	C	1	0	253	0		0	0	148.273659700004	148.373737400048
22622	0.0999676000210457	514	satiated	stimuli/foods\lamb_chops.jpg	1	4	1	lamb_chops	1	P	11	0	70	0		0	0	148.423675500031	148.523643100052
22659.5	0.100003700004891	515	satiated	stimuli/non_foods\non-food_animate_Causasian_man.jpg	1	4	1	non-food_animate_Causasian_man	0	N	10	0	89	0		0	0	148.573639200011	148.673642900016
22697	0.0999740000115708	516	satiated	stimuli/foods\potato_chips.jpg	1	4	1	potato_chips	1	G	4	0	247	0		0	0	148.723659700016	148.823633700027
22734.5	0.0999853000394069	517	satiated	stimuli/foods\lentils.jpg	1	4	1	lentils	1	M	9	0	74	0		0	0	148.873647400003	148.973632700043
22772	0.0999959000037052	518	satiated	stimuli/non_foods\non-food_animate_ladybug.jpg	1	4	1	non-food_animate_ladybug	0	G	4	0	124	0		0	0	149.023644800007	149.123640700011
22809.5	0.0999764999723993	519	satiated	stimuli/foods\artichoke.jpg	1	4	1	artichoke	1	X	17	0	3	0		0	0	149.173654300044	149.273630800017
22847	0.0999899000162259	520	satiated	stimuli/foods\lasagna.jpg	1	4	1	lasagna	1	T	14	0	71	0		0	0	149.323650300037	149.423640200053
22884.5	0.0999823999591172	521	satiated	stimuli/non_foods\non-food_inanimate_shell.jpg	1	4	1	non-food_inanimate_shell	0	O	22	1	206	0		0	0	149.473656400049	149.573638800008
22922	0.0999599999631755	522	satiated	stimuli/non_foods\non-food_animate_german_shepherd.jpg	1	4	1	non-food_animate_german_shepherd	0	D	2	0	114	0		0	0	149.623652600043	149.723612600006
22959.5	0.0999819000135176	523	satiated	stimuli/non_foods\non-food_animate_hummingbird.jpg	1	4	1	non-food_animate_hummingbird	0	X	17	0	120	0		0	0	149.7736515	149.873633400013
22997	0.0999821000150405	524	satiated	stimuli/non_foods\non-food_inanimate_briefcase.jpg	1	4	1	non-food_inanimate_briefcase	0	N	10	0	163	0		0	0	149.923652000027	150.023634100042
23034.5	0.0999953999998979	525	satiated	stimuli/non_foods\non-food_inanimate_hay.jpg	1	4	1	non-food_inanimate_hay	0	G	4	0	187	0		0	0	150.073646300007	150.173641700007
23072	0.099945200025104	526	satiated	stimuli/non_foods\non-food_animate_gorilla.jpg	1	4	1	non-food_animate_gorilla	0	F	3	0	116	0		0	0	150.223689400009	150.323634600034
23109.5	0.0999853999819607	527	satiated	stimuli/foods\garlic.jpg	1	4	1	garlic	1	H	5	0	56	0		0	0	150.373643700033	150.473629100015
23147	0.0999861999880522	528	satiated	stimuli/foods\donut.jpg	1	4	1	donut	1	L	8	0	44	0		0	0	150.523645100009	150.623631299997
23184.5	0.0999817999545485	529	satiated	stimuli/foods\lollies.jpg	1	4	1	lollies	1	X	17	0	78	0		0	0	150.673646900046	150.773628700001
23222	0.099988600006327	530	satiated	stimuli/non_foods\non-food_animate_woman.jpg	1	4	1	non-food_animate_woman	0	Z	18	0	154	0		0	0	150.823639600014	150.92362820002
23259.5	0.0999887999496423	531	satiated	stimuli/non_foods\non-food_animate_frog.jpg	1	4	1	non-food_animate_frog	0	B	0	0	113	0		0	0	150.973640900047	151.073629699997
23297	0.0999874999979511	532	satiated	stimuli/foods\salami.jpg	1	4	1	salami	1	X	17	0	263	0		0	0	151.123636700038	151.223624200036
23334.5	0.099986000044737	533	satiated	stimuli/non_foods\non-food_inanimate_skirt.jpg	1	4	1	non-food_inanimate_skirt	0	T	14	0	209	0		0	0	151.2736362	151.373622200044
23372	0.0999869000515901	534	satiated	stimuli/non_foods\non-food_animate_deer.jpg	1	4	1	non-food_animate_deer	0	L	8	0	105	0		0	0	151.423640599998	151.52362750005
23409.5	0.0999887000070885	535	satiated	stimuli/non_foods\non-food_inanimate_bed.jpg	1	4	1	non-food_inanimate_bed	0	P	11	0	160	0		0	0	151.573634200031	151.673622900038
23447	0.0999868999933824	536	satiated	stimuli/foods\lemon_meringue_pie.jpg	1	4	1	lemon_meringue_pie	1	M	9	0	73	0		0	0	151.723638800031	151.823625700024
23484.5	0.100033199996687	537	satiated	stimuli/non_foods\non-food_inanimate_wrench.jpg	1	4	1	non-food_inanimate_wrench	0	H	5	0	227	0		0	0	151.873635700031	151.973668900027
23522	0.0999445000197738	538	satiated	stimuli/non_foods\non-food_inanimate_fire_extinguisher.jpg	1	4	1	non-food_inanimate_fire_extinguisher	0	V	15	0	181	0		0	0	152.0236745	152.12361900002
23559.5	0.0999883000040427	539	satiated	stimuli/foods\mussels.jpg	1	4	1	mussels	1	H	5	0	86	0		0	0	152.173635200015	152.273623500019
23597	0.0999871999956667	540	satiated	stimuli/foods\stew_with_potatoes_and_carrots.jpg	1	4	1	stew_with_potatoes_and_carrots	1	N	10	0	271	0		0	0	152.323630400002	152.423617599998
23634.5	0.0999874999979511	541	satiated	stimuli/foods\raw_sausage.jpg	1	4	1	raw_sausage	1	S	13	0	254	0		0	0	152.47363100003	152.573618500028
23672	0.0999799000564963	542	satiated	stimuli/non_foods\non-food_animate_polar_bear.jpg	1	4	1	non-food_animate_polar_bear	0	J	6	0	137	0		0	0	152.623631299997	152.723611200054
23709.5	0.0999808000051416	543	satiated	stimuli/non_foods\non-food_animate_penguin.jpg	1	4	1	non-food_animate_penguin	0	N	10	0	135	0		0	0	152.773625100031	152.873605900037
23747	0.0999828000203706	544	satiated	stimuli/foods\brownie.jpg	1	4	1	brownie	1	X	17	0	14	0		0	0	152.923619600013	153.023602400033
23784.5	0.100010699999984	545	satiated	stimuli/non_foods\non-food_inanimate_canoe.jpg	1	4	1	non-food_inanimate_canoe	0	S	13	0	170	0		0	0	153.073605900048	153.173616600048
23822	0.0999899000162259	546	satiated	stimuli/foods\kiwi.jpg	1	4	1	kiwi	1	V	15	0	69	0		0	0	153.223627500003	153.323617400019
23859.5	0.0999852000386454	547	satiated	stimuli/foods\dates.jpg	1	4	1	dates	1	L	8	0	43	0		0	0	153.373625600012	153.473610800051
23897	0.0999866999918595	548	satiated	stimuli/foods\grapes.jpg	1	4	1	grapes	1	Z	18	0	60	0		0	0	153.52362230001	153.623609000002
23934.5	0.0999703000416048	549	satiated	stimuli/non_foods\non-food_animate_butterfly.jpg	1	4	1	non-food_animate_butterfly	0	D	2	0	96	0		0	0	153.673634800012	153.773605100054
23972	0.0999707999872044	550	satiated	stimuli/foods\tomato.jpg	1	4	1	tomato	1	G	4	0	276	0		0	0	153.823632100015	153.923602900002
24009.5	0.0999863999895751	551	satiated	stimuli/foods\gnocchi.jpg	1	4	1	gnocchi	1	L	8	0	58	0		0	0	153.973616100033	154.073602500022
24047	0.099985100037884	552	satiated	stimuli/foods\croissant.jpg	1	4	1	croissant	1	G	4	0	40	0		0	0	154.123624900007	154.223610000045
24084.5	0.100008899986278	553	satiated	stimuli/non_foods\non-food_inanimate_cactus_pot_plant.jpg	1	4	1	non-food_inanimate_cactus_pot_plant	0	P	11	0	169	0		0	0	154.273594800034	154.37360370002
24122	0.0999879000009969	554	satiated	stimuli/non_foods\non-food_inanimate_bamboo.jpg	1	4	1	non-food_inanimate_bamboo	0	R	12	0	159	0		0	0	154.423617200053	154.523605100054
24159.5	0.0999821000150405	555	satiated	stimuli/non_foods\non-food_inanimate_alarm_clock.jpg	1	4	1	non-food_inanimate_alarm_clock	0	L	8	0	158	0		0	0	154.573617900023	154.673600000038
24197	0.0999872999964282	556	satiated	stimuli/foods\green_beans.jpg	1	4	1	green_beans	1	P	11	0	61	0		0	0	154.723618800053	154.82360610005
24234.5	0.0999902000185102	557	satiated	stimuli/foods\taco.jpg	1	4	1	taco	1	D	2	0	274	0		0	0	154.873612100026	154.973602300044
24272	0.0999869999941438	558	satiated	stimuli/non_foods\non-food_inanimate_suitcase.jpg	1	4	1	non-food_inanimate_suitcase	0	M	9	0	215	0		0	0	155.023613900004	155.123600899999
24309.5	0.0999924999778159	559	satiated	stimuli/non_foods\non-food_inanimate_scissors.jpg	1	4	1	non-food_inanimate_scissors	0	R	12	0	205	0		0	0	155.173613600025	155.273606100003
24922	0.0999838000279851	560	satiated	stimuli/non_foods\non-food_inanimate_wrench.jpg	1	5	1	non-food_inanimate_wrench	0	B	0	0	227	0		0	0	157.623602800013	157.723586600041
24959.5	0.0999848000355996	561	satiated	stimuli/foods\oyster.jpg	1	5	1	oyster	1	D	2	0	233	0		0	0	157.773598600004	157.87358340004
24997	0.0999940999899991	562	satiated	stimuli/foods\eggplant.jpg	1	5	1	eggplant	1	K	7	0	46	0		0	0	157.923600800044	158.023594900034
25034.5	0.0999866999918595	563	satiated	stimuli/non_foods\non-food_inanimate_orchid.jpg	1	5	1	non-food_inanimate_orchid	0	X	17	0	198	0		0	0	158.073594900023	158.173581600015
25072	0.0999507999513298	564	satiated	stimuli/foods\fried_calamari.jpg	1	5	1	fried_calamari	1	B	0	0	50	0		0	0	158.223625500046	158.323576299998
25109.5	0.0999866999918595	565	satiated	stimuli/foods\chestnut.jpg	1	5	1	chestnut	1	L	8	0	24	0		0	0	158.373587200011	158.473573900003
25147	0.100013600022066	566	satiated	stimuli/foods\salmon.jpg	1	5	1	salmon	1	J	6	0	264	0		0	0	158.523568700009	158.623582300032
25184.5	0.0999569999985397	567	satiated	stimuli/foods\artichoke.jpg	1	5	1	artichoke	1	V	15	0	3	0		0	0	158.673597200017	158.773554200015
25222	0.0999829000211321	568	satiated	stimuli/foods\cream_donuts.jpg	1	5	1	cream_donuts	1	L	8	0	39	0		0	0	158.82359450002	158.923577400041
25259.5	0.0999864999903366	569	satiated	stimuli/non_foods\non-food_inanimate_hammer.jpg	1	5	1	non-food_inanimate_hammer	0	B	0	0	186	0		0	0	158.973590400012	159.073576900002
25297	0.0999849999789149	570	satiated	stimuli/non_foods\non-food_animate_baby_sitting.jpg	1	5	1	non-food_animate_baby_sitting	0	N	10	0	93	0		0	0	159.123592500051	159.22357750003
25334.5	0.0999812000081874	571	satiated	stimuli/non_foods\non-food_animate_peacock.jpg	1	5	1	non-food_animate_peacock	0	L	8	0	134	0		0	0	159.273587700038	159.373568900046
25372	0.0999888000078499	572	satiated	stimuli/foods\cupcake.jpg	1	5	1	cupcake	1	S	13	0	42	0		0	0	159.42358860001	159.523577400018
25409.5	0.0999854999827221	573	satiated	stimuli/non_foods\non-food_inanimate_bucket.jpg	1	5	1	non-food_inanimate_bucket	0	H	5	0	165	0		0	0	159.573589200038	159.67357470002
25447	0.0999668999575078	574	satiated	stimuli/foods\cucumber.jpg	1	5	1	cucumber	1	C	1	0	41	0		0	0	159.723587200046	159.823554100003
25484.5	0.100004700012505	575	satiated	stimuli/non_foods\non-food_animate_ladybug.jpg	1	5	1	non-food_animate_ladybug	0	D	2	0	124	0		0	0	159.873587700014	159.973592400027
25522	0.0999630999867804	576	satiated	stimuli/foods\mandarin.jpg	1	5	1	mandarin	1	Z	18	0	79	0		0	0	160.023607200012	160.123570299998
25559.5	0.0999908000230789	577	satiated	stimuli/non_foods\non-food_animate_alligator.jpg	1	5	1	non-food_animate_alligator	0	B	0	0	90	0		0	0	160.173582500021	160.273573300045
25597	0.0999863999895751	578	satiated	stimuli/foods\pork_and_rice.jpg	1	5	1	pork_and_rice	1	P	11	0	245	0		0	0	160.323582400044	160.423568800034
25634.5	0.0999856000416912	579	satiated	stimuli/foods\peas.jpg	1	5	1	peas	1	L	8	0	240	0		0	0	160.4735812	160.573566800042
25672	0.099988600006327	580	satiated	stimuli/non_foods\non-food_inanimate_folding_chair.jpg	1	5	1	non-food_inanimate_folding_chair	0	S	13	0	182	0		0	0	160.623580000014	160.72356860002
25709.5	0.0999861999880522	581	satiated	stimuli/non_foods\non-food_inanimate_clover.jpg	1	5	1	non-food_inanimate_clover	0	R	12	0	174	0		0	0	160.773578200024	160.873564400012
25747	0.0999904000200331	582	satiated	stimuli/foods\hazelnuts.jpg	1	5	1	hazelnuts	1	G	4	0	65	0		0	0	160.923560500029	161.023550900049
25784.5	0.0999994999729097	583	satiated	stimuli/foods\raw_sausage.jpg	1	5	1	raw_sausage	1	T	14	0	254	0		0	0	161.073565900035	161.173565400008
25822	0.0999854999827221	584	satiated	stimuli/foods\capsicum.jpg	1	5	1	capsicum	1	G	4	0	18	0		0	0	161.223578900041	161.323564400023
25859.5	0.10000040003797	585	satiated	stimuli/foods\hotdog.jpg	1	5	1	hotdog	1	J	6	0	67	0		0	0	161.37356420001	161.473564600048
25897	0.0999787999899127	586	satiated	stimuli/non_foods\non-food_inanimate_chair.jpg	1	5	1	non-food_inanimate_chair	0	K	7	0	172	0		0	0	161.523585100018	161.623563900008
25934.5	0.100018199998885	587	satiated	stimuli/foods\orange.jpg	1	5	1	orange	1	V	15	0	230	0		0	0	161.673586400051	161.77360460005
25972	0.0999841999728233	588	satiated	stimuli/foods\papaya.jpg	1	5	1	papaya	1	S	13	0	235	0		0	0	161.82357550005	161.923559700022
26009.5	0.0999887000070885	589	satiated	stimuli/foods\grapes.jpg	1	5	1	grapes	1	N	10	0	60	0		0	0	161.973571400042	162.073560100049
26047	0.0999868999933824	590	satiated	stimuli/non_foods\non-food_inanimate_leaf.jpg	1	5	1	non-food_inanimate_leaf	0	B	0	0	192	0		0	0	162.123573000019	162.223559900012
26084.5	0.0999846999766305	591	satiated	stimuli/foods\mussels.jpg	1	5	1	mussels	1	K	7	0	86	0		0	0	162.27357140003	162.373556100007
26122	0.0999898000154644	592	satiated	stimuli/non_foods\non-food_inanimate_canoe.jpg	1	5	1	non-food_inanimate_canoe	0	R	12	0	170	0		0	0	162.423566900019	162.523556700035
26159.5	0.0999647999997251	593	satiated	stimuli/non_foods\non-food_animate_owl.jpg	1	5	1	non-food_animate_owl	0	S	13	0	132	0		0	0	162.573567000043	162.673531800043
26197	0.099977099976968	594	satiated	stimuli/non_foods\non-food_inanimate_bamboo.jpg	1	5	1	non-food_inanimate_bamboo	0	A	19	1	159	0		0	0	162.723570900038	162.823548000015
26234.5	0.0999980999622494	595	satiated	stimuli/non_foods\non-food_animate_green_bug.jpg	1	5	1	non-food_animate_green_bug	0	B	0	0	118	0		0	0	162.873567500035	162.973565599998
26272	0.0999880000017583	596	satiated	stimuli/foods\steak.jpg	1	5	1	steak	1	C	1	0	270	0		0	0	163.023566600052	163.123554600053
26309.5	0.0999852000386454	597	satiated	stimuli/foods\smoked_ham.jpg	1	5	1	smoked_ham	1	F	3	0	266	1	a	0.541837800003123	1	163.173565800011	163.273551000049
26347	0.0999792999937199	598	satiated	stimuli/non_foods\non-food_inanimate_couch.jpg	1	5	1	non-food_inanimate_couch	0	M	9	0	176	0		0	0	163.323562300007	163.423541600001
26384.5	0.0999915999709629	599	satiated	stimuli/foods\risotto_with_zucchini.jpg	1	5	1	risotto_with_zucchini	1	V	15	0	260	0		0	0	163.473580600054	163.573572200025
26422	0.0999871999956667	600	satiated	stimuli/non_foods\non-food_inanimate_jeans.jpg	1	5	1	non-food_inanimate_jeans	0	W	16	0	191	0		0	0	163.623561000044	163.72354820004
26459.5	0.0999873999971896	601	satiated	stimuli/foods\museli_bars.jpg	1	5	1	museli_bars	1	G	4	0	84	0		0	0	163.773562200018	163.873549600015
26497	0.0999837999697775	602	satiated	stimuli/non_foods\non-food_inanimate_shell.jpg	1	5	1	non-food_inanimate_shell	0	X	17	0	206	0		0	0	163.923560300027	164.023544099997
26534.5	0.0999896000139415	603	satiated	stimuli/foods\pear.jpg	1	5	1	pear	1	Z	18	0	239	0		0	0	164.073558800039	164.173548400053
26572	0.0999839999713004	604	satiated	stimuli/non_foods\non-food_inanimate_briefcase.jpg	1	5	1	non-food_inanimate_briefcase	0	W	16	0	163	0		0	0	164.223562400031	164.323546400003
26609.5	0.0999863999895751	605	satiated	stimuli/foods\tomato.jpg	1	5	1	tomato	1	G	4	0	276	0		0	0	164.373558000021	164.473544400011
26647	0.100002899998799	606	satiated	stimuli/foods\peach.jpg	1	5	1	peach	1	N	10	0	238	0		0	0	164.523543200048	164.623546100047
26684.5	0.099976500030607	607	satiated	stimuli/foods\lamb_chops.jpg	1	5	1	lamb_chops	1	P	11	0	70	0		0	0	164.6735567	164.77353320003
26722	0.0999768999754451	608	satiated	stimuli/non_foods\non-food_animate_seal.jpg	1	5	1	non-food_animate_seal	0	N	10	0	146	0		0	0	164.823549400026	164.923526300001
26759.5	0.100012700015213	609	satiated	stimuli/foods\chocolate_pralines.jpg	1	5	1	chocolate_pralines	1	Z	18	0	28	0		0	0	164.973531900032	165.073544600047
26797	0.0999899000162259	610	satiated	stimuli/foods\chilli.jpg	1	5	1	chilli	1	S	13	0	25	0		0	0	165.123551300028	165.223541200045
26834.5	0.0999933999846689	611	satiated	stimuli/foods\salami.jpg	1	5	1	salami	1	K	7	0	263	0		0	0	165.27354850003	165.373541900015
26872	0.0999843999743462	612	satiated	stimuli/foods\pumpkin.jpg	1	5	1	pumpkin	1	P	11	0	250	0		0	0	165.423552200024	165.523536599998
26909.5	0.0999862999888137	613	satiated	stimuli/foods\spaghetti_with_meat_sauce.jpg	1	5	1	spaghetti_with_meat_sauce	1	H	5	0	267	0		0	0	165.573550200032	165.67353650002
26947	0.0999888000078499	614	satiated	stimuli/foods\cabbage.jpg	1	5	1	cabbage	1	N	10	0	16	0		0	0	165.723551700008	165.823540500016
26984.5	0.0999863000470214	615	satiated	stimuli/non_foods\non-food_animate_frog.jpg	1	5	1	non-food_animate_frog	0	V	15	0	113	0		0	0	165.873547199997	165.973533500044
27022	0.0999854999827221	616	satiated	stimuli/non_foods\non-food_inanimate_tulip.jpg	1	5	1	non-food_inanimate_tulip	0	Z	18	0	224	0		0	0	166.023548200028	166.123533700011
27059.5	0.0999794999952428	617	satiated	stimuli/non_foods\non-food_inanimate_stoplight.jpg	1	5	1	non-food_inanimate_stoplight	0	P	11	0	214	0		0	0	166.17354670004	166.273526200035
27097	0.100000099977478	618	satiated	stimuli/foods\fennel.jpg	1	5	1	fennel	1	T	14	0	47	0		0	0	166.323543800041	166.423543900019
27134.5	0.0999731000047177	619	satiated	stimuli/non_foods\non-food_inanimate_moss.jpg	1	5	1	non-food_inanimate_moss	0	Z	18	0	194	0		0	0	166.473560400016	166.573533500021
27172	0.0999858999857679	620	satiated	stimuli/non_foods\non-food_animate_squirrel.jpg	1	5	1	non-food_animate_squirrel	0	H	5	0	150	0		0	0	166.623543800029	166.723529700015
27209.5	0.0999893000116572	621	satiated	stimuli/non_foods\non-food_animate_woman.jpg	1	5	1	non-food_animate_woman	0	O	22	1	154	0		0	0	166.773540900031	166.873530200042
27247	0.100008000037633	622	satiated	stimuli/non_foods\non-food_animate_german_shepherd.jpg	1	5	1	non-food_animate_german_shepherd	0	S	13	0	114	0		0	0	166.923533699999	167.023541700037
27284.5	0.0999347000033595	623	satiated	stimuli/foods\green_beans.jpg	1	5	1	green_beans	1	L	8	0	61	0		0	0	167.073590100044	167.173524800048
27322	0.0999767999746837	624	satiated	stimuli/foods\waffle.jpg	1	5	1	waffle	1	T	14	0	278	0		0	0	167.223553500022	167.323530299996
27359.5	0.0999825999606401	625	satiated	stimuli/foods\kiwi.jpg	1	5	1	kiwi	1	D	2	0	69	0		0	0	167.373538300046	167.473520900006
27397	0.0999980999622494	626	satiated	stimuli/foods\radish.jpg	1	5	1	radish	1	V	15	0	251	0		0	0	167.52352820005	167.623526300013
27434.5	0.0999776999815367	627	satiated	stimuli/foods\rockmelon.jpg	1	5	1	rockmelon	1	R	12	0	262	0		0	0	167.673529600026	167.773507300008
27472	0.100015499978326	628	satiated	stimuli/foods\lentils.jpg	1	5	1	lentils	1	D	2	0	74	0		0	0	167.82350680005	167.923522300029
27509.5	0.0999875999987125	629	satiated	stimuli/foods\pineapple.jpg	1	5	1	pineapple	1	V	15	0	243	0		0	0	167.973535500001	168.0735231
27547	0.0999970000120811	630	satiated	stimuli/foods\frankfurter_and_provolone_salad.jpg	1	5	1	frankfurter_and_provolone_salad	1	N	10	0	49	0		0	0	168.123537100037	168.223534100049
27584.5	0.0999926999793388	631	satiated	stimuli/non_foods\non-food_inanimate_teddy_bear.jpg	1	5	1	non-food_inanimate_teddy_bear	0	M	9	0	218	0		0	0	168.273528600053	168.373521300033
27622	0.0999614000320435	632	satiated	stimuli/non_foods\non-food_inanimate_nettle.jpg	1	5	1	non-food_inanimate_nettle	0	P	11	0	197	0		0	0	168.423535300011	168.523496700043
27659.5	0.0999981000204571	633	satiated	stimuli/non_foods\non-food_animate_student_female.jpg	1	5	1	non-food_animate_student_female	0	Z	18	0	151	0		0	0	168.573516200006	168.673514300026
27697	0.100009899993893	634	satiated	stimuli/non_foods\non-food_inanimate_tent.jpg	1	5	1	non-food_inanimate_tent	0	D	2	0	219	0		0	0	168.723522400018	168.823532300012
27734.5	0.100010000052862	635	satiated	stimuli/foods\lime.jpg	1	5	1	lime	1	T	14	0	76	0		0	0	168.8735094	168.973519400053
27772	0.100002100050915	636	satiated	stimuli/foods\strawberry.jpg	1	5	1	strawberry	1	K	7	0	272	0		0	0	169.023513599997	169.123515700048
27809.5	0.099974500015378	637	satiated	stimuli/foods\meatballs.jpg	1	5	1	meatballs	1	Z	18	0	81	0		0	0	169.173527700012	169.273502200027
27847	0.100000099977478	638	satiated	stimuli/foods\linguine_with_clams.jpg	1	5	1	linguine_with_clams	1	X	17	0	77	0		0	0	169.323511100025	169.423511200002
27884.5	0.100001899991184	639	satiated	stimuli/foods\pancakes.jpg	1	5	1	pancakes	1	B	0	0	234	0		0	0	169.47351130005	169.573513200041
27922	0.0999867999926209	640	satiated	stimuli/non_foods\non-food_animate_dolphin.jpg	1	5	1	non-food_animate_dolphin	0	F	3	0	106	0		0	0	169.623510300007	169.7234971
27959.5	0.100017199991271	641	satiated	stimuli/foods\pea_pod.jpg	1	5	1	pea_pod	1	T	14	0	237	0		0	0	169.773493500019	169.87351070001
27997	0.0999655000050552	642	satiated	stimuli/non_foods\non-food_animate_polar_bear.jpg	1	5	1	non-food_animate_polar_bear	0	S	13	0	137	0		0	0	169.923544900026	170.023510400031
28034.5	0.0999834000249393	643	satiated	stimuli/foods\oven-roasted_tomatoes.jpg	1	5	1	oven-roasted_tomatoes	1	Z	18	0	232	0		0	0	170.073523900006	170.173507300031
28072	0.099989399954211	644	satiated	stimuli/foods\chocolate_pudding.jpg	1	5	1	chocolate_pudding	1	B	0	0	29	0		0	0	170.22351900005	170.323508400004
28109.5	0.0999863999895751	645	satiated	stimuli/non_foods\non-food_inanimate_fire_extinguisher.jpg	1	5	1	non-food_inanimate_fire_extinguisher	0	L	8	0	181	0		0	0	170.373522900045	170.473509300034
