onset	duration	eventnumber	hunger_condition	stimfilename	blockno	trialno	is_faststream	stim	food_idx	letter	letter_idx	istarget	image_number	response	keypressed	rt	correct	time_stimon	time_stimoff
11272	0.0999752000207081	0	satiated	stimuli/foods\avocado.jpg	1	1	1	avocado	1	Z	18	0	5	0		0	0	55.0366347999661	55.1366099999868
11309.5	0.100035000010394	1	satiated	stimuli/foods\green_olives.jpg	1	1	1	green_olives	1	S	13	0	62	0		0	0	55.1866289999452	55.2866639999556
11347	0.0999799999990501	2	satiated	stimuli/non_foods\non-food_inanimate_highlighter.jpg	1	1	1	non-food_inanimate_highlighter	0	H	5	0	189	0		0	0	55.3366286999662	55.4366086999653
11384.5	0.099990600021556	3	satiated	stimuli/non_foods\non-food_inanimate_bamboo.jpg	1	1	1	non-food_inanimate_bamboo	0	X	17	0	159	0		0	0	55.4866243999568	55.5866149999783
11422	0.099982000014279	4	satiated	stimuli/non_foods\non-food_animate_slug.jpg	1	1	1	non-food_animate_slug	0	Z	18	0	148	0		0	0	55.6366231999709	55.7366051999852
11459.5	0.100004600011744	5	satiated	stimuli/non_foods\non-food_inanimate_briefcase.jpg	1	1	1	non-food_inanimate_briefcase	0	G	4	0	163	0		0	0	55.7866022999515	55.8866068999632
11497	0.0999680000240915	6	satiated	stimuli/non_foods\non-food_animate_camel.jpg	1	1	1	non-food_animate_camel	0	H	5	0	97	0		0	0	55.9366300999536	56.0365980999777
11534.5	0.0999864000477828	7	satiated	stimuli/non_foods\non-food_inanimate_ring.jpg	1	1	1	non-food_inanimate_ring	0	N	10	0	203	0		0	0	56.0866185999475	56.1866049999953
11572	0.100003800005652	8	satiated	stimuli/foods\fruit_salad.jpg	1	1	1	fruit_salad	1	W	16	0	55	0		0	0	56.2366011999547	56.3366049999604
11609.5	0.0999835000257008	9	satiated	stimuli/non_foods\non-food_animate_kangaroo.jpg	1	1	1	non-food_animate_kangaroo	0	N	10	0	122	0		0	0	56.3866207999527	56.4866042999784
11647	0.099985699984245	10	satiated	stimuli/foods\spaghetti_with_meat_sauce.jpg	1	1	1	spaghetti_with_meat_sauce	1	Z	18	0	267	0		0	0	56.5366243000026	56.6366099999868
11684.5	0.0999702000408433	11	satiated	stimuli/non_foods\non-food_animate_ladybug.jpg	1	1	1	non-food_animate_ladybug	0	V	15	0	124	0		0	0	56.6866308999597	56.7866011000006
11722	0.0999803000013344	12	satiated	stimuli/foods\pea_pod.jpg	1	1	1	pea_pod	1	D	2	0	237	0		0	0	56.8366160999867	56.936596399988
11759.5	0.0997348999953829	13	satiated	stimuli/foods\broccoli.jpg	1	1	1	broccoli	1	G	4	0	13	0		0	0	56.9868573999847	57.0865922999801
11797	0.0999941999907605	14	satiated	stimuli/non_foods\non-food_inanimate_stoplight.jpg	1	1	1	non-food_inanimate_stoplight	0	L	8	0	214	0		0	0	57.1366018999834	57.2365960999741
11834.5	0.10001439996995	15	satiated	stimuli/foods\chocolate_pudding.jpg	1	1	1	chocolate_pudding	1	X	17	0	29	0		0	0	57.2865833999822	57.3865977999521
11872	0.0999868999933824	16	satiated	stimuli/non_foods\non-food_animate_rhino.jpg	1	1	1	non-food_animate_rhino	0	P	11	0	141	0		0	0	57.43660799996	57.5365948999533
11909.5	0.0999892000108957	17	satiated	stimuli/foods\roasted_chicken.jpg	1	1	1	roasted_chicken	1	W	16	0	261	0		0	0	57.5866127999616	57.6866019999725
11947	0.0999483000487089	18	satiated	stimuli/foods\orange.jpg	1	1	1	orange	1	K	7	0	230	0		0	0	57.7366315999534	57.8365799000021
11984.5	0.0999866999918595	19	satiated	stimuli/foods\celery.jpg	1	1	1	celery	1	S	13	0	21	0		0	0	57.8866042000009	57.9865908999927
12022	0.0999844999751076	20	satiated	stimuli/non_foods\non-food_animate_llama.jpg	1	1	1	non-food_animate_llama	0	K	7	0	127	0		0	0	58.0366073999903	58.1365918999654
12059.5	0.10000299999956	21	satiated	stimuli/foods\brownie.jpg	1	1	1	brownie	1	P	11	0	14	0		0	0	58.1865838999511	58.2865868999506
12097	0.0999888000078499	22	satiated	stimuli/non_foods\non-food_animate_ant.jpg	1	1	1	non-food_animate_ant	0	L	8	0	91	0		0	0	58.3366004999843	58.4365892999922
12134.5	0.0999793999944814	23	satiated	stimuli/non_foods\non-food_inanimate_nettle.jpg	1	1	1	non-food_inanimate_nettle	0	W	16	0	197	0		0	0	58.4866132999887	58.5865926999832
12172	0.0999869999941438	24	satiated	stimuli/foods\fruit_pie.jpg	1	1	1	fruit_pie	1	R	12	0	54	0		0	0	58.6366025999887	58.7365895999828
12209.5	0.0999808000051416	25	satiated	stimuli/foods\chilli.jpg	1	1	1	chilli	1	F	3	0	25	0		0	0	58.7865955999587	58.8865763999638
12247	0.0999899000162259	26	satiated	stimuli/non_foods\non-food_inanimate_rope.jpg	1	1	1	non-food_inanimate_rope	0	Z	18	0	204	0		0	0	58.9365862999693	59.0365761999856
12284.5	0.100008699984755	27	satiated	stimuli/non_foods\non-food_inanimate_tent.jpg	1	1	1	non-food_inanimate_tent	0	X	17	0	219	0		0	0	59.086574499961	59.1865831999457
12322	0.0999862999888137	28	satiated	stimuli/non_foods\non-food_animate_alligator.jpg	1	1	1	non-food_animate_alligator	0	G	4	0	90	0		0	0	59.2365950999665	59.3365813999553
12359.5	0.0999727000016719	29	satiated	stimuli/foods\risotto_with_zucchini.jpg	1	1	1	risotto_with_zucchini	1	D	2	0	260	0		0	0	59.3865790999844	59.486551799986
12397	0.0999855999834836	30	satiated	stimuli/foods\chocolate_chip_cookies.jpg	1	1	1	chocolate_chip_cookies	1	H	5	0	27	0		0	0	59.5365929999971	59.6365785999806
12434.5	0.0999944999930449	31	satiated	stimuli/non_foods\non-food_animate_Asian_man.jpg	1	1	1	non-food_animate_Asian_man	0	K	7	0	88	1	a	0	0	59.6865820999956	59.7865765999886
12472	0.0999880000017583	32	satiated	stimuli/foods\meatballs.jpg	1	1	1	meatballs	1	Z	18	0	81	0		0	0	59.8365921999793	59.9365801999811
12509.5	0.099988600006327	33	satiated	stimuli/non_foods\non-food_animate_caterpillar.jpg	1	1	1	non-food_animate_caterpillar	0	H	5	0	99	0		0	0	59.9865879999707	60.086576599977
12547	0.100036600022577	34	satiated	stimuli/foods\figs.jpg	1	1	1	figs	1	V	15	0	48	0		0	0	60.1365844999673	60.2366210999899
12584.5	0.0999655000050552	35	satiated	stimuli/foods\eggplant.jpg	1	1	1	eggplant	1	P	11	0	46	0		0	0	60.2866097999504	60.3865752999554
12622	0.0999875999987125	36	satiated	stimuli/foods\lasagna.jpg	1	1	1	lasagna	1	H	5	0	71	0		0	0	60.4365859999671	60.5365735999658
12659.5	0.100001099985093	37	satiated	stimuli/non_foods\non-food_animate_penguin.jpg	1	1	1	non-food_animate_penguin	0	F	3	0	135	0		0	0	60.586574499961	60.6865755999461
12697	0.099989700014703	38	satiated	stimuli/foods\grilled_chicken_breast.jpg	1	1	1	grilled_chicken_breast	1	C	1	0	63	0		0	0	60.7365813999786	60.8365710999933
12734.5	0.0999872999964282	39	satiated	stimuli/foods\egg.jpg	1	1	1	egg	1	K	7	0	45	0		0	0	60.8865827999543	60.9865700999508
12772	0.0999777999822982	40	satiated	stimuli/foods\dates.jpg	1	1	1	dates	1	N	10	0	43	0		0	0	61.0365839999868	61.1365617999691
12809.5	0.0999843999743462	41	satiated	stimuli/foods\coffee_beans.jpg	1	1	1	coffee_beans	1	R	12	0	34	0		0	0	61.1865726999822	61.2865570999566
12847	0.0999713999917731	42	satiated	stimuli/non_foods\non-food_animate_butterfly.jpg	1	1	1	non-food_animate_butterfly	0	M	9	0	96	0		0	0	61.3365980999661	61.4365694999578
12884.5	0.0999861999880522	43	satiated	stimuli/foods\croissant.jpg	1	1	1	croissant	1	P	11	0	40	0		0	0	61.4865813999786	61.5865675999667
12922	0.0999844999751076	44	satiated	stimuli/foods\cooked_ham.jpg	1	1	1	cooked_ham	1	N	10	0	35	0		0	0	61.6365793999867	61.7365638999618
12959.5	0.0999806000036187	45	satiated	stimuli/non_foods\non-food_inanimate_suitcase.jpg	1	1	1	non-food_inanimate_suitcase	0	G	4	0	215	0		0	0	61.786577699997	61.8865583000006
12997	0.0999822000158019	46	satiated	stimuli/foods\green_beans.jpg	1	1	1	green_beans	1	Z	18	0	61	0		0	0	61.9365765999537	62.0365587999695
13034.5	0.0999880000017583	47	satiated	stimuli/foods\cracker.jpg	1	1	1	cracker	1	W	16	0	38	0		0	0	62.0865761999739	62.1865641999757
13072	0.0999850000371225	48	satiated	stimuli/non_foods\non-food_inanimate_hay.jpg	1	1	1	non-food_inanimate_hay	0	Z	18	0	187	0		0	0	62.2365771999466	62.3365621999837
13109.5	0.0999970000120811	49	satiated	stimuli/non_foods\non-food_animate_iguana.jpg	1	1	1	non-food_animate_iguana	0	V	15	0	121	0		0	0	62.3865537999664	62.4865507999784
13147	0.0999823000165634	50	satiated	stimuli/non_foods\non-food_animate_green_bug.jpg	1	1	1	non-food_animate_green_bug	0	W	16	0	118	0		0	0	62.5365648999577	62.6365471999743
13184.5	0.0999867000500672	51	satiated	stimuli/foods\cauliflower.jpg	1	1	1	cauliflower	1	H	5	0	20	0		0	0	62.6865605999483	62.7865472999983
13222	0.099972500000149	52	satiated	stimuli/non_foods\non-food_animate_mouse.jpg	1	1	1	non-food_animate_mouse	0	T	14	0	131	0		0	0	62.8365616999799	62.9365341999801
13259.5	0.100007999979425	53	satiated	stimuli/foods\almonds.jpg	1	1	1	almonds	1	L	8	0	0	0		0	0	62.9865493999678	63.0865573999472
13297	0.0999867999926209	54	satiated	stimuli/non_foods\non-food_inanimate_bucket.jpg	1	1	1	non-food_inanimate_bucket	0	T	14	0	165	0		0	0	63.136567199952	63.2365539999446
13334.5	0.099987699999474	55	satiated	stimuli/non_foods\non-food_inanimate_short_sleeved_shirt.jpg	1	1	1	non-food_inanimate_short_sleeved_shirt	0	M	9	0	207	0		0	0	63.286566899973	63.3865545999724
13372	0.0999845999758691	56	satiated	stimuli/non_foods\non-food_inanimate_towel.jpg	1	1	1	non-food_inanimate_towel	0	K	7	0	221	0		0	0	63.4365675000008	63.5365520999767
13409.5	0.0999844000325538	57	satiated	stimuli/foods\stew_with_potatoes_and_carrots.jpg	1	1	1	stew_with_potatoes_and_carrots	1	B	0	0	271	0		0	0	63.5865673999651	63.6865517999977
13447	0.0999774999800138	58	satiated	stimuli/non_foods\non-food_animate_german_shepherd.jpg	1	1	1	non-food_animate_german_shepherd	0	X	17	0	114	0		0	0	63.7365731999744	63.8365506999544
13484.5	0.0999916999717243	59	satiated	stimuli/non_foods\non-food_inanimate_alarm_clock.jpg	1	1	1	non-food_inanimate_alarm_clock	0	S	13	0	158	0		0	0	63.8865553999785	63.9865470999503
13522	0.100008799985517	60	satiated	stimuli/non_foods\non-food_animate_frog.jpg	1	1	1	non-food_animate_frog	0	L	8	0	113	0		0	0	64.0365354999667	64.1365442999522
13559.5	0.0999681000248529	61	satiated	stimuli/foods\gnocchi.jpg	1	1	1	gnocchi	1	C	1	0	58	0		0	0	64.1865637999726	64.2865318999975
13597	0.0999882000032812	62	satiated	stimuli/foods\spring_onions.jpg	1	1	1	spring_onions	1	V	15	0	269	0		0	0	64.3365573999472	64.4365455999505
13634.5	0.0999895000131801	63	satiated	stimuli/non_foods\non-food_animate_pigeon.jpg	1	1	1	non-food_animate_pigeon	0	J	6	0	136	0		0	0	64.4865570999682	64.5865465999814
13672	0.0999875999987125	64	satiated	stimuli/foods\spinach.jpg	1	1	1	spinach	1	B	0	0	268	0		0	0	64.6365558999823	64.7365434999811
13709.5	0.0999616999761201	65	satiated	stimuli/foods\mushroom.jpg	1	1	1	mushroom	1	M	9	0	85	0		0	0	64.7865823999746	64.8865440999507
13747	0.100004300009459	66	satiated	stimuli/non_foods\non-food_animate_horse.jpg	1	1	1	non-food_animate_horse	0	J	6	0	119	0		0	0	64.9365619999589	65.0365662999684
13784.5	0.0999853999819607	67	satiated	stimuli/foods\tomato.jpg	1	1	1	tomato	1	L	8	0	276	0		0	0	65.0865543999826	65.1865397999645
13822	0.100013999966905	68	satiated	stimuli/non_foods\non-food_animate_cat.jpg	1	1	1	non-food_animate_cat	0	F	3	0	98	0		0	0	65.236528199981	65.3365421999479
13859.5	0.0999843000317924	69	satiated	stimuli/non_foods\non-food_animate_dachshund.jpg	1	1	1	non-food_animate_dachshund	0	P	11	0	104	0		0	0	65.3865527999587	65.4865370999905
13897	0.0999853999819607	70	satiated	stimuli/non_foods\non-food_inanimate_nest.jpg	1	1	1	non-food_inanimate_nest	0	D	2	0	196	0		0	0	65.5365503999637	65.6365357999457
13934.5	0.0999729000031948	71	satiated	stimuli/foods\watermelon.jpg	1	1	1	watermelon	1	L	8	0	279	0		0	0	65.6865494999802	65.7865223999834
13972	0.0999832000234164	72	satiated	stimuli/non_foods\non-food_inanimate_waterlily.jpg	1	1	1	non-food_inanimate_waterlily	0	F	3	0	226	0		0	0	65.8365508999559	65.9365340999793
14009.5	0.0999613999738358	73	satiated	stimuli/foods\artichoke.jpg	1	1	1	artichoke	1	W	16	0	3	0		0	0	65.98655099998	66.0865123999538
14047	0.0999861000454985	74	satiated	stimuli/foods\grapes.jpg	1	1	1	grapes	1	Z	18	0	60	0		0	0	66.1365435999469	66.2365296999924
14084.5	0.099982000014279	75	satiated	stimuli/foods\oyster.jpg	1	1	1	oyster	1	T	14	0	233	0		0	0	66.2865418999572	66.3865238999715
14122	0.0999902000185102	76	satiated	stimuli/foods\smoked_ham.jpg	1	1	1	smoked_ham	1	K	7	0	266	0		0	0	66.4365472999634	66.5365374999819
14159.5	0.0999592000152916	77	satiated	stimuli/foods\beetroots.jpg	1	1	1	beetroots	1	L	8	0	10	0		0	0	66.5865667999606	66.6865259999759
14197	0.0999864999903366	78	satiated	stimuli/foods\chocolate_bar.jpg	1	1	1	chocolate_bar	1	Z	18	0	26	0		0	0	66.7365428999765	66.8365293999668
14234.5	0.0999869999941438	79	satiated	stimuli/foods\honey.jpg	1	1	1	honey	1	L	8	0	66	0		0	0	66.8865411999868	66.986528199981
14272	0.0999852999811992	80	satiated	stimuli/non_foods\non-food_animate_Causasian_man.jpg	1	1	1	non-food_animate_Causasian_man	0	J	6	0	89	0		0	0	67.0365385999903	67.1365238999715
14309.5	0.0999900000169873	81	satiated	stimuli/foods\chestnut.jpg	1	1	1	chestnut	1	R	12	0	24	0		0	0	67.1865382999531	67.2865282999701
14347	0.0999837999697775	82	satiated	stimuli/foods\fried_zucchini.jpg	1	1	1	fried_zucchini	1	P	11	0	51	0		0	0	67.3365381999756	67.4365219999454
14384.5	0.0999901999603026	83	satiated	stimuli/foods\lime.jpg	1	1	1	lime	1	J	6	0	76	0		0	0	67.4865370999905	67.5865272999508
14422	0.099969900038559	84	satiated	stimuli/foods\kiwi.jpg	1	1	1	kiwi	1	W	16	0	69	1	a	0	0	67.6365524999565	67.736522399995
14459.5	0.100009600049816	85	satiated	stimuli/foods\capsicum.jpg	1	1	1	capsicum	1	K	7	0	18	0		0	0	67.7865102999494	67.8865198999993
14497	0.0999904000200331	86	satiated	stimuli/non_foods\non-food_animate_young_girl.jpg	1	1	1	non-food_animate_young_girl	0	C	1	0	157	0		0	0	67.9365316999611	68.0365220999811
14534.5	0.0999862999888137	87	satiated	stimuli/non_foods\non-food_animate_skunk.jpg	1	1	1	non-food_animate_skunk	0	D	2	0	147	0		0	0	68.0865341000026	68.1865203999914
14572	0.0999929000390694	88	satiated	stimuli/non_foods\non-food_inanimate_socks.jpg	1	1	1	non-food_inanimate_socks	0	F	3	0	211	0		0	0	68.2365159999463	68.3365088999853
14609.5	0.0999619999784045	89	satiated	stimuli/foods\brie.jpg	1	1	1	brie	1	R	12	0	12	0		0	0	68.3865492999903	68.4865112999687
14647	0.099994299991522	90	satiated	stimuli/foods\potatoes.jpg	1	1	1	potatoes	1	X	17	0	248	0		0	0	68.5365147999837	68.6365090999752
14684.5	0.0999825000180863	91	satiated	stimuli/foods\lollies.jpg	1	1	1	lollies	1	S	13	0	78	0		0	0	68.686532999971	68.786515499989
14722	0.0999840999720618	92	satiated	stimuli/foods\wafer.jpg	1	1	1	wafer	1	N	10	0	277	0		0	0	68.8365313999821	68.9365154999541
14759.5	0.0999836000264622	93	satiated	stimuli/non_foods\non-food_animate_lizard.jpg	1	1	1	non-food_animate_lizard	0	J	6	0	126	0		0	0	68.9865261999657	69.0865097999922
14797	0.099991700029932	94	satiated	stimuli/non_foods\non-food_inanimate_toilet.jpg	1	1	1	non-food_inanimate_toilet	0	H	5	0	220	0		0	0	69.1365224999608	69.2365141999908
14834.5	0.0999826000188477	95	satiated	stimuli/foods\risotto_with_peas_and_asparagus_tips.jpg	1	1	1	risotto_with_peas_and_asparagus_tips	1	D	2	0	259	0		0	0	69.2865258999518	69.3865084999707
14872	0.099975400022231	96	satiated	stimuli/non_foods\non-food_animate_mammoth.jpg	1	1	1	non-food_animate_mammoth	0	V	15	0	128	0		0	0	69.4365324999671	69.5365078999894
14909.5	0.0999875999987125	97	satiated	stimuli/foods\chocolate_pralines.jpg	1	1	1	chocolate_pralines	1	K	7	0	28	0		0	0	69.5865220999694	69.6865096999682
14947	0.100000699982047	98	satiated	stimuli/foods\banana.jpg	1	1	1	banana	1	O	22	1	9	0		0	0	69.7365069999942	69.8365076999762
14984.5	0.0999920999747701	99	satiated	stimuli/foods\toasted_bread_with_tomatoes.jpg	1	1	1	toasted_bread_with_tomatoes	1	W	16	0	275	0		0	0	69.8865090999752	69.98650119995
15022	0.0999737000092864	100	satiated	stimuli/foods\coconut.jpg	1	1	1	coconut	1	M	9	0	33	0		0	0	70.0365159999928	70.1364897000021
15059.5	0.100010499998461	101	satiated	stimuli/foods\lemon_meringue_pie.jpg	1	1	1	lemon_meringue_pie	1	L	8	0	73	0		0	0	70.1864928999566	70.2865033999551
15097	0.0999857999850065	102	satiated	stimuli/foods\cabbage.jpg	1	1	1	cabbage	1	S	13	0	16	0		0	0	70.3365171999903	70.4365029999753
15134.5	0.0999916999717243	103	satiated	stimuli/non_foods\non-food_animate_millipede.jpg	1	1	1	non-food_animate_millipede	0	X	17	0	129	0		0	0	70.4865128999809	70.5865045999526
15172	0.0999875999987125	104	satiated	stimuli/non_foods\non-food_animate_yellow_bug.jpg	1	1	1	non-food_animate_yellow_bug	0	J	6	0	155	0		0	0	70.6365134999505	70.7365010999492
15209.5	0.0999909000238404	105	satiated	stimuli/non_foods\non-food_animate_baby_crawling.jpg	1	1	1	non-food_animate_baby_crawling	0	R	12	0	92	0		0	0	70.7865044999635	70.8864953999873
15247	0.0999854999827221	106	satiated	stimuli/non_foods\non-food_animate_grasshopper.jpg	1	1	1	non-food_animate_grasshopper	0	G	4	0	117	0		0	0	70.9365137999994	71.0364992999821
15284.5	0.0999925999785773	107	satiated	stimuli/foods\asparagus.jpg	1	1	1	asparagus	1	J	6	0	4	0		0	0	71.0865082999808	71.1865008999594
15322	0.0999733000062406	108	satiated	stimuli/foods\pomegranate.jpg	1	1	1	pomegranate	1	Z	18	0	244	0		0	0	71.2365216999897	71.3364949999959
15359.5	0.0999861999880522	109	satiated	stimuli/foods\strawberry.jpg	1	1	1	strawberry	1	S	13	0	272	0		0	0	71.3865075999638	71.4864937999519
15397	0.0999878000002354	110	satiated	stimuli/non_foods\non-food_inanimate_cupboard.jpg	1	1	1	non-food_inanimate_cupboard	0	N	10	0	177	0		0	0	71.5365103999502	71.6364981999504
15434.5	0.100004100007936	111	satiated	stimuli/foods\carrot.jpg	1	1	1	carrot	1	Z	18	0	19	0		0	0	71.6864805999794	71.7864846999873
15472	0.0999821000150405	112	satiated	stimuli/non_foods\non-food_inanimate_buds.jpg	1	1	1	non-food_inanimate_buds	0	G	4	0	166	0		0	0	71.8365004999796	71.9364825999946
15509.5	0.0999898000154644	113	satiated	stimuli/non_foods\non-food_inanimate_pine_cone.jpg	1	1	1	non-food_inanimate_pine_cone	0	H	5	0	200	0		0	0	71.986492899945	72.0864826999605
15547	0.0999792999937199	114	satiated	stimuli/non_foods\non-food_inanimate_guitar.jpg	1	1	1	non-food_inanimate_guitar	0	X	17	0	185	0		0	0	72.1365030999877	72.2364823999815
15584.5	0.0999794999952428	115	satiated	stimuli/foods\mortadella.jpg	1	1	1	mortadella	1	J	6	0	83	0		0	0	72.2865019000019	72.3864813999971
15622	0.0999733000062406	116	satiated	stimuli/non_foods\non-food_animate_ram.jpg	1	1	1	non-food_animate_ram	0	H	5	0	140	0		0	0	72.4365036999807	72.5364769999869
15659.5	0.100001199985854	117	satiated	stimuli/foods\red_beans.jpg	1	1	1	red_beans	1	F	3	0	255	0		0	0	72.5865024999948	72.6865036999807
15697	0.099985699984245	118	satiated	stimuli/foods\grapefruits.jpg	1	1	1	grapefruits	1	R	12	0	59	0		0	0	72.7365004000021	72.8364860999864
15734.5	0.0999869999941438	119	satiated	stimuli/non_foods\non-food_inanimate_folding_chair.jpg	1	1	1	non-food_inanimate_folding_chair	0	N	10	0	182	0		0	0	72.8864981999504	72.9864851999446
15772	0.0999975000158884	120	satiated	stimuli/non_foods\non-food_animate_donkey.jpg	1	1	1	non-food_animate_donkey	0	R	12	0	107	0		0	0	73.0364867999451	73.136484299961
15809.5	0.0999748999602161	121	satiated	stimuli/foods\clams.jpg	1	1	1	clams	1	S	13	0	32	0		0	0	73.1865059999982	73.2864808999584
15847	0.0999943999922834	122	satiated	stimuli/non_foods\non-food_animate_swan.jpg	1	1	1	non-food_animate_swan	0	L	8	0	152	0		0	0	73.3364861999871	73.4364805999794
15884.5	0.0999948999960907	123	satiated	stimuli/foods\pancakes.jpg	1	1	1	pancakes	1	G	4	0	234	0		0	0	73.4864897999796	73.5864846999757
15922	0.0999973999569193	124	satiated	stimuli/non_foods\non-food_inanimate_sun_flower.jpg	1	1	1	non-food_inanimate_sun_flower	0	W	16	0	216	0		0	0	73.6364813999971	73.7364787999541
15959.5	0.0999981000204571	125	satiated	stimuli/non_foods\non-food_inanimate_headphones.jpg	1	1	1	non-food_inanimate_headphones	0	A	19	1	188	0		0	0	73.7864819999668	73.8864800999872
15997	0.0999855000409298	126	satiated	stimuli/non_foods\non-food_animate_polar_bear.jpg	1	1	1	non-food_animate_polar_bear	0	M	9	0	137	0		0	0	73.9364923999528	74.0364778999938
16034.5	0.099967000016477	127	satiated	stimuli/foods\potato_and_green_bean_salad.jpg	1	1	1	potato_and_green_bean_salad	1	X	17	0	246	0		0	0	74.0865072999732	74.1864742999896
16072	0.0999816000112332	128	satiated	stimuli/foods\cinnamon_sroll.jpg	1	1	1	cinnamon_sroll	1	S	13	0	31	1	a	0.541835099982563	1	74.236491299991	74.3364729000023
16109.5	0.0999875999987125	129	satiated	stimuli/non_foods\non-food_inanimate_horn.jpg	1	1	1	non-food_inanimate_horn	0	H	5	0	190	0		0	0	74.386488899996	74.4864764999948
16147	0.0999911999679171	130	satiated	stimuli/foods\papaya.jpg	1	1	1	papaya	1	P	11	0	235	0		0	0	74.5364861999988	74.6364773999667
16184.5	0.100007099972572	131	satiated	stimuli/non_foods\non-food_inanimate_bush.jpg	1	1	1	non-food_inanimate_bush	0	W	16	0	167	0		0	0	74.6864600999979	74.7864671999705
16222	0.0999777999822982	132	satiated	stimuli/non_foods\non-food_inanimate_tulip.jpg	1	1	1	non-food_inanimate_tulip	0	N	10	0	224	0		0	0	74.8364835999673	74.9364613999496
16259.5	0.0999912000261247	133	satiated	stimuli/non_foods\non-food_animate_owl.jpg	1	1	1	non-food_animate_owl	0	Z	18	0	132	0		0	0	74.9864728999673	75.0864640999935
16297	0.0999981000204571	134	satiated	stimuli/non_foods\non-food_inanimate_speakers.jpg	1	1	1	non-food_inanimate_speakers	0	W	16	0	212	0		0	0	75.1364716999815	75.2364698000019
16334.5	0.0999891000101343	135	satiated	stimuli/non_foods\non-food_inanimate_orchid.jpg	1	1	1	non-food_inanimate_orchid	0	X	17	0	198	0		0	0	75.2864724999527	75.3864615999628
16372	0.100004700012505	136	satiated	stimuli/non_foods\non-food_animate_seahorse.jpg	1	1	1	non-food_animate_seahorse	0	W	16	0	145	0		0	0	75.4364639999694	75.5364686999819
16409.5	0.0999512000125833	137	satiated	stimuli/foods\potato_chips.jpg	1	1	1	potato_chips	1	S	13	0	247	0		0	0	75.5864826999605	75.6864338999731
16447	0.0999882000032812	138	satiated	stimuli/non_foods\non-food_animate_seal.jpg	1	1	1	non-food_animate_seal	0	D	2	0	146	0		0	0	75.7364780999487	75.836466299952
16484.5	0.0999824999598786	139	satiated	stimuli/non_foods\non-food_animate_peacock.jpg	1	1	1	non-food_animate_peacock	0	F	3	0	134	0		0	0	75.8864814999979	75.9864639999578
17776.25	0.0999780999845825	140	satiated	stimuli/foods\cinnamon.jpg	1	2	1	cinnamon	1	N	10	0	30	0		0	0	81.0531151999603	81.1530932999449
17813.75	0.0999791999929585	141	satiated	stimuli/non_foods\non-food_inanimate_protractor.jpg	1	2	1	non-food_inanimate_protractor	0	M	9	0	201	0		0	0	81.2031109999516	81.3030901999446
17851.25	0.0999830000218935	142	satiated	stimuli/foods\cereal.jpg	1	2	1	cereal	1	F	3	0	22	0		0	0	81.3531083999551	81.453091399977
17888.75	0.0999843999743462	143	satiated	stimuli/non_foods\non-food_inanimate_rack.jpg	1	2	1	non-food_inanimate_rack	0	L	8	0	202	0		0	0	81.5031077999738	81.6030921999482
17926.25	0.0999807000043802	144	satiated	stimuli/non_foods\non-food_animate_tortoise.jpg	1	2	1	non-food_animate_tortoise	0	X	17	0	153	0		0	0	81.6531074999948	81.7530881999992
17963.75	0.0999906999641098	145	satiated	stimuli/foods\brussel_sprouts.jpg	1	2	1	brussel_sprouts	1	L	8	0	15	0		0	0	81.8031106999842	81.9031013999484
18001.25	0.0999842000310309	146	satiated	stimuli/non_foods\non-food_animate_baby_sitting.jpg	1	2	1	non-food_animate_baby_sitting	0	V	15	0	93	0		0	0	81.9531031999504	82.0530873999815
18038.75	0.0999884000048041	147	satiated	stimuli/foods\pear.jpg	1	2	1	pear	1	X	17	0	239	0		0	0	82.1031006999547	82.2030890999595
18076.25	0.0999875999987125	148	satiated	stimuli/foods\taco.jpg	1	2	1	taco	1	J	6	0	274	0		0	0	82.2530976999551	82.3530852999538
18113.75	0.0999872000538744	149	satiated	stimuli/non_foods\non-food_animate_dragonfly.jpg	1	2	1	non-food_animate_dragonfly	0	Z	18	0	108	0		0	0	82.4031165999477	82.5031038000016
18151.25	0.0999642999959178	150	satiated	stimuli/non_foods\non-food_animate_monkey.jpg	1	2	1	non-food_animate_monkey	0	N	10	0	130	0		0	0	82.5531191999908	82.6530834999867
18188.75	0.099983100022655	151	satiated	stimuli/foods\cream_donuts.jpg	1	2	1	cream_donuts	1	S	13	0	39	0		0	0	82.7030993999797	82.8030825000023
18226.25	0.0999882000032812	152	satiated	stimuli/non_foods\non-food_animate_cheetah.jpg	1	2	1	non-food_animate_cheetah	0	L	8	0	100	0		0	0	82.853093099955	82.9530812999583
18263.75	0.0999842999735847	153	satiated	stimuli/non_foods\non-food_inanimate_bowling_ball.jpg	1	2	1	non-food_inanimate_bowling_ball	0	X	17	0	162	0		0	0	83.0030947999912	83.1030790999648
18301.25	0.0999879000009969	154	satiated	stimuli/foods\steak.jpg	1	2	1	steak	1	D	2	0	270	0		0	0	83.153090399981	83.253078299982
18338.75	0.100017199991271	155	satiated	stimuli/non_foods\non-food_inanimate_shell.jpg	1	2	1	non-food_inanimate_shell	0	M	9	0	206	0		0	0	83.3030921999598	83.4031093999511
18376.25	0.0999908999656327	156	satiated	stimuli/non_foods\non-food_inanimate_chandelier.jpg	1	2	1	non-food_inanimate_chandelier	0	F	3	0	173	0		0	0	83.4530780999921	83.5530689999578
18413.75	0.099972500000149	157	satiated	stimuli/foods\ice_cream.jpg	1	2	1	ice_cream	1	S	13	0	68	0		0	0	83.6030954999733	83.7030679999734
18451.25	0.0999834999674931	158	satiated	stimuli/non_foods\non-food_inanimate_watering_can.jpg	1	2	1	non-food_inanimate_watering_can	0	L	8	0	225	0		0	0	83.7530795999919	83.8530630999594
18488.75	0.0999889999511652	159	satiated	stimuli/foods\baked_cod_with_carrots_and_green_beans.jpg	1	2	1	baked_cod_with_carrots_and_green_beans	1	H	5	0	7	0		0	0	83.9030777000007	84.0030666999519
18526.25	0.0999868999933824	160	satiated	stimuli/non_foods\non-food_animate_cow.jpg	1	2	1	non-food_animate_cow	0	R	12	0	103	0		0	0	84.0530776999658	84.1530645999592
18563.75	0.0999804000020958	161	satiated	stimuli/foods\prawn.jpg	1	2	1	prawn	1	W	16	0	249	0		0	0	84.2030929999892	84.3030733999913
18601.25	0.0999491999973543	162	satiated	stimuli/foods\raw_ham.jpg	1	2	1	raw_ham	1	I	21	1	253	0		0	0	84.3530970999855	84.4530462999828
18638.75	0.0999863999895751	163	satiated	stimuli/foods\lemon.jpg	1	2	1	lemon	1	P	11	0	72	0		0	0	84.5030828999588	84.6030692999484
18676.25	0.0999846999766305	164	satiated	stimuli/foods\frankfurter_and_provolone_salad.jpg	1	2	1	frankfurter_and_provolone_salad	1	K	7	0	49	0		0	0	84.6530845999951	84.7530692999717
18713.75	0.0999851999804378	165	satiated	stimuli/foods\fennel.jpg	1	2	1	fennel	1	R	12	0	47	0		0	0	84.8030809999909	84.9030661999714
18751.25	0.0999872000538744	166	satiated	stimuli/non_foods\non-food_inanimate_skirt.jpg	1	2	1	non-food_inanimate_skirt	0	S	13	0	209	0		0	0	84.9530799999484	85.0530672000023
18788.75	0.0999701000400819	167	satiated	stimuli/non_foods\non-food_animate_snail.jpg	1	2	1	non-food_animate_snail	0	X	17	0	149	0		0	0	85.1030778999557	85.2030479999958
18826.25	0.0999738999526016	168	satiated	stimuli/foods\blackberry.jpg	1	2	1	blackberry	1	K	7	0	11	0		0	0	85.2530798999942	85.3530537999468
18863.75	0.0999702999833971	169	satiated	stimuli/non_foods\non-food_inanimate_leaf.jpg	1	2	1	non-food_inanimate_leaf	0	F	3	0	192	0		0	0	85.4030856000027	85.5030558999861
18901.25	0.0999906999641098	170	satiated	stimuli/foods\garlic.jpg	1	2	1	garlic	1	N	10	0	56	0		0	0	85.5530654999893	85.6530561999534
18938.75	0.0999970000120811	171	satiated	stimuli/non_foods\non-food_animate_sea_lion.jpg	1	2	1	non-food_animate_sea_lion	0	D	2	0	143	0		0	0	85.7030671999673	85.8030641999794
18976.25	0.0999817000119947	172	satiated	stimuli/non_foods\non-food_animate_elephant.jpg	1	2	1	non-food_animate_elephant	0	S	13	0	111	0		0	0	85.8530780999572	85.9530597999692
19013.75	0.0999594000168145	173	satiated	stimuli/non_foods\non-food_inanimate_fern.jpg	1	2	1	non-food_inanimate_fern	0	T	14	0	180	0		0	0	86.0030910999631	86.1030504999799
19051.25	0.0999824000173248	174	satiated	stimuli/non_foods\non-food_inanimate_soccer_ball.jpg	1	2	1	non-food_inanimate_soccer_ball	0	N	10	0	210	0		0	0	86.1530796999577	86.2530620999751
19088.75	0.0999884000048041	175	satiated	stimuli/foods\fruit_flan.jpg	1	2	1	fruit_flan	1	W	16	0	53	0		0	0	86.3030680999509	86.4030564999557
19126.25	0.0999894000124186	176	satiated	stimuli/foods\ginger_root.jpg	1	2	1	ginger_root	1	K	7	0	57	0		0	0	86.4530680999742	86.5530574999866
19163.75	0.0999838999705389	177	satiated	stimuli/non_foods\non-food_inanimate_table.jpg	1	2	1	non-food_inanimate_table	0	T	14	0	217	0		0	0	86.6030680999975	86.703051999968
19201.25	0.0999901999603026	178	satiated	stimuli/foods\salami.jpg	1	2	1	salami	1	G	4	0	263	0		0	0	86.753063799988	86.8530539999483
19238.75	0.0999690999742597	179	satiated	stimuli/non_foods\non-food_animate_porcupine.jpg	1	2	1	non-food_animate_porcupine	0	F	3	0	138	0		0	0	86.9030694999965	87.0030385999708
19276.25	0.100002199993469	180	satiated	stimuli/foods\donut.jpg	1	2	1	donut	1	P	11	0	44	0		0	0	87.0530669	87.1530690999934
19313.75	0.0999798999982886	181	satiated	stimuli/non_foods\non-food_inanimate_button.jpg	1	2	1	non-food_inanimate_button	0	S	13	0	168	0		0	0	87.2030692999833	87.3030491999816
19351.25	0.0999855999834836	182	satiated	stimuli/foods\baked_lamb_with_potatoes.jpg	1	2	1	baked_lamb_with_potatoes	1	B	0	0	8	0		0	0	87.3530633999617	87.4530489999452
19388.75	0.0999883000040427	183	satiated	stimuli/foods\mussels.jpg	1	2	1	mussels	1	D	2	0	86	0		0	0	87.5030608999659	87.60304919997
19426.25	0.099982799962163	184	satiated	stimuli/foods\oven-roasted_tomatoes.jpg	1	2	1	oven-roasted_tomatoes	1	R	12	0	232	0		0	0	87.6530626000022	87.7530453999643
19463.75	0.0999588999547996	185	satiated	stimuli/non_foods\non-food_inanimate_grass.jpg	1	2	1	non-food_inanimate_grass	0	T	14	0	184	1	a	0	0	87.8030888999929	87.9030477999477
19501.25	0.0999721999978647	186	satiated	stimuli/non_foods\non-food_animate_eagle.jpg	1	2	1	non-food_animate_eagle	0	D	2	0	110	1	a	0	0	87.9530712999986	88.0530434999964
19538.75	0.0999859999865294	187	satiated	stimuli/foods\nectarine.jpg	1	2	1	nectarine	1	Z	18	0	87	0		0	0	88.1030564999674	88.2030424999539
19576.25	0.0999852999811992	188	satiated	stimuli/foods\raisins.jpg	1	2	1	raisins	1	S	13	0	252	0		0	0	88.2530548999785	88.3530401999597
19613.75	0.0999840999720618	189	satiated	stimuli/non_foods\non-food_animate_giraffe.jpg	1	2	1	non-food_animate_giraffe	0	M	9	0	115	0		0	0	88.403059299977	88.5030433999491
19651.25	0.0999889000086114	190	satiated	stimuli/foods\pickles.jpg	1	2	1	pickles	1	S	13	0	242	0		0	0	88.553054399963	88.6530432999716
19688.75	0.0999887000070885	191	satiated	stimuli/non_foods\non-food_animate_gorilla.jpg	1	2	1	non-food_animate_gorilla	0	J	6	0	116	0		0	0	88.7030525999726	88.8030412999797
19726.25	0.0999830999644473	192	satiated	stimuli/non_foods\non-food_inanimate_construction_helment.jpg	1	2	1	non-food_inanimate_construction_helment	0	V	15	0	175	0		0	0	88.8530526999966	88.9530357999611
19763.75	0.09996790002333	193	satiated	stimuli/non_foods\non-food_animate_bat.jpg	1	2	1	non-food_animate_bat	0	R	12	0	94	0		0	0	89.0030609999667	89.10302889999
19801.25	0.0999838999705389	194	satiated	stimuli/foods\apple.jpg	1	2	1	apple	1	H	5	0	1	0		0	0	89.1530533999903	89.2530372999609
19838.75	0.0999510000110604	195	satiated	stimuli/non_foods\non-food_animate_dolphin.jpg	1	2	1	non-food_animate_dolphin	0	W	16	0	106	0		0	0	89.3030524999485	89.4030034999596
19876.25	0.100002499995753	196	satiated	stimuli/non_foods\non-food_inanimate_bed.jpg	1	2	1	non-food_inanimate_bed	0	F	3	0	160	0		0	0	89.4530479999958	89.5530504999915
19913.75	0.0999642999959178	197	satiated	stimuli/non_foods\non-food_inanimate_chair.jpg	1	2	1	non-food_inanimate_chair	0	D	2	0	172	0		0	0	89.6030675999937	89.7030318999896
19951.25	0.099996899953112	198	satiated	stimuli/non_foods\non-food_inanimate_jeans.jpg	1	2	1	non-food_inanimate_jeans	0	C	1	0	191	0		0	0	89.753034399997	89.8530312999501
19988.75	0.0999855999834836	199	satiated	stimuli/foods\swordfish.jpg	1	2	1	swordfish	1	T	14	0	273	0		0	0	89.9030363999773	90.0030219999608
20026.25	0.0999844000325538	200	satiated	stimuli/non_foods\non-food_animate_parrot.jpg	1	2	1	non-food_animate_parrot	0	G	4	0	133	0		0	0	90.0530389999622	90.1530233999947
20063.75	0.0999911999679171	201	satiated	stimuli/foods\oregano.jpg	1	2	1	oregano	1	C	1	0	231	0		0	0	90.2030162999872	90.3030074999551
20101.25	0.0999866999918595	202	satiated	stimuli/foods\pineapple.jpg	1	2	1	pineapple	1	N	10	0	243	0		0	0	90.3530414999695	90.4530281999614
20138.75	0.0999883000040427	203	satiated	stimuli/non_foods\non-food_inanimate_skateboard.jpg	1	2	1	non-food_inanimate_skateboard	0	L	8	0	208	0		0	0	90.503038899973	90.6030271999771
20176.25	0.0999864999903366	204	satiated	stimuli/non_foods\non-food_inanimate_canoe.jpg	1	2	1	non-food_inanimate_canoe	0	E	20	1	170	0		0	0	90.6530379999895	90.7530244999798
20213.75	0.0999835999682546	205	satiated	stimuli/non_foods\non-food_animate_sea_turtle.jpg	1	2	1	non-food_animate_sea_turtle	0	M	9	0	144	0		0	0	90.803041599982	90.9030251999502
20251.25	0.0999870999949053	206	satiated	stimuli/non_foods\non-food_animate_killer_whale.jpg	1	2	1	non-food_animate_killer_whale	0	R	12	0	123	0		0	0	90.9530362999649	91.0530233999598
20288.75	0.0999866999918595	207	satiated	stimuli/foods\salmon.jpg	1	2	1	salmon	1	J	6	0	264	1	a	0.443243199959397	1	91.1030407999642	91.2030274999561
20326.25	0.100013199960813	208	satiated	stimuli/foods\hotdog.jpg	1	2	1	hotdog	1	L	8	0	67	0		0	0	91.2530340999947	91.3530472999555
20363.75	0.0999730000039563	209	satiated	stimuli/foods\mango.jpg	1	2	1	mango	1	K	7	0	80	0		0	0	91.4030590999755	91.5030320999795
20401.25	0.0999866999918595	210	satiated	stimuli/non_foods\non-food_animate_bee.jpg	1	2	1	non-food_animate_bee	0	C	1	0	95	0		0	0	91.5530345999869	91.6530212999787
20438.75	0.0999838999705389	211	satiated	stimuli/non_foods\non-food_inanimate_tree.jpg	1	2	1	non-food_inanimate_tree	0	R	12	0	223	0		0	0	91.7030322999926	91.8030161999632
20476.25	0.0999892000108957	212	satiated	stimuli/non_foods\non-food_inanimate_fire_extinguisher.jpg	1	2	1	non-food_inanimate_fire_extinguisher	0	H	5	0	181	0		0	0	91.8530312999501	91.953020499961
20513.75	0.0999829000211321	213	satiated	stimuli/foods\linguine_with_clams.jpg	1	2	1	linguine_with_clams	1	X	17	0	77	0		0	0	92.0030315999757	92.1030144999968
20551.25	0.099985699984245	214	satiated	stimuli/foods\rice_cake.jpg	1	2	1	rice_cake	1	J	6	0	258	0		0	0	92.1530266999616	92.2530123999459
20588.75	0.0999868999933824	215	satiated	stimuli/non_foods\non-food_animate_chicken.jpg	1	2	1	non-food_animate_chicken	0	R	12	0	101	0		0	0	92.3030284999986	92.403015399992
20626.25	0.099970800045412	216	satiated	stimuli/foods\fries.jpg	1	2	1	fries	1	L	8	0	52	0		0	0	92.4530418999493	92.5530126999947
20663.75	0.0999893000116572	217	satiated	stimuli/foods\onion.jpg	1	2	1	onion	1	P	11	0	229	0		0	0	92.6030272999778	92.7030165999895
20701.25	0.0999832999659702	218	satiated	stimuli/non_foods\non-food_animate_hummingbird.jpg	1	2	1	non-food_animate_hummingbird	0	N	10	0	120	0		0	0	92.7530274000019	92.8530106999679
20738.75	0.0999825000180863	219	satiated	stimuli/non_foods\non-food_inanimate_cactus_pot_plant.jpg	1	2	1	non-food_inanimate_cactus_pot_plant	0	X	17	0	169	0		0	0	92.9030209999764	93.0030034999945
20776.25	0.0999984000227414	220	satiated	stimuli/non_foods\non-food_inanimate_padlock.jpg	1	2	1	non-food_inanimate_padlock	0	Z	18	0	199	0		0	0	93.0530218999484	93.1530202999711
20813.75	0.0999581000069156	221	satiated	stimuli/foods\waffle.jpg	1	2	1	waffle	1	X	17	0	278	0		0	0	93.2030495999497	93.3030076999567
20851.25	0.0999859999865294	222	satiated	stimuli/foods\radish.jpg	1	2	1	radish	1	K	7	0	251	0		0	0	93.3530202999827	93.4530062999693
20888.75	0.0999859000439756	223	satiated	stimuli/non_foods\non-food_animate_young_boy.jpg	1	2	1	non-food_animate_young_boy	0	B	0	0	156	0		0	0	93.5030205999501	93.6030064999941
20926.25	0.0999870999949053	224	satiated	stimuli/non_foods\non-food_inanimate_toy_airplane.jpg	1	2	1	non-food_inanimate_toy_airplane	0	X	17	0	222	0		0	0	93.6530178999528	93.7530049999477
20963.75	0.0999868999933824	225	satiated	stimuli/foods\minestrone_soup.jpg	1	2	1	minestrone_soup	1	W	16	0	82	0		0	0	93.8030162999639	93.9030031999573
21001.25	0.0999866999918595	226	satiated	stimuli/non_foods\non-food_inanimate_broom.jpg	1	2	1	non-food_inanimate_broom	0	B	0	0	164	0		0	0	93.9530162999872	94.0530029999791
21038.75	0.0999873999971896	227	satiated	stimuli/foods\pepperoni_pizza.jpg	1	2	1	pepperoni_pizza	1	W	16	0	241	0		0	0	94.103013999993	94.2030013999902
21076.25	0.099949800001923	228	satiated	stimuli/foods\rice.jpg	1	2	1	rice	1	X	17	0	257	0		0	0	94.2530506999465	94.3530004999484
21113.75	0.0999864999903366	229	satiated	stimuli/foods\museli_bars.jpg	1	2	1	museli_bars	1	B	0	0	84	0		0	0	94.4030137999798	94.5030002999702
21151.25	0.0999892000108957	230	satiated	stimuli/non_foods\non-food_animate_raccoon.jpg	1	2	1	non-food_animate_raccoon	0	F	3	0	139	0		0	0	94.5530109999818	94.6530001999927
21188.75	0.0999768000328913	231	satiated	stimuli/foods\raw_sausage.jpg	1	2	1	raw_sausage	1	H	5	0	254	0		0	0	94.7030130999628	94.8029898999957
21226.25	0.0999729000031948	232	satiated	stimuli/non_foods\non-food_inanimate_moss.jpg	1	2	1	non-food_inanimate_moss	0	S	13	0	194	0		0	0	94.8530176999629	94.9529905999661
21263.75	0.0999789999914356	233	satiated	stimuli/non_foods\non-food_inanimate_couch.jpg	1	2	1	non-food_inanimate_couch	0	Z	18	0	176	0		0	0	95.0030079999706	95.102986999962
21301.25	0.0999854999827221	234	satiated	stimuli/non_foods\non-food_inanimate_bicycle.jpg	1	2	1	non-food_inanimate_bicycle	0	H	5	0	161	0		0	0	95.1530003999942	95.2529858999769
21338.75	0.0999921000329778	235	satiated	stimuli/non_foods\non-food_animate_student_female.jpg	1	2	1	non-food_animate_student_female	0	Z	18	0	151	0		0	0	95.3029925999581	95.4029846999911
21376.25	0.0999840999720618	236	satiated	stimuli/non_foods\non-food_inanimate_teddy_bear.jpg	1	2	1	non-food_inanimate_teddy_bear	0	W	16	0	218	0		0	0	95.4530000999803	95.5529841999523
21413.75	0.0999706999864429	237	satiated	stimuli/non_foods\non-food_inanimate_gloves.jpg	1	2	1	non-food_inanimate_gloves	0	G	4	0	183	0		0	0	95.6029950999655	95.7029657999519
21451.25	0.100013299961574	238	satiated	stimuli/foods\hazelnuts.jpg	1	2	1	hazelnuts	1	W	16	0	65	0		0	0	95.7529791999841	95.8529924999457
21488.75	0.0999874999979511	239	satiated	stimuli/non_foods\non-food_inanimate_clover.jpg	1	2	1	non-food_inanimate_clover	0	R	12	0	174	0		0	0	95.9030050999718	96.0029925999697
21526.25	0.0999771999777295	240	satiated	stimuli/foods\pumpkin.jpg	1	2	1	pumpkin	1	L	8	0	250	0		0	0	96.0530110999825	96.1529882999603
21563.75	0.0999921999755315	241	satiated	stimuli/foods\peas.jpg	1	2	1	peas	1	V	15	0	240	0		0	0	96.2030009999871	96.3029931999627
21601.25	0.0999826000188477	242	satiated	stimuli/foods\cannoli.jpg	1	2	1	cannoli	1	H	5	0	17	0		0	0	96.3530009999522	96.452983599971
21638.75	0.09999139996944	243	satiated	stimuli/non_foods\non-food_animate_fox.jpg	1	2	1	non-food_animate_fox	0	L	8	0	112	0		0	0	96.5029963999987	96.6029877999681
21676.25	0.0999899000162259	244	satiated	stimuli/non_foods\non-food_inanimate_wrench.jpg	1	2	1	non-food_inanimate_wrench	0	P	11	0	227	0		0	0	96.6530126999714	96.7530025999877
21713.75	0.0999620999791659	245	satiated	stimuli/foods\apricot.jpg	1	2	1	apricot	1	M	9	0	2	0		0	0	96.8030201999936	96.9029822999728
21751.25	0.0999874999979511	246	satiated	stimuli/foods\hamburger.jpg	1	2	1	hamburger	1	L	8	0	64	0		0	0	96.9529948999989	97.0529823999968
21788.75	0.0999852999811992	247	satiated	stimuli/foods\omelette.jpg	1	2	1	omelette	1	C	1	0	228	0		0	0	97.1029954999685	97.2029807999497
21826.25	0.0999844999751076	248	satiated	stimuli/foods\corncob.jpg	1	2	1	corncob	1	X	17	0	37	0		0	0	97.2529930999735	97.3529775999486
21863.75	0.0999749000184238	249	satiated	stimuli/foods\lettuce.jpg	1	2	1	lettuce	1	V	15	0	75	0		0	0	97.4030044999672	97.5029793999856
21901.25	0.0999880000017583	250	satiated	stimuli/foods\cucumber.jpg	1	2	1	cucumber	1	J	6	0	41	0		0	0	97.552990199998	97.6529781999998
21938.75	0.0999965000082739	251	satiated	stimuli/foods\peach.jpg	1	2	1	peach	1	B	0	0	238	0		0	0	97.7030011999886	97.8029976999969
21976.25	0.0999692999757826	252	satiated	stimuli/non_foods\non-food_inanimate_nailpolish.jpg	1	2	1	non-food_inanimate_nailpolish	0	M	9	0	195	0		0	0	97.8530049999827	97.9529742999584
22013.75	0.0999857999850065	253	satiated	stimuli/non_foods\non-food_animate_clown.jpg	1	2	1	non-food_animate_clown	0	T	14	0	102	0		0	0	98.0029880999937	98.1029738999787
22051.25	0.0999848999781534	254	satiated	stimuli/foods\savory_pie.jpg	1	2	1	savory_pie	1	L	8	0	265	0		0	0	98.1529905999778	98.2529754999559
22088.75	0.0999922000337392	255	satiated	stimuli/foods\bagel.jpg	1	2	1	bagel	1	T	14	0	6	0		0	0	98.3029850999592	98.4029772999929
22126.25	0.0999601999646984	256	satiated	stimuli/non_foods\non-food_animate_duck.jpg	1	2	1	non-food_animate_duck	0	G	4	0	109	0		0	0	98.4530159999849	98.5529761999496
22163.75	0.0999709999887273	257	satiated	stimuli/foods\lentils.jpg	1	2	1	lentils	1	C	1	0	74	0		0	0	98.6029983999906	98.7029693999793
22201.25	0.0999843000317924	258	satiated	stimuli/non_foods\non-food_inanimate_stapler.jpg	1	2	1	non-food_inanimate_stapler	0	R	12	0	213	0		0	0	98.7529831999564	98.8529674999882
22238.75	0.0999892000108957	259	satiated	stimuli/foods\cupcake.jpg	1	2	1	cupcake	1	X	17	0	42	0		0	0	98.9029820999713	99.0029712999822
22276.25	0.0999833999667317	260	satiated	stimuli/foods\fried_calamari.jpg	1	2	1	fried_calamari	1	D	2	0	50	0		0	0	99.0529815999907	99.1529649999575
22313.75	0.0999910999671556	261	satiated	stimuli/non_foods\non-food_animate_lion.jpg	1	2	1	non-food_animate_lion	0	H	5	0	125	0		0	0	99.202976999979	99.3029680999462
22351.25	0.0999941000482067	262	satiated	stimuli/non_foods\non-food_animate_woman.jpg	1	2	1	non-food_animate_woman	0	G	4	0	154	0		0	0	99.3529773999471	99.4529714999953
22388.75	0.0999869999941438	263	satiated	stimuli/non_foods\non-food_inanimate_lighter.jpg	1	2	1	non-food_inanimate_lighter	0	F	3	0	193	0		0	0	99.5029764999636	99.6029634999577
22426.25	0.0999910999671556	264	satiated	stimuli/non_foods\non-food_inanimate_drum_set.jpg	1	2	1	non-food_inanimate_drum_set	0	T	14	0	179	0		0	0	99.6529753999785	99.7529664999456
22463.75	0.0999888999504037	265	satiated	stimuli/non_foods\non-food_animate_runner.jpg	1	2	1	non-food_animate_runner	0	M	9	0	142	0		0	0	99.8029755000025	99.9029643999529
22501.25	0.0999883000040427	266	satiated	stimuli/foods\cooked_prawn.jpg	1	2	1	cooked_prawn	1	V	15	0	36	0		0	0	99.9529731999501	100.052961499954
22538.75	0.0999903000192717	267	satiated	stimuli/foods\rockmelon.jpg	1	2	1	rockmelon	1	F	3	0	262	1	a	0	0	100.102972299966	100.202962599986
22576.25	0.099968499969691	268	satiated	stimuli/foods\lamb_chops.jpg	1	2	1	lamb_chops	1	L	8	0	70	1	a	0	0	100.252993299975	100.352961799945
22613.75	0.0999894000124186	269	satiated	stimuli/non_foods\non-food_animate_deer.jpg	1	2	1	non-food_animate_deer	0	C	1	0	105	0		0	0	100.402956199949	100.502945599961
22651.25	0.100003400002606	270	satiated	stimuli/non_foods\non-food_inanimate_scissors.jpg	1	2	1	non-food_inanimate_scissors	0	Z	18	0	205	0		0	0	100.552953199949	100.652956599952
22688.75	0.0999883000040427	271	satiated	stimuli/foods\mandarin.jpg	1	2	1	mandarin	1	V	15	0	79	0		0	0	100.702967999969	100.802956299973
22726.25	0.0999892000108957	272	satiated	stimuli/foods\pork_and_rice.jpg	1	2	1	pork_and_rice	1	C	1	0	245	0		0	0	100.852967099985	100.952956299996
22763.75	0.099986000044737	273	satiated	stimuli/non_foods\non-food_inanimate_cap.jpg	1	2	1	non-food_inanimate_cap	0	B	0	0	171	0		0	0	101.002967299952	101.102953299996
22801.25	0.0999822999583557	274	satiated	stimuli/foods\cherry.jpg	1	2	1	cherry	1	Z	18	0	23	0		0	0	101.152969899995	101.252952199953
22838.75	0.0999896000139415	275	satiated	stimuli/non_foods\non-food_inanimate_desk.jpg	1	2	1	non-food_inanimate_desk	0	N	10	0	178	0		0	0	101.302964099974	101.402953699988
22876.25	0.0999849000363611	276	satiated	stimuli/foods\pasta_carbonara.jpg	1	2	1	pasta_carbonara	1	F	3	0	236	0		0	0	101.452965399949	101.552950299985
22913.75	0.0999904999625869	277	satiated	stimuli/foods\red_cabbage.jpg	1	2	1	red_cabbage	1	M	9	0	256	0		0	0	101.602961700002	101.702952199965
22951.25	0.0999870999949053	278	satiated	stimuli/non_foods\non-food_inanimate_hammer.jpg	1	2	1	non-food_inanimate_hammer	0	P	11	0	186	0		0	0	101.75296199997	101.852949099964
22988.75	0.100016299984418	279	satiated	stimuli/non_foods\non-food_animate_squirrel.jpg	1	2	1	non-food_animate_squirrel	0	B	0	0	150	0		0	0	101.902959099971	102.002975399955
23501.25	0.099976199970115	280	satiated	stimuli/non_foods\non-food_inanimate_sun_flower.jpg	1	3	1	non-food_inanimate_sun_flower	0	X	17	0	216	0		0	0	103.952956099994	104.052932299965
23538.75	0.099984000029508	281	satiated	stimuli/foods\blackberry.jpg	1	3	1	blackberry	1	Z	18	0	11	0		0	0	104.102947999956	104.202931999986
23576.25	0.0999831999652088	282	satiated	stimuli/non_foods\non-food_inanimate_construction_helment.jpg	1	3	1	non-food_inanimate_construction_helment	0	L	8	0	175	0		0	0	104.252949999995	104.35293319996
23613.75	0.0999811999499798	283	satiated	stimuli/foods\potato_chips.jpg	1	3	1	potato_chips	1	S	13	0	247	0		0	0	104.4029476	104.50292879995
23651.25	0.0999762000283226	284	satiated	stimuli/foods\cooked_ham.jpg	1	3	1	cooked_ham	1	L	8	0	35	0		0	0	104.552944999945	104.652921199973
23688.75	0.0999864999903366	285	satiated	stimuli/non_foods\non-food_inanimate_bicycle.jpg	1	3	1	non-food_inanimate_bicycle	0	V	15	0	161	0		0	0	104.702940899995	104.802927399985
23726.25	0.0999910000246018	286	satiated	stimuli/foods\grapes.jpg	1	3	1	grapes	1	W	16	0	60	0		0	0	104.852934699971	104.952925699996
23763.75	0.099990600021556	287	satiated	stimuli/non_foods\non-food_animate_student_female.jpg	1	3	1	non-food_animate_student_female	0	B	0	0	151	0		0	0	105.002936399949	105.102926999971
23801.25	0.0999885000055656	288	satiated	stimuli/foods\meatballs.jpg	1	3	1	meatballs	1	S	13	0	81	0		0	0	105.152928099968	105.252916599973
23838.75	0.0999407999916002	289	satiated	stimuli/foods\lollies.jpg	1	3	1	lollies	1	F	3	0	78	0		0	0	105.302982599998	105.40292339999
23876.25	0.0999827000196092	290	satiated	stimuli/non_foods\non-food_inanimate_hay.jpg	1	3	1	non-food_inanimate_hay	0	G	4	0	187	0		0	0	105.452939199982	105.552921900002
23913.75	0.1000015999889	291	satiated	stimuli/non_foods\non-food_animate_skunk.jpg	1	3	1	non-food_animate_skunk	0	Z	18	0	147	0		0	0	105.60292059998	105.702922199969
23951.25	0.099975099961739	292	satiated	stimuli/foods\brie.jpg	1	3	1	brie	1	R	12	0	12	0		0	0	105.75294179999	105.852916899952
23988.75	0.0999854000401683	293	satiated	stimuli/non_foods\non-food_animate_alligator.jpg	1	3	1	non-food_animate_alligator	0	P	11	0	90	0		0	0	105.90292709996	106.0029125
24026.25	0.0999882000032812	294	satiated	stimuli/non_foods\non-food_animate_woman.jpg	1	3	1	non-food_animate_woman	0	V	15	0	154	0		0	0	106.052922199946	106.152910399949
24063.75	0.0999846000340767	295	satiated	stimuli/foods\salmon.jpg	1	3	1	salmon	1	Z	18	0	264	0		0	0	106.202934599947	106.302919199981
24101.25	0.0999846999766305	296	satiated	stimuli/foods\chocolate_bar.jpg	1	3	1	chocolate_bar	1	V	15	0	26	0		0	0	106.352930299996	106.452914999973
24138.75	0.0999895000131801	297	satiated	stimuli/foods\asparagus.jpg	1	3	1	asparagus	1	G	4	0	4	0		0	0	106.502929499955	106.602918999968
24176.25	0.0999818999553099	298	satiated	stimuli/non_foods\non-food_inanimate_rack.jpg	1	3	1	non-food_inanimate_rack	0	P	11	0	202	0		0	0	106.652932099998	106.752913999953
24213.75	0.0999837999697775	299	satiated	stimuli/non_foods\non-food_animate_grasshopper.jpg	1	3	1	non-food_animate_grasshopper	0	W	16	0	117	0		0	0	106.802928699995	106.902912499965
24251.25	0.100006000022404	300	satiated	stimuli/foods\garlic.jpg	1	3	1	garlic	1	C	1	0	56	0		0	0	106.952928099956	107.052934099978
24288.75	0.0999485999927856	301	satiated	stimuli/foods\savory_pie.jpg	1	3	1	savory_pie	1	G	4	0	265	0		0	0	107.10296779999	107.202916399983
24326.25	0.0999858999857679	302	satiated	stimuli/non_foods\non-food_animate_seal.jpg	1	3	1	non-food_animate_seal	0	S	13	0	146	0		0	0	107.252926199988	107.352912099974
24363.75	0.0999850000371225	303	satiated	stimuli/foods\hazelnuts.jpg	1	3	1	hazelnuts	1	B	0	0	65	0		0	0	107.402925699949	107.502910699986
24401.25	0.0999861999880522	304	satiated	stimuli/non_foods\non-food_animate_sea_turtle.jpg	1	3	1	non-food_animate_sea_turtle	0	T	14	0	144	0		0	0	107.552924699965	107.652910899953
24438.75	0.0999884000048041	305	satiated	stimuli/non_foods\non-food_animate_rhino.jpg	1	3	1	non-food_animate_rhino	0	S	13	0	141	0		0	0	107.70292229997	107.802910699975
24476.25	0.0999850999796763	306	satiated	stimuli/non_foods\non-food_animate_lion.jpg	1	3	1	non-food_animate_lion	0	X	17	0	125	0		0	0	107.85292049998	107.952905599959
24513.75	0.0999864999903366	307	satiated	stimuli/foods\toasted_bread_with_tomatoes.jpg	1	3	1	toasted_bread_with_tomatoes	1	W	16	0	275	0		0	0	108.002920400002	108.102906899992
24551.25	0.0999744000146165	308	satiated	stimuli/foods\cinnamon_sroll.jpg	1	3	1	cinnamon_sroll	1	K	7	0	31	0		0	0	108.152933799953	108.252908199967
24588.75	0.0999822999583557	309	satiated	stimuli/foods\peas.jpg	1	3	1	peas	1	Z	18	0	240	0		0	0	108.302920499991	108.40290279995
24626.25	0.0999795999960043	310	satiated	stimuli/non_foods\non-food_inanimate_toilet.jpg	1	3	1	non-food_inanimate_toilet	0	T	14	0	220	0		0	0	108.452915499976	108.552895099972
24663.75	0.100014300027397	311	satiated	stimuli/non_foods\non-food_inanimate_nailpolish.jpg	1	3	1	non-food_inanimate_nailpolish	0	O	22	1	195	0		0	0	108.60291929997	108.702933599998
24701.25	0.100013900024351	312	satiated	stimuli/non_foods\non-food_animate_green_bug.jpg	1	3	1	non-food_animate_green_bug	0	H	5	0	118	0		0	0	108.752930599963	108.852944499988
24738.75	0.0999837999697775	313	satiated	stimuli/non_foods\non-food_animate_young_girl.jpg	1	3	1	non-food_animate_young_girl	0	M	9	0	157	0		0	0	108.90291579999	109.00289959996
24776.25	0.0999846000340767	314	satiated	stimuli/foods\bagel.jpg	1	3	1	bagel	1	C	1	0	6	1	a	0.541820099984761	1	109.05291509995	109.152899699984
24813.75	0.0999866000493057	315	satiated	stimuli/non_foods\non-food_animate_seahorse.jpg	1	3	1	non-food_animate_seahorse	0	P	11	0	145	0		0	0	109.202911399945	109.302897999994
24851.25	0.099981100007426	316	satiated	stimuli/foods\pasta_carbonara.jpg	1	3	1	pasta_carbonara	1	C	1	0	236	0		0	0	109.352913399984	109.452894499991
24888.75	0.0999740000115708	317	satiated	stimuli/non_foods\non-food_inanimate_leaf.jpg	1	3	1	non-food_inanimate_leaf	0	H	5	0	192	0		0	0	109.502906499954	109.602880499966
24926.25	0.0999863000470214	318	satiated	stimuli/foods\frankfurter_and_provolone_salad.jpg	1	3	1	frankfurter_and_provolone_salad	1	C	1	0	49	0		0	0	109.652910999954	109.752897300001
24963.75	0.0999821999575943	319	satiated	stimuli/foods\cabbage.jpg	1	3	1	cabbage	1	M	9	0	16	0		0	0	109.802912599989	109.902894799947
25001.25	0.0999894000124186	320	satiated	stimuli/foods\honey.jpg	1	3	1	honey	1	W	16	0	66	0		0	0	109.952907099971	110.052896499983
25038.75	0.0999835999682546	321	satiated	stimuli/foods\cereal.jpg	1	3	1	cereal	1	K	7	0	22	0		0	0	110.102906199987	110.202889799955
25076.25	0.100010200054385	322	satiated	stimuli/foods\cannoli.jpg	1	3	1	cannoli	1	D	2	0	17	0		0	0	110.252874699945	110.352884899999
25113.75	0.100006399967242	323	satiated	stimuli/foods\lasagna.jpg	1	3	1	lasagna	1	M	9	0	71	0		0	0	110.402883799979	110.502890199947
25151.25	0.0999939999892376	324	satiated	stimuli/foods\fruit_pie.jpg	1	3	1	fruit_pie	1	L	8	0	54	0		0	0	110.552916599961	110.652910599951
25188.75	0.0999771000351757	325	satiated	stimuli/foods\lime.jpg	1	3	1	lime	1	N	10	0	76	0		0	0	110.702913599962	110.802890699997
25226.25	0.0999821999575943	326	satiated	stimuli/foods\orange.jpg	1	3	1	orange	1	U	23	1	230	0		0	0	110.85290659999	110.952888799948
25263.75	0.100011700007599	327	satiated	stimuli/non_foods\non-food_animate_owl.jpg	1	3	1	non-food_animate_owl	0	P	11	0	132	0		0	0	111.002871099976	111.102882799983
25301.25	0.0999867999926209	328	satiated	stimuli/non_foods\non-food_animate_peacock.jpg	1	3	1	non-food_animate_peacock	0	D	2	0	134	0		0	0	111.152898499975	111.252885299968
25338.75	0.099987100053113	329	satiated	stimuli/foods\papaya.jpg	1	3	1	papaya	1	M	9	0	235	0		0	0	111.302899599948	111.402886700002
25376.25	0.0999853000394069	330	satiated	stimuli/foods\hamburger.jpg	1	3	1	hamburger	1	H	5	0	64	0		0	0	111.452897499956	111.552882799995
25413.75	0.0999924000352621	331	satiated	stimuli/foods\museli_bars.jpg	1	3	1	museli_bars	1	P	11	0	84	0		0	0	111.602895499964	111.702887899999
25451.25	0.0999760000267997	332	satiated	stimuli/non_foods\non-food_inanimate_fire_extinguisher.jpg	1	3	1	non-food_inanimate_fire_extinguisher	0	K	7	0	181	0		0	0	111.752916099969	111.852892099996
25488.75	0.100017899996601	333	satiated	stimuli/foods\almonds.jpg	1	3	1	almonds	1	B	0	0	0	0		0	0	111.902863099996	112.002880999993
25526.25	0.100002699997276	334	satiated	stimuli/foods\mushroom.jpg	1	3	1	mushroom	1	X	17	0	85	0		0	0	112.052877999959	112.152880699956
25563.75	0.099979099992197	335	satiated	stimuli/foods\nectarine.jpg	1	3	1	nectarine	1	P	11	0	87	0		0	0	112.202894099988	112.30287319998
25601.25	0.0999696000362746	336	satiated	stimuli/foods\spring_onions.jpg	1	3	1	spring_onions	1	X	17	0	269	0		0	0	112.352908299945	112.452877899981
25638.75	0.0999895000131801	337	satiated	stimuli/foods\raw_sausage.jpg	1	3	1	raw_sausage	1	R	12	0	254	0		0	0	112.502876199957	112.60286569997
25676.25	0.0999868999933824	338	satiated	stimuli/foods\artichoke.jpg	1	3	1	artichoke	1	M	9	0	3	0		0	0	112.652882799972	112.752869699965
25713.75	0.0999835999682546	339	satiated	stimuli/non_foods\non-food_inanimate_bowling_ball.jpg	1	3	1	non-food_inanimate_bowling_ball	0	S	13	0	162	0		0	0	112.802882899996	112.902866499964
25751.25	0.0999843999743462	340	satiated	stimuli/foods\cracker.jpg	1	3	1	cracker	1	X	17	0	38	0		0	0	112.952876599971	113.052860999946
25788.75	0.0999895000131801	341	satiated	stimuli/foods\baked_cod_with_carrots_and_green_beans.jpg	1	3	1	baked_cod_with_carrots_and_green_beans	1	V	15	0	7	0		0	0	113.102878699952	113.202868199965
25826.25	0.0999828999629244	342	satiated	stimuli/foods\watermelon.jpg	1	3	1	watermelon	1	C	1	0	279	0		0	0	113.2528819	113.352864799963
25863.75	0.0999895000131801	343	satiated	stimuli/non_foods\non-food_animate_deer.jpg	1	3	1	non-food_animate_deer	0	T	14	0	105	0		0	0	113.402872699953	113.502862199966
25901.25	0.0999247999861836	344	satiated	stimuli/foods\pineapple.jpg	1	3	1	pineapple	1	H	5	0	243	0		0	0	113.552935099986	113.652859899972
25938.75	0.0999858999857679	345	satiated	stimuli/non_foods\non-food_animate_elephant.jpg	1	3	1	non-food_animate_elephant	0	N	10	0	111	0		0	0	113.70287639997	113.802862299955
25976.25	0.0999913000268862	346	satiated	stimuli/non_foods\non-food_animate_penguin.jpg	1	3	1	non-food_animate_penguin	0	C	1	0	135	0		0	0	113.852871399955	113.952862699982
26013.75	0.099996300006751	347	satiated	stimuli/non_foods\non-food_inanimate_headphones.jpg	1	3	1	non-food_inanimate_headphones	0	L	8	0	188	0		0	0	114.002864099981	114.102860399988
26051.25	0.0999387999763712	348	satiated	stimuli/foods\fennel.jpg	1	3	1	fennel	1	P	11	0	47	0		0	0	114.152925000002	114.252863799979
26088.75	0.0999941999907605	349	satiated	stimuli/foods\pancakes.jpg	1	3	1	pancakes	1	G	4	0	234	0		0	0	114.302870699961	114.402864899952
26126.25	0.0999844999751076	350	satiated	stimuli/foods\fried_calamari.jpg	1	3	1	fried_calamari	1	P	11	0	50	0		0	0	114.452877099975	114.55286159995
26163.75	0.100004500010982	351	satiated	stimuli/foods\raw_ham.jpg	1	3	1	raw_ham	1	T	14	0	253	0		0	0	114.602857299964	114.702861799975
26201.25	0.100004200008698	352	satiated	stimuli/non_foods\non-food_inanimate_gloves.jpg	1	3	1	non-food_inanimate_gloves	0	W	16	0	183	0		0	0	114.752854799968	114.852858999977
26238.75	0.099987699999474	353	satiated	stimuli/foods\mortadella.jpg	1	3	1	mortadella	1	H	5	0	83	0		0	0	114.902872099949	115.002859799948
26276.25	0.0999927000375465	354	satiated	stimuli/non_foods\non-food_inanimate_table.jpg	1	3	1	non-food_inanimate_table	0	R	12	0	217	0		0	0	115.052869099949	115.152861799987
26313.75	0.0999947000527754	355	satiated	stimuli/foods\cherry.jpg	1	3	1	cherry	1	D	2	0	23	0		0	0	115.202873099945	115.302867799997
26351.25	0.099979099992197	356	satiated	stimuli/non_foods\non-food_inanimate_scissors.jpg	1	3	1	non-food_inanimate_scissors	0	J	6	0	205	0		0	0	115.352872899966	115.452851999959
26388.75	0.099983100022655	357	satiated	stimuli/non_foods\non-food_inanimate_tulip.jpg	1	3	1	non-food_inanimate_tulip	0	L	8	0	224	0		0	0	115.502868299955	115.602851399977
26426.25	0.0999817999545485	358	satiated	stimuli/foods\grilled_chicken_breast.jpg	1	3	1	grilled_chicken_breast	1	P	11	0	63	0		0	0	115.652870299993	115.752852099948
26463.75	0.0999821999575943	359	satiated	stimuli/foods\apricot.jpg	1	3	1	apricot	1	N	10	0	2	0		0	0	115.802867699997	115.902849899954
26501.25	0.0999390000361018	360	satiated	stimuli/non_foods\non-food_animate_clown.jpg	1	3	1	non-food_animate_clown	0	B	0	0	102	0		0	0	115.952911499946	116.052850499982
26538.75	0.0999860999872908	361	satiated	stimuli/non_foods\non-food_inanimate_short_sleeved_shirt.jpg	1	3	1	non-food_inanimate_short_sleeved_shirt	0	R	12	0	207	0		0	0	116.102858999977	116.202845099964
26576.25	0.0999966000090353	362	satiated	stimuli/foods\chilli.jpg	1	3	1	chilli	1	K	7	0	25	1	a	0	0	116.252858099993	116.352854700002
26613.75	0.0999960000044666	363	satiated	stimuli/non_foods\non-food_inanimate_tree.jpg	1	3	1	non-food_inanimate_tree	0	S	13	0	223	0		0	0	116.402850799961	116.502846799965
26651.25	0.099983699969016	364	satiated	stimuli/foods\corncob.jpg	1	3	1	corncob	1	V	15	0	37	0		0	0	116.552859799995	116.652843499964
26688.75	0.0999846999766305	365	satiated	stimuli/foods\cream_donuts.jpg	1	3	1	cream_donuts	1	J	6	0	39	0		0	0	116.702863899991	116.802848599968
26726.25	0.0999843000317924	366	satiated	stimuli/non_foods\non-food_inanimate_cactus_pot_plant.jpg	1	3	1	non-food_inanimate_cactus_pot_plant	0	P	11	0	169	0		0	0	116.852862699947	116.952846999979
26763.75	0.100013299961574	367	satiated	stimuli/non_foods\non-food_animate_cat.jpg	1	3	1	non-food_animate_cat	0	C	1	0	98	0		0	0	117.002858399996	117.102871699957
26801.25	0.099988600006327	368	satiated	stimuli/non_foods\non-food_inanimate_stoplight.jpg	1	3	1	non-food_inanimate_stoplight	0	N	10	0	214	0		0	0	117.152857599955	117.252846199961
26838.75	0.0999866999918595	369	satiated	stimuli/non_foods\non-food_inanimate_highlighter.jpg	1	3	1	non-food_inanimate_highlighter	0	H	5	0	189	0		0	0	117.302855899965	117.402842599957
26876.25	0.0999866999918595	370	satiated	stimuli/foods\chocolate_chip_cookies.jpg	1	3	1	chocolate_chip_cookies	1	L	8	0	27	0		0	0	117.452855299984	117.552841999975
26913.75	0.100038899981882	371	satiated	stimuli/non_foods\non-food_animate_squirrel.jpg	1	3	1	non-food_animate_squirrel	0	B	0	0	150	0		0	0	117.60285179998	117.702890699962
26951.25	0.0999377000262029	372	satiated	stimuli/non_foods\non-food_animate_yellow_bug.jpg	1	3	1	non-food_animate_yellow_bug	0	W	16	0	155	0		0	0	117.75290089997	117.852838599996
26988.75	0.0999829000211321	373	satiated	stimuli/non_foods\non-food_inanimate_orchid.jpg	1	3	1	non-food_inanimate_orchid	0	S	13	0	198	0		0	0	117.902857199952	118.002840099973
27026.25	0.0999859999865294	374	satiated	stimuli/foods\fruit_salad.jpg	1	3	1	fruit_salad	1	W	16	0	55	0		0	0	118.052852099994	118.152838099981
27063.75	0.0999872999964282	375	satiated	stimuli/non_foods\non-food_inanimate_canoe.jpg	1	3	1	non-food_inanimate_canoe	0	D	2	0	170	0		0	0	118.202851499955	118.302838799951
27101.25	0.0999840999720618	376	satiated	stimuli/foods\linguine_with_clams.jpg	1	3	1	linguine_with_clams	1	S	13	0	77	0		0	0	118.352853199991	118.452837299963
27138.75	0.0999799999990501	377	satiated	stimuli/non_foods\non-food_animate_lizard.jpg	1	3	1	non-food_animate_lizard	0	Z	18	0	126	0		0	0	118.502849299985	118.602829299984
27176.25	0.0999867999926209	378	satiated	stimuli/non_foods\non-food_inanimate_pine_cone.jpg	1	3	1	non-food_inanimate_pine_cone	0	S	13	0	200	0		0	0	118.652847499994	118.752834299987
27213.75	0.099969900038559	379	satiated	stimuli/foods\lettuce.jpg	1	3	1	lettuce	1	X	17	0	75	0		0	0	118.802861999953	118.902831899992
27251.25	0.0999844000325538	380	satiated	stimuli/non_foods\non-food_animate_dragonfly.jpg	1	3	1	non-food_animate_dragonfly	0	R	12	0	108	0		0	0	118.952845499967	119.0528299
27288.75	0.0999850999796763	381	satiated	stimuli/non_foods\non-food_inanimate_broom.jpg	1	3	1	non-food_inanimate_broom	0	C	1	0	164	0		0	0	119.102845099987	119.202830199967
27326.25	0.0999830000218935	382	satiated	stimuli/non_foods\non-food_inanimate_button.jpg	1	3	1	non-food_inanimate_button	0	B	0	0	168	0		0	0	119.252844699949	119.352827699971
27363.75	0.0999917999724858	383	satiated	stimuli/foods\rice.jpg	1	3	1	rice	1	T	14	0	257	0		0	0	119.402846299985	119.502838099957
27401.25	0.0999657000065781	384	satiated	stimuli/foods\grapefruits.jpg	1	3	1	grapefruits	1	K	7	0	59	0		0	0	119.552863099962	119.652828799968
27438.75	0.0999774999800138	385	satiated	stimuli/non_foods\non-food_animate_duck.jpg	1	3	1	non-food_animate_duck	0	H	5	0	109	0		0	0	119.702839299978	119.802816799958
27476.25	0.0999881000025198	386	satiated	stimuli/foods\capsicum.jpg	1	3	1	capsicum	1	J	6	0	18	0		0	0	119.852838199993	119.952826299996
27513.75	0.0999855000409298	387	satiated	stimuli/foods\mandarin.jpg	1	3	1	mandarin	1	S	13	0	79	0		0	0	120.002838199958	120.102823699999
27551.25	0.0999848999781534	388	satiated	stimuli/foods\gnocchi.jpg	1	3	1	gnocchi	1	J	6	0	58	0		0	0	120.15283669997	120.252821599948
27588.75	0.0999866999918595	389	satiated	stimuli/non_foods\non-food_inanimate_lighter.jpg	1	3	1	non-food_inanimate_lighter	0	K	7	0	193	0		0	0	120.302839399956	120.402826099948
27626.25	0.0999966000090353	390	satiated	stimuli/non_foods\non-food_inanimate_toy_airplane.jpg	1	3	1	non-food_inanimate_toy_airplane	0	X	17	0	222	0		0	0	120.45282429998	120.552820899989
27663.75	0.0999690999742597	391	satiated	stimuli/non_foods\non-food_animate_cheetah.jpg	1	3	1	non-food_animate_cheetah	0	L	8	0	100	0		0	0	120.60285169998	120.702820799954
27701.25	0.0999843999743462	392	satiated	stimuli/non_foods\non-food_animate_ladybug.jpg	1	3	1	non-food_animate_ladybug	0	W	16	0	124	0		0	0	120.752834299987	120.852818699961
27738.75	0.0999861999880522	393	satiated	stimuli/foods\coffee_beans.jpg	1	3	1	coffee_beans	1	G	4	0	34	0		0	0	120.902829299972	121.00281549996
27776.25	0.0999866999918595	394	satiated	stimuli/foods\risotto_with_peas_and_asparagus_tips.jpg	1	3	1	risotto_with_peas_and_asparagus_tips	1	D	2	0	259	0		0	0	121.052834399976	121.152821099968
27813.75	0.100003100000322	395	satiated	stimuli/non_foods\non-food_animate_horse.jpg	1	3	1	non-food_animate_horse	0	L	8	0	119	0		0	0	121.202834800002	121.302837900002
27851.25	0.100005200016312	396	satiated	stimuli/foods\avocado.jpg	1	3	1	avocado	1	K	7	0	5	0		0	0	121.352805299975	121.452810499992
27888.75	0.0999837999697775	397	satiated	stimuli/non_foods\non-food_inanimate_skirt.jpg	1	3	1	non-food_inanimate_skirt	0	M	9	0	209	0		0	0	121.502832999977	121.602816799947
27926.25	0.100002899998799	398	satiated	stimuli/non_foods\non-food_animate_snail.jpg	1	3	1	non-food_animate_snail	0	W	16	0	149	0		0	0	121.652802500001	121.752805399999
27963.75	0.0999890000093728	399	satiated	stimuli/non_foods\non-food_inanimate_bush.jpg	1	3	1	non-food_inanimate_bush	0	C	1	0	167	0		0	0	121.802818699973	121.902807699982
28001.25	0.0999866999918595	400	satiated	stimuli/non_foods\non-food_inanimate_briefcase.jpg	1	3	1	non-food_inanimate_briefcase	0	S	13	0	163	0		0	0	121.95281659998	122.052803299972
28038.75	0.10000899998704	401	satiated	stimuli/non_foods\non-food_inanimate_guitar.jpg	1	3	1	non-food_inanimate_guitar	0	F	3	0	185	0		0	0	122.102800399996	122.202809399983
28076.25	0.100001799990423	402	satiated	stimuli/non_foods\non-food_animate_killer_whale.jpg	1	3	1	non-food_animate_killer_whale	0	C	1	0	123	0		0	0	122.252826799988	122.352828599978
28113.75	0.0999857999850065	403	satiated	stimuli/foods\salami.jpg	1	3	1	salami	1	V	15	0	263	0		0	0	122.402822599979	122.502808399964
28151.25	0.0999896999564953	404	satiated	stimuli/non_foods\non-food_inanimate_watering_can.jpg	1	3	1	non-food_inanimate_watering_can	0	M	9	0	225	0		0	0	122.552822600002	122.652812299959
28188.75	0.0999869999941438	405	satiated	stimuli/non_foods\non-food_inanimate_nest.jpg	1	3	1	non-food_inanimate_nest	0	F	3	0	196	0		0	0	122.70282159996	122.802808599954
28226.25	0.0999881000025198	406	satiated	stimuli/foods\baked_lamb_with_potatoes.jpg	1	3	1	baked_lamb_with_potatoes	1	L	8	0	8	0		0	0	122.852817599953	122.952805699955
28263.75	0.099992600036785	407	satiated	stimuli/non_foods\non-food_animate_german_shepherd.jpg	1	3	1	non-food_animate_german_shepherd	0	R	12	0	114	0		0	0	123.002814599953	123.10280719999
28301.25	0.0999881000025198	408	satiated	stimuli/foods\pear.jpg	1	3	1	pear	1	N	10	0	239	0		0	0	123.152814299974	123.252802399977
28338.75	0.0999870999949053	409	satiated	stimuli/non_foods\non-food_animate_iguana.jpg	1	3	1	non-food_animate_iguana	0	K	7	0	121	0		0	0	123.302818699973	123.402805799968
28376.25	0.0999773999792524	410	satiated	stimuli/foods\eggplant.jpg	1	3	1	eggplant	1	C	1	0	46	0		0	0	123.452825099987	123.552802499966
28413.75	0.0999607999692671	411	satiated	stimuli/foods\banana.jpg	1	3	1	banana	1	D	2	0	9	0		0	0	123.602815199993	123.702775999962
28451.25	0.0999873000546359	412	satiated	stimuli/foods\fried_zucchini.jpg	1	3	1	fried_zucchini	1	B	0	0	51	0		0	0	123.752813699946	123.852801000001
28488.75	0.0999750000191852	413	satiated	stimuli/non_foods\non-food_animate_giraffe.jpg	1	3	1	non-food_animate_giraffe	0	Z	18	0	115	0		0	0	123.902813099965	124.002788099984
28526.25	0.100045599974692	414	satiated	stimuli/non_foods\non-food_inanimate_protractor.jpg	1	3	1	non-food_inanimate_protractor	0	X	17	0	201	0		0	0	124.052813999995	124.15285959997
28563.75	0.0999839000287466	415	satiated	stimuli/foods\broccoli.jpg	1	3	1	broccoli	1	B	0	0	13	0		0	0	124.202813599957	124.302797499986
28601.25	0.0999841999728233	416	satiated	stimuli/non_foods\non-food_animate_camel.jpg	1	3	1	non-food_animate_camel	0	D	2	0	97	0		0	0	124.352808700001	124.452792899974
28638.75	0.099987699999474	417	satiated	stimuli/non_foods\non-food_inanimate_clover.jpg	1	3	1	non-food_inanimate_clover	0	B	0	0	174	0		0	0	124.50280659995	124.60279429995
28676.25	0.0999880000017583	418	satiated	stimuli/non_foods\non-food_inanimate_bucket.jpg	1	3	1	non-food_inanimate_bucket	0	M	9	0	165	0		0	0	124.652804499958	124.752792499959
28713.75	0.0999389000353403	419	satiated	stimuli/foods\fruit_flan.jpg	1	3	1	fruit_flan	1	X	17	0	53	0		0	0	124.802853699948	124.902792599984
30963.75	0.0999755000229925	420	satiated	stimuli/non_foods\non-food_inanimate_chair.jpg	1	4	1	non-food_inanimate_chair	0	J	6	0	172	0		0	0	133.802756499965	133.902731999988
31001.25	0.100000699982047	421	satiated	stimuli/non_foods\non-food_animate_millipede.jpg	1	4	1	non-food_animate_millipede	0	D	2	0	129	0		0	0	133.952763499983	134.052764199965
31038.75	0.0999833999667317	422	satiated	stimuli/foods\lemon.jpg	1	4	1	lemon	1	X	17	0	72	0		0	0	134.102746499993	134.20272989996
31076.25	0.0999841000302695	423	satiated	stimuli/foods\oregano.jpg	1	4	1	oregano	1	N	10	0	231	0		0	0	134.252745299949	134.35272939998
31113.75	0.099984000029508	424	satiated	stimuli/foods\pork_and_rice.jpg	1	4	1	pork_and_rice	1	C	1	0	245	0		0	0	134.402744699968	134.502728699998
31151.25	0.0999905999633484	425	satiated	stimuli/foods\rockmelon.jpg	1	4	1	rockmelon	1	L	8	0	262	0		0	0	134.552744999994	134.652735599957
31188.75	0.0999882000032812	426	satiated	stimuli/foods\tomato.jpg	1	4	1	tomato	1	S	13	0	276	0		0	0	134.702737899963	134.802726099966
31226.25	0.0999823000165634	427	satiated	stimuli/foods\pepperoni_pizza.jpg	1	4	1	pepperoni_pizza	1	D	2	0	241	0		0	0	134.852742299961	134.952724599978
31263.75	0.099984000029508	428	satiated	stimuli/non_foods\non-food_inanimate_folding_chair.jpg	1	4	1	non-food_inanimate_folding_chair	0	V	15	0	182	0		0	0	135.00273779995	135.10272179998
31301.25	0.0999711999902502	429	satiated	stimuli/non_foods\non-food_inanimate_suitcase.jpg	1	4	1	non-food_inanimate_suitcase	0	F	3	0	215	0		0	0	135.15275129996	135.25272249995
31338.75	0.0999868999933824	430	satiated	stimuli/foods\wafer.jpg	1	4	1	wafer	1	S	13	0	277	0		0	0	135.302733899967	135.402720799961
31376.25	0.0999916000291705	431	satiated	stimuli/non_foods\non-food_inanimate_padlock.jpg	1	4	1	non-food_inanimate_padlock	0	F	3	0	199	0		0	0	135.452731599973	135.552723200002
31413.75	0.0999990999698639	432	satiated	stimuli/non_foods\non-food_animate_polar_bear.jpg	1	4	1	non-food_animate_polar_bear	0	X	17	0	137	0		0	0	135.602723399992	135.702722499962
31451.25	0.0999828999629244	433	satiated	stimuli/non_foods\non-food_inanimate_bamboo.jpg	1	4	1	non-food_inanimate_bamboo	0	M	9	0	159	0		0	0	135.752752100001	135.852734999964
31488.75	0.0999562999932095	434	satiated	stimuli/foods\croissant.jpg	1	4	1	croissant	1	F	3	0	40	0		0	0	135.902761899983	136.002718199976
31526.25	0.099984000029508	435	satiated	stimuli/non_foods\non-food_animate_ant.jpg	1	4	1	non-food_animate_ant	0	C	1	0	91	0		0	0	136.052731899952	136.152715899982
31563.75	0.099984000029508	436	satiated	stimuli/foods\potato_and_green_bean_salad.jpg	1	4	1	potato_and_green_bean_salad	1	Z	18	0	246	0		0	0	136.20272989996	136.30271389999
31601.25	0.0999835999682546	437	satiated	stimuli/non_foods\non-food_inanimate_bed.jpg	1	4	1	non-food_inanimate_bed	0	C	1	0	160	0		0	0	136.352730899991	136.452714499959
31638.75	0.0999828999629244	438	satiated	stimuli/non_foods\non-food_animate_young_boy.jpg	1	4	1	non-food_animate_young_boy	0	X	17	0	156	0		0	0	136.502728899999	136.602711799962
31676.25	0.0999828000203706	439	satiated	stimuli/non_foods\non-food_animate_dachshund.jpg	1	4	1	non-food_animate_dachshund	0	H	5	0	104	0		0	0	136.652730399976	136.752713199996
31713.75	0.100000399979763	440	satiated	stimuli/foods\carrot.jpg	1	4	1	carrot	1	B	0	0	19	0		0	0	136.802727499977	136.902727899957
31751.25	0.0999674999620765	441	satiated	stimuli/non_foods\non-food_animate_butterfly.jpg	1	4	1	non-food_animate_butterfly	0	J	6	0	96	0		0	0	136.952741099987	137.052708599949
31788.75	0.0999817000119947	442	satiated	stimuli/foods\chocolate_pudding.jpg	1	4	1	chocolate_pudding	1	B	0	0	29	0		0	0	137.102726499957	137.202708199969
31826.25	0.0999827000196092	443	satiated	stimuli/foods\peach.jpg	1	4	1	peach	1	X	17	0	238	0		0	0	137.25272379996	137.35270649998
31863.75	0.100013800023589	444	satiated	stimuli/foods\kiwi.jpg	1	4	1	kiwi	1	K	7	0	69	0		0	0	137.402720599959	137.502734399983
31901.25	0.0999874999979511	445	satiated	stimuli/non_foods\non-food_animate_mouse.jpg	1	4	1	non-food_animate_mouse	0	V	15	0	131	0		0	0	137.552723799949	137.652711299947
31938.75	0.0999697999795899	446	satiated	stimuli/non_foods\non-food_inanimate_wrench.jpg	1	4	1	non-food_inanimate_wrench	0	C	1	0	227	0		0	0	137.702734099992	137.802703899972
31976.25	0.0999857999850065	447	satiated	stimuli/foods\pea_pod.jpg	1	4	1	pea_pod	1	K	7	0	237	0		0	0	137.852719399962	137.952705199947
32013.75	0.100000300037209	448	satiated	stimuli/foods\clams.jpg	1	4	1	clams	1	N	10	0	32	0		0	0	138.00270079996	138.102701099997
32051.25	0.0999913000268862	449	satiated	stimuli/foods\cauliflower.jpg	1	4	1	cauliflower	1	K	7	0	20	0		0	0	138.152714699972	138.252705999999
32088.75	0.0999841000302695	450	satiated	stimuli/non_foods\non-food_animate_baby_crawling.jpg	1	4	1	non-food_animate_baby_crawling	0	X	17	0	92	0		0	0	138.302717199957	138.402701299987
32126.25	0.099982000014279	451	satiated	stimuli/non_foods\non-food_inanimate_drum_set.jpg	1	4	1	non-food_inanimate_drum_set	0	C	1	0	179	0		0	0	138.452715799969	138.552697799983
32163.75	0.0999995999736711	452	satiated	stimuli/foods\cucumber.jpg	1	4	1	cucumber	1	B	0	0	41	0		0	0	138.602713699976	138.70271329995
32201.25	0.099987699999474	453	satiated	stimuli/non_foods\non-food_inanimate_tent.jpg	1	4	1	non-food_inanimate_tent	0	F	3	0	219	0		0	0	138.752711299981	138.852698999981
32238.75	0.0999901000177488	454	satiated	stimuli/foods\mango.jpg	1	4	1	mango	1	G	4	0	80	0		0	0	138.902711099945	139.002701199963
32276.25	0.0999826999614015	455	satiated	stimuli/non_foods\non-food_inanimate_nettle.jpg	1	4	1	non-food_inanimate_nettle	0	D	2	0	197	0		0	0	139.052713199984	139.152695899946
32313.75	0.0999759000260383	456	satiated	stimuli/non_foods\non-food_inanimate_teddy_bear.jpg	1	4	1	non-food_inanimate_teddy_bear	0	X	17	0	218	0		0	0	139.20270829997	139.302684199996
32351.25	0.0999472999828868	457	satiated	stimuli/foods\chestnut.jpg	1	4	1	chestnut	1	W	16	0	24	0		0	0	139.352739599999	139.452686899982
32388.75	0.0999856000416912	458	satiated	stimuli/non_foods\non-food_inanimate_buds.jpg	1	4	1	non-food_inanimate_buds	0	F	3	0	166	0		0	0	139.50269949995	139.602685099992
32426.25	0.0999956000014208	459	satiated	stimuli/non_foods\non-food_inanimate_chandelier.jpg	1	4	1	non-food_inanimate_chandelier	0	P	11	0	173	1	a	0	0	139.652702299994	139.752697899996
32463.75	0.0999941000482067	460	satiated	stimuli/non_foods\non-food_animate_gorilla.jpg	1	4	1	non-food_animate_gorilla	0	B	0	0	116	0		0	0	139.802693599951	139.9026877
32501.25	0.0999862999888137	461	satiated	stimuli/foods\fries.jpg	1	4	1	fries	1	H	5	0	52	0		0	0	139.9527045	140.052690799988
32538.75	0.0999842999735847	462	satiated	stimuli/foods\donut.jpg	1	4	1	donut	1	G	4	0	44	0		0	0	140.102705699974	140.202689999947
32576.25	0.0999832000234164	463	satiated	stimuli/foods\oven-roasted_tomatoes.jpg	1	4	1	oven-roasted_tomatoes	1	B	0	0	232	0		0	0	140.252702999976	140.3526862
32613.75	0.0999899999587797	464	satiated	stimuli/foods\red_cabbage.jpg	1	4	1	red_cabbage	1	N	10	0	256	0		0	0	140.402701299987	140.502691299946
32651.25	0.0999866999918595	465	satiated	stimuli/non_foods\non-food_animate_Asian_man.jpg	1	4	1	non-food_animate_Asian_man	0	P	11	0	88	0		0	0	140.552703399968	140.65269009996
32688.75	0.0999918999732472	466	satiated	stimuli/non_foods\non-food_inanimate_moss.jpg	1	4	1	non-food_inanimate_moss	0	K	7	0	194	0		0	0	140.702696399996	140.802688299969
32726.25	0.0999805000028573	467	satiated	stimuli/foods\red_beans.jpg	1	4	1	red_beans	1	B	0	0	255	0		0	0	140.852701399999	140.952681900002
32763.75	0.100022700033151	468	satiated	stimuli/foods\lentils.jpg	1	4	1	lentils	1	C	1	0	74	0		0	0	141.002699199948	141.102721899981
32801.25	0.0999347000033595	469	satiated	stimuli/non_foods\non-food_animate_cow.jpg	1	4	1	non-food_animate_cow	0	R	12	0	103	0		0	0	141.152748599998	141.252683300001
32838.75	0.0999860999872908	470	satiated	stimuli/foods\lamb_chops.jpg	1	4	1	lamb_chops	1	Z	18	0	70	0		0	0	141.302696899977	141.402682999964
32876.25	0.099989700014703	471	satiated	stimuli/non_foods\non-food_animate_tortoise.jpg	1	4	1	non-food_animate_tortoise	0	V	15	0	153	0		0	0	141.452692399966	141.55268209998
32913.75	0.0999836000264622	472	satiated	stimuli/non_foods\non-food_animate_Causasian_man.jpg	1	4	1	non-food_animate_Causasian_man	0	J	6	0	89	0		0	0	141.602694699948	141.702678299975
32951.25	0.0999863999895751	473	satiated	stimuli/foods\apple.jpg	1	4	1	apple	1	P	11	0	1	0		0	0	141.752690099995	141.852676499984
32988.75	0.0999848999781534	474	satiated	stimuli/non_foods\non-food_animate_bee.jpg	1	4	1	non-food_animate_bee	0	D	2	0	95	0		0	0	141.9026954	142.002680299978
33026.25	0.0999905000207946	475	satiated	stimuli/foods\spaghetti_with_meat_sauce.jpg	1	4	1	spaghetti_with_meat_sauce	1	Z	18	0	267	0		0	0	142.052687499963	142.152677999984
33063.75	0.0999683000263758	476	satiated	stimuli/foods\taco.jpg	1	4	1	taco	1	H	5	0	274	0		0	0	142.202707199962	142.302675499988
33101.25	0.0999842999735847	477	satiated	stimuli/foods\green_beans.jpg	1	4	1	green_beans	1	L	8	0	61	0		0	0	142.352691799984	142.452676099958
33138.75	0.0999890000093728	478	satiated	stimuli/non_foods\non-food_inanimate_socks.jpg	1	4	1	non-food_inanimate_socks	0	X	17	0	211	0		0	0	142.50268559996	142.60267459997
33176.25	0.0999839000287466	479	satiated	stimuli/non_foods\non-food_animate_dolphin.jpg	1	4	1	non-food_animate_dolphin	0	M	9	0	106	0		0	0	142.652689099952	142.752672999981
33213.75	0.100031199981458	480	satiated	stimuli/foods\celery.jpg	1	4	1	celery	1	J	6	0	21	0		0	0	142.802682399983	142.902713599964
33251.25	0.0999569999985397	481	satiated	stimuli/foods\hotdog.jpg	1	4	1	hotdog	1	S	13	0	67	0		0	0	142.95270689996	143.052663899958
33288.75	0.0999796999967657	482	satiated	stimuli/non_foods\non-food_animate_donkey.jpg	1	4	1	non-food_animate_donkey	0	L	8	0	107	0		0	0	143.102677399991	143.202657099988
33326.25	0.0999830000218935	483	satiated	stimuli/non_foods\non-food_animate_porcupine.jpg	1	4	1	non-food_animate_porcupine	0	D	2	0	138	0		0	0	143.252686299966	143.352669299988
33363.75	0.0999668000149541	484	satiated	stimuli/non_foods\non-food_inanimate_soccer_ball.jpg	1	4	1	non-food_inanimate_soccer_ball	0	T	14	0	210	0		0	0	143.402684999979	143.502651799994
33401.25	0.0999882000032812	485	satiated	stimuli/non_foods\non-food_animate_swan.jpg	1	4	1	non-food_animate_swan	0	G	4	0	152	0		0	0	143.552681599976	143.65266979998
33438.75	0.0999891000101343	486	satiated	stimuli/foods\swordfish.jpg	1	4	1	swordfish	1	X	17	0	273	0		0	0	143.702677499969	143.802666599979
33476.25	0.0999878000002354	487	satiated	stimuli/non_foods\non-food_inanimate_rope.jpg	1	4	1	non-food_inanimate_rope	0	C	1	0	204	0		0	0	143.852679399948	143.952667199948
33513.75	0.0999700999818742	488	satiated	stimuli/non_foods\non-food_inanimate_speakers.jpg	1	4	1	non-food_inanimate_speakers	0	G	4	0	212	0		0	0	144.0026908	144.102660899982
33551.25	0.0999924999778159	489	satiated	stimuli/foods\strawberry.jpg	1	4	1	strawberry	1	W	16	0	272	0		0	0	144.152670899988	144.252663399966
33588.75	0.0999835999682546	490	satiated	stimuli/non_foods\non-food_inanimate_desk.jpg	1	4	1	non-food_inanimate_desk	0	R	12	0	178	0		0	0	144.302676299994	144.402659899963
33626.25	0.0999902000185102	491	satiated	stimuli/non_foods\non-food_animate_mammoth.jpg	1	4	1	non-food_animate_mammoth	0	D	2	0	128	0		0	0	144.452670599974	144.552660799993
33663.75	0.100002400053199	492	satiated	stimuli/non_foods\non-food_animate_baby_sitting.jpg	1	4	1	non-food_animate_baby_sitting	0	L	8	0	93	0		0	0	144.602686699945	144.702689099999
33701.25	0.0999671999597922	493	satiated	stimuli/non_foods\non-food_animate_pigeon.jpg	1	4	1	non-food_animate_pigeon	0	R	12	0	136	0		0	0	144.752689599991	144.852656799951
33738.75	0.0999898000154644	494	satiated	stimuli/foods\waffle.jpg	1	4	1	waffle	1	F	3	0	278	0		0	0	144.902667499962	145.002657299978
33776.25	0.0999845000333153	495	satiated	stimuli/non_foods\non-food_animate_hummingbird.jpg	1	4	1	non-food_animate_hummingbird	0	V	15	0	120	0		0	0	145.052671499958	145.152655999991
33813.75	0.0999991999706253	496	satiated	stimuli/non_foods\non-food_inanimate_waterlily.jpg	1	4	1	non-food_inanimate_waterlily	0	W	16	0	226	0		0	0	145.202656599984	145.302655799955
33851.25	0.0999827000196092	497	satiated	stimuli/non_foods\non-food_animate_fox.jpg	1	4	1	non-food_animate_fox	0	G	4	0	112	0		0	0	145.352672399953	145.452655099973
33888.75	0.0999764000298455	498	satiated	stimuli/foods\raisins.jpg	1	4	1	raisins	1	R	12	0	252	0		0	0	145.502669299953	145.602645699983
33926.25	0.0999822000158019	499	satiated	stimuli/non_foods\non-food_inanimate_alarm_clock.jpg	1	4	1	non-food_inanimate_alarm_clock	0	F	3	0	158	0		0	0	145.652661599976	145.752643799991
33963.75	0.0999644999974407	500	satiated	stimuli/non_foods\non-food_animate_eagle.jpg	1	4	1	non-food_animate_eagle	0	K	7	0	110	0		0	0	145.802679899964	145.902644399961
34001.25	0.099985699984245	501	satiated	stimuli/foods\ginger_root.jpg	1	4	1	ginger_root	1	M	9	0	57	0		0	0	145.952657699992	146.052643399977
34038.75	0.099981100007426	502	satiated	stimuli/non_foods\non-food_animate_kangaroo.jpg	1	4	1	non-food_animate_kangaroo	0	H	5	0	122	0		0	0	146.102654999995	146.202636100003
34076.25	0.100006099964958	503	satiated	stimuli/foods\pumpkin.jpg	1	4	1	pumpkin	1	T	14	0	250	0		0	0	146.252643899992	146.352649999957
34113.75	0.0999851999804378	504	satiated	stimuli/foods\spinach.jpg	1	4	1	spinach	1	V	15	0	268	0		0	0	146.402677999984	146.502663199964
34151.25	0.099959300016053	505	satiated	stimuli/non_foods\non-food_inanimate_skateboard.jpg	1	4	1	non-food_inanimate_skateboard	0	X	17	0	208	0		0	0	146.552688199969	146.652647499985
34188.75	0.0999824000173248	506	satiated	stimuli/foods\stew_with_potatoes_and_carrots.jpg	1	4	1	stew_with_potatoes_and_carrots	1	P	11	0	271	0		0	0	146.702662799973	146.80264519999
34226.25	0.0999854000401683	507	satiated	stimuli/foods\oyster.jpg	1	4	1	oyster	1	V	15	0	233	0		0	0	146.852656499948	146.952641899989
34263.75	0.0999869999941438	508	satiated	stimuli/foods\roasted_chicken.jpg	1	4	1	roasted_chicken	1	C	1	0	261	0		0	0	147.002656099969	147.102643099963
34301.25	0.0999874999979511	509	satiated	stimuli/non_foods\non-food_animate_frog.jpg	1	4	1	non-food_animate_frog	0	K	7	0	113	1	a	0	0	147.152654299978	147.252641799976
34338.75	0.099986599991098	510	satiated	stimuli/non_foods\non-food_animate_runner.jpg	1	4	1	non-food_animate_runner	0	X	17	0	142	0		0	0	147.302656599961	147.402643199952
34376.25	0.100003100000322	511	satiated	stimuli/foods\pickles.jpg	1	4	1	pickles	1	S	13	0	242	0		0	0	147.452656799986	147.552659899986
34413.75	0.0999689000309445	512	satiated	stimuli/non_foods\non-food_inanimate_cupboard.jpg	1	4	1	non-food_inanimate_cupboard	0	G	4	0	177	0		0	0	147.602671799948	147.702640699979
34451.25	0.0999839000287466	513	satiated	stimuli/non_foods\non-food_inanimate_cap.jpg	1	4	1	non-food_inanimate_cap	0	T	14	0	171	0		0	0	147.75265359995	147.852637499978
34488.75	0.0999842999735847	514	satiated	stimuli/non_foods\non-food_animate_llama.jpg	1	4	1	non-food_animate_llama	0	H	5	0	127	0		0	0	147.902649299998	148.002633599972
34526.25	0.0999929000390694	515	satiated	stimuli/non_foods\non-food_animate_caterpillar.jpg	1	4	1	non-food_animate_caterpillar	0	A	19	1	99	0		0	0	148.052648399957	148.152641299996
34563.75	0.0999637999921106	516	satiated	stimuli/foods\steak.jpg	1	4	1	steak	1	B	0	0	270	0		0	0	148.202673299995	148.302637099987
34601.25	0.0998784000403248	517	satiated	stimuli/foods\rice_cake.jpg	1	4	1	rice_cake	1	V	15	0	258	0		0	0	148.352757499961	148.452635900001
34638.75	0.0999816000112332	518	satiated	stimuli/non_foods\non-food_inanimate_grass.jpg	1	4	1	non-food_inanimate_grass	0	N	10	0	184	0		0	0	148.502650799986	148.602632399998
34676.25	0.099986599991098	519	satiated	stimuli/foods\figs.jpg	1	4	1	figs	1	G	4	0	48	0		0	0	148.652645199967	148.752631799958
34713.75	0.0999835999682546	520	satiated	stimuli/foods\smoked_ham.jpg	1	4	1	smoked_ham	1	M	9	0	266	0		0	0	148.8026465	148.902630099969
34751.25	0.0999866999918595	521	satiated	stimuli/foods\coconut.jpg	1	4	1	coconut	1	P	11	0	33	0		0	0	148.952645499958	149.05263219995
34788.75	0.099985100037884	522	satiated	stimuli/foods\pomegranate.jpg	1	4	1	pomegranate	1	F	3	0	244	0		0	0	149.102641499951	149.202626599988
34826.25	0.0999959000037052	523	satiated	stimuli/foods\radish.jpg	1	4	1	radish	1	V	15	0	251	0		0	0	149.252642999985	149.352638899989
34863.75	0.0999815000104718	524	satiated	stimuli/foods\dates.jpg	1	4	1	dates	1	L	8	0	43	0		0	0	149.402643999958	149.502625499968
34901.25	0.0999900999595411	525	satiated	stimuli/foods\chocolate_pralines.jpg	1	4	1	chocolate_pralines	1	K	7	0	28	0		0	0	149.552637399989	149.652627499949
34938.75	0.0999861999880522	526	satiated	stimuli/non_foods\non-food_inanimate_fern.jpg	1	4	1	non-food_inanimate_fern	0	W	16	0	180	0		0	0	149.702640599979	149.802626799967
34976.25	0.100004400010221	527	satiated	stimuli/foods\risotto_with_zucchini.jpg	1	4	1	risotto_with_zucchini	1	D	2	0	260	0		0	0	149.852637399978	149.952641799988
35013.75	0.0999438000144437	528	satiated	stimuli/non_foods\non-food_animate_parrot.jpg	1	4	1	non-food_animate_parrot	0	F	3	0	133	0		0	0	150.002679399971	150.102623199986
35051.25	0.0999863999895751	529	satiated	stimuli/foods\egg.jpg	1	4	1	egg	1	J	6	0	45	0		0	0	150.152638299973	150.252624699962
35088.75	0.0999832999659702	530	satiated	stimuli/foods\ice_cream.jpg	1	4	1	ice_cream	1	C	1	0	68	0		0	0	150.302636599983	150.402619899949
35126.25	0.0999900000169873	531	satiated	stimuli/non_foods\non-food_animate_chicken.jpg	1	4	1	non-food_animate_chicken	0	B	0	0	101	0		0	0	150.45263309998	150.552623099997
35163.75	0.099982000014279	532	satiated	stimuli/non_foods\non-food_inanimate_shell.jpg	1	4	1	non-food_inanimate_shell	0	N	10	0	206	0		0	0	150.602634699957	150.702616699971
35201.25	0.0999906999641098	533	satiated	stimuli/foods\cupcake.jpg	1	4	1	cupcake	1	D	2	0	42	0		0	0	150.752627999987	150.852618699952
35238.75	0.0999834999674931	534	satiated	stimuli/foods\mussels.jpg	1	4	1	mussels	1	P	11	0	86	0		0	0	150.902633699996	151.002617199963
35276.25	0.0999838999705389	535	satiated	stimuli/non_foods\non-food_inanimate_hammer.jpg	1	4	1	non-food_inanimate_hammer	0	F	3	0	186	1	a	0	0	151.052630499995	151.152614399965
35313.75	0.0999870999949053	536	satiated	stimuli/foods\green_olives.jpg	1	4	1	green_olives	1	I	21	1	62	0		0	0	151.202629999956	151.302617099951
35351.25	0.0999828000203706	537	satiated	stimuli/non_foods\non-food_inanimate_jeans.jpg	1	4	1	non-food_inanimate_jeans	0	F	3	0	191	0		0	0	151.352629099973	151.452611899993
35388.75	0.0999851999804378	538	satiated	stimuli/non_foods\non-food_inanimate_ring.jpg	1	4	1	non-food_inanimate_ring	0	M	9	0	203	0		0	0	151.502625599969	151.60261079995
35426.25	0.099985100037884	539	satiated	stimuli/foods\brownie.jpg	1	4	1	brownie	1	J	6	0	14	0		0	0	151.652627799951	151.752612899989
35463.75	0.0999344000010751	540	satiated	stimuli/non_foods\non-food_animate_sea_lion.jpg	1	4	1	non-food_animate_sea_lion	0	S	13	0	143	0		0	0	151.802674499981	151.902608899982
35501.25	0.0999875999987125	541	satiated	stimuli/foods\prawn.jpg	1	4	1	prawn	1	K	7	0	249	0		0	0	151.952625399979	152.052612999978
35538.75	0.0999834999674931	542	satiated	stimuli/foods\cooked_prawn.jpg	1	4	1	cooked_prawn	1	N	10	0	36	1	a	0.893182800034992	1	152.102624499996	152.202607999963
35576.25	0.0999863999895751	543	satiated	stimuli/non_foods\non-food_animate_bat.jpg	1	4	1	non-food_animate_bat	0	W	16	0	94	0		0	0	152.252621399995	152.352607799985
35613.75	0.0999716999940574	544	satiated	stimuli/non_foods\non-food_animate_raccoon.jpg	1	4	1	non-food_animate_raccoon	0	N	10	0	139	0		0	0	152.402620699955	152.502592399949
35651.25	0.0999871999956667	545	satiated	stimuli/non_foods\non-food_inanimate_couch.jpg	1	4	1	non-food_inanimate_couch	0	S	13	0	176	0		0	0	152.552623600001	152.652610799996
35688.75	0.100013199960813	546	satiated	stimuli/non_foods\non-food_animate_ram.jpg	1	4	1	non-food_animate_ram	0	B	0	0	140	0		0	0	152.702595399984	152.802608599945
35726.25	0.1000015999889	547	satiated	stimuli/foods\lemon_meringue_pie.jpg	1	4	1	lemon_meringue_pie	1	F	3	0	73	0		0	0	152.852601899998	152.952603499987
35763.75	0.0999595000175759	548	satiated	stimuli/foods\brussel_sprouts.jpg	1	4	1	brussel_sprouts	1	D	2	0	15	0		0	0	153.002617499966	153.102576999983
35801.25	0.0999901000177488	549	satiated	stimuli/non_foods\non-food_inanimate_towel.jpg	1	4	1	non-food_inanimate_towel	0	G	4	0	221	0		0	0	153.152614199964	153.252604299982
35838.75	0.0999821000150405	550	satiated	stimuli/non_foods\non-food_animate_monkey.jpg	1	4	1	non-food_animate_monkey	0	L	8	0	130	0		0	0	153.302617599955	153.40259969997
35876.25	0.0999947000527754	551	satiated	stimuli/non_foods\non-food_animate_slug.jpg	1	4	1	non-food_animate_slug	0	W	16	0	148	0		0	0	153.452613399946	153.552608099999
35913.75	0.0999628999852575	552	satiated	stimuli/foods\potatoes.jpg	1	4	1	potatoes	1	N	10	0	248	0		0	0	153.602637299977	153.702600199962
35951.25	0.0999825999606401	553	satiated	stimuli/foods\beetroots.jpg	1	4	1	beetroots	1	P	11	0	10	0		0	0	153.75261309999	153.852595699951
35988.75	0.0999880000017583	554	satiated	stimuli/foods\omelette.jpg	1	4	1	omelette	1	K	7	0	228	0		0	0	153.90260999999	154.002597999992
36026.25	0.0999843999743462	555	satiated	stimuli/non_foods\non-food_inanimate_horn.jpg	1	4	1	non-food_inanimate_horn	0	M	9	0	190	0		0	0	154.052612199972	154.152596599946
36063.75	0.0999891000101343	556	satiated	stimuli/foods\cinnamon.jpg	1	4	1	cinnamon	1	R	12	0	30	0		0	0	154.202607699961	154.302596799971
36101.25	0.0999887000070885	557	satiated	stimuli/foods\onion.jpg	1	4	1	onion	1	P	11	0	229	0		0	0	154.352606599976	154.452595299983
36138.75	0.0999572000000626	558	satiated	stimuli/non_foods\non-food_inanimate_stapler.jpg	1	4	1	non-food_inanimate_stapler	0	H	5	0	213	0		0	0	154.502609699965	154.602566899965
36176.25	0.0999916999717243	559	satiated	stimuli/foods\minestrone_soup.jpg	1	4	1	minestrone_soup	1	L	8	0	82	0		0	0	154.652602499991	154.752594199963
37155.25	0.0999838000279851	560	satiated	stimuli/non_foods\non-food_animate_cheetah.jpg	1	5	1	non-food_animate_cheetah	0	Z	18	0	100	0		0	0	158.569245699968	158.669229499996
37192.75	0.0999847000348382	561	satiated	stimuli/non_foods\non-food_animate_owl.jpg	1	5	1	non-food_animate_owl	0	T	14	0	132	0		0	0	158.719240799954	158.819225499989
37230.25	0.0999819999560714	562	satiated	stimuli/foods\pear.jpg	1	5	1	pear	1	H	5	0	239	0		0	0	158.869242699991	158.969224699948
37267.75	0.0999861000454985	563	satiated	stimuli/non_foods\non-food_inanimate_rope.jpg	1	5	1	non-food_inanimate_rope	0	R	12	0	204	0		0	0	159.019234899955	159.119221000001
37305.25	0.0999859999865294	564	satiated	stimuli/foods\pork_and_rice.jpg	1	5	1	pork_and_rice	1	F	3	0	245	0		0	0	159.169222600001	159.269208599988
37342.75	0.0999908999656327	565	satiated	stimuli/foods\green_olives.jpg	1	5	1	green_olives	1	L	8	0	62	0		0	0	159.319239799981	159.419230699947
37380.25	0.0999789999914356	566	satiated	stimuli/non_foods\non-food_inanimate_stoplight.jpg	1	5	1	non-food_inanimate_stoplight	0	M	9	0	214	0		0	0	159.469243299973	159.569222299964
37417.75	0.0999905000207946	567	satiated	stimuli/foods\salmon.jpg	1	5	1	salmon	1	K	7	0	264	0		0	0	159.619229499949	159.71921999997
37455.25	0.099988600006327	568	satiated	stimuli/foods\garlic.jpg	1	5	1	garlic	1	R	12	0	56	0		0	0	159.769230899983	159.869219499989
37492.75	0.0999864999903366	569	satiated	stimuli/foods\omelette.jpg	1	5	1	omelette	1	V	15	0	228	0		0	0	159.919234399975	160.019220899965
37530.25	0.0999639999936335	570	satiated	stimuli/foods\celery.jpg	1	5	1	celery	1	D	2	0	21	0		0	0	160.069230999972	160.169194999966
37567.75	0.0999805000028573	571	satiated	stimuli/non_foods\non-food_inanimate_wrench.jpg	1	5	1	non-food_inanimate_wrench	0	S	13	0	227	0		0	0	160.219227099966	160.319207599969
37605.25	0.099983100022655	572	satiated	stimuli/foods\taco.jpg	1	5	1	taco	1	B	0	0	274	0		0	0	160.369215299957	160.46919839998
37642.75	0.0999869999941438	573	satiated	stimuli/non_foods\non-food_animate_monkey.jpg	1	5	1	non-food_animate_monkey	0	H	5	0	130	0		0	0	160.51922419999	160.619211199984
37680.25	0.0999945999938063	574	satiated	stimuli/foods\fries.jpg	1	5	1	fries	1	V	15	0	52	0		0	0	160.669224399957	160.769218999951
37717.75	0.0999583000084385	575	satiated	stimuli/non_foods\non-food_inanimate_toy_airplane.jpg	1	5	1	non-food_inanimate_toy_airplane	0	P	11	0	222	0		0	0	160.819243099948	160.919201399956
37755.25	0.100007700035349	576	satiated	stimuli/non_foods\non-food_inanimate_hay.jpg	1	5	1	non-food_inanimate_hay	0	L	8	0	187	0		0	0	160.969210299954	161.06921799999
37792.75	0.0999860999872908	577	satiated	stimuli/non_foods\non-food_inanimate_folding_chair.jpg	1	5	1	non-food_inanimate_folding_chair	0	F	3	0	182	0		0	0	161.119232099969	161.219218199956
37830.25	0.0999837999697775	578	satiated	stimuli/non_foods\non-food_animate_lion.jpg	1	5	1	non-food_animate_lion	0	S	13	0	125	0		0	0	161.269231599988	161.369215399958
37867.75	0.0999605999677442	579	satiated	stimuli/non_foods\non-food_animate_grasshopper.jpg	1	5	1	non-food_animate_grasshopper	0	W	16	0	117	0		0	0	161.41923	161.519190599967
37905.25	0.099987699999474	580	satiated	stimuli/foods\tomato.jpg	1	5	1	tomato	1	X	17	0	276	0		0	0	161.569226399995	161.669214099995
37942.75	0.100009799993131	581	satiated	stimuli/foods\pepperoni_pizza.jpg	1	5	1	pepperoni_pizza	1	K	7	0	241	0		0	0	161.719196099963	161.819205899956
37980.25	0.0999563000514172	582	satiated	stimuli/foods\grilled_chicken_breast.jpg	1	5	1	grilled_chicken_breast	1	V	15	0	63	0		0	0	161.869237099949	161.9691934
38017.75	0.099986599991098	583	satiated	stimuli/non_foods\non-food_inanimate_bicycle.jpg	1	5	1	non-food_inanimate_bicycle	0	Z	18	0	161	0		0	0	162.019216199988	162.119202799979
38055.25	0.099989700014703	584	satiated	stimuli/non_foods\non-food_inanimate_skateboard.jpg	1	5	1	non-food_inanimate_skateboard	0	C	1	0	208	0		0	0	162.16921079997	162.269200499984
38092.75	0.0999933000421152	585	satiated	stimuli/non_foods\non-food_inanimate_toilet.jpg	1	5	1	non-food_inanimate_toilet	0	G	4	0	220	0		0	0	162.319205399952	162.419198699994
38130.25	0.100013099960051	586	satiated	stimuli/foods\fennel.jpg	1	5	1	fennel	1	C	1	0	47	0		0	0	162.46919209999	162.56920519995
38167.75	0.099974500015378	587	satiated	stimuli/non_foods\non-food_inanimate_socks.jpg	1	5	1	non-food_inanimate_socks	0	G	4	0	211	0		0	0	162.61921819998	162.719192699995
38205.25	0.0999859000439756	588	satiated	stimuli/non_foods\non-food_animate_llama.jpg	1	5	1	non-food_animate_llama	0	R	12	0	127	0		0	0	162.769211099949	162.869196999993
38242.75	0.0999797999975272	589	satiated	stimuli/non_foods\non-food_animate_millipede.jpg	1	5	1	non-food_animate_millipede	0	S	13	0	129	0		0	0	162.919209899963	163.01918969996
38280.25	0.100008400040679	590	satiated	stimuli/non_foods\non-food_inanimate_drum_set.jpg	1	5	1	non-food_inanimate_drum_set	0	T	14	0	179	0		0	0	163.069198399957	163.169206799997
38317.75	0.0999880000017583	591	satiated	stimuli/foods\apple.jpg	1	5	1	apple	1	H	5	0	1	0		0	0	163.219204899971	163.319192899973
38355.25	0.099987699999474	592	satiated	stimuli/foods\spaghetti_with_meat_sauce.jpg	1	5	1	spaghetti_with_meat_sauce	1	V	15	0	267	0		0	0	163.369205800002	163.469193500001
38392.75	0.0999859000439756	593	satiated	stimuli/foods\savory_pie.jpg	1	5	1	savory_pie	1	L	8	0	265	0		0	0	163.519189099956	163.619175
38430.25	0.0999899000162259	594	satiated	stimuli/foods\baked_cod_with_carrots_and_green_beans.jpg	1	5	1	baked_cod_with_carrots_and_green_beans	1	W	16	0	7	0		0	0	163.669200099946	163.769189999963
38467.75	0.0999861999880522	595	satiated	stimuli/non_foods\non-food_animate_polar_bear.jpg	1	5	1	non-food_animate_polar_bear	0	R	12	0	137	0		0	0	163.819214799965	163.919200999953
38505.25	0.0999869999941438	596	satiated	stimuli/non_foods\non-food_animate_giraffe.jpg	1	5	1	non-food_animate_giraffe	0	D	2	0	115	0		0	0	163.969196999969	164.069183999964
38542.75	0.0999799999990501	597	satiated	stimuli/foods\cherry.jpg	1	5	1	cherry	1	P	11	0	23	0		0	0	164.119199399953	164.219179399952
38580.25	0.0999850000371225	598	satiated	stimuli/non_foods\non-food_animate_raccoon.jpg	1	5	1	non-food_animate_raccoon	0	O	22	1	139	0		0	0	164.269212099956	164.369197099993
38617.75	0.0999834999674931	599	satiated	stimuli/non_foods\non-food_animate_hummingbird.jpg	1	5	1	non-food_animate_hummingbird	0	L	8	0	120	0		0	0	164.41921349999	164.519196999958
38655.25	0.099985699984245	600	satiated	stimuli/non_foods\non-food_animate_eagle.jpg	1	5	1	non-food_animate_eagle	0	M	9	0	110	1	a	0.391831699991599	1	164.569208599976	164.669194299961
38692.75	0.0999508000095375	601	satiated	stimuli/non_foods\non-food_animate_snail.jpg	1	5	1	non-food_animate_snail	0	H	5	0	149	0		0	0	164.719211699965	164.819162499974
38730.25	0.0999964000075124	602	satiated	stimuli/foods\linguine_with_clams.jpg	1	5	1	linguine_with_clams	1	T	14	0	77	0		0	0	164.869195999985	164.969192399993
38767.75	0.0999722999986261	603	satiated	stimuli/non_foods\non-food_animate_penguin.jpg	1	5	1	non-food_animate_penguin	0	J	6	0	135	0		0	0	165.019204099954	165.119176399952
38805.25	0.0999871999956667	604	satiated	stimuli/foods\chocolate_pralines.jpg	1	5	1	chocolate_pralines	1	B	0	0	28	0		0	0	165.169205199985	165.269192399981
38842.75	0.100019699952099	605	satiated	stimuli/foods\risotto_with_peas_and_asparagus_tips.jpg	1	5	1	risotto_with_peas_and_asparagus_tips	1	M	9	0	259	0		0	0	165.319172599993	165.419192299945
38880.25	0.0999748000176623	606	satiated	stimuli/non_foods\non-food_inanimate_sun_flower.jpg	1	5	1	non-food_inanimate_sun_flower	0	Z	18	0	216	0		0	0	165.46920979995	165.569184599968
38917.75	0.099978500045836	607	satiated	stimuli/non_foods\non-food_animate_ram.jpg	1	5	1	non-food_animate_ram	0	N	10	0	140	0		0	0	165.619199699955	165.719178200001
38955.25	0.099990299961064	608	satiated	stimuli/non_foods\non-food_inanimate_grass.jpg	1	5	1	non-food_inanimate_grass	0	X	17	0	184	0		0	0	165.769187099999	165.86917739996
38992.75	0.100007799977902	609	satiated	stimuli/non_foods\non-food_inanimate_padlock.jpg	1	5	1	non-food_inanimate_padlock	0	M	9	0	199	0		0	0	165.91917529999	166.019183099968
39030.25	0.0999817000119947	610	satiated	stimuli/foods\pomegranate.jpg	1	5	1	pomegranate	1	H	5	0	244	0		0	0	166.069202599989	166.169184300001
39067.75	0.0999469999806024	611	satiated	stimuli/non_foods\non-food_inanimate_rack.jpg	1	5	1	non-food_inanimate_rack	0	B	0	0	202	0		0	0	166.219206399983	166.319153399963
39105.25	0.0999802000005729	612	satiated	stimuli/non_foods\non-food_animate_deer.jpg	1	5	1	non-food_animate_deer	0	F	3	0	105	0		0	0	166.369172499981	166.469152699981
39142.75	0.0999784999876283	613	satiated	stimuli/foods\pickles.jpg	1	5	1	pickles	1	O	22	1	242	0		0	0	166.519192199979	166.619170699967
39180.25	0.0999904999625869	614	satiated	stimuli/non_foods\non-food_animate_fox.jpg	1	5	1	non-food_animate_fox	0	T	14	0	112	0		0	0	166.669182399986	166.769172899949
39217.75	0.0999907999648713	615	satiated	stimuli/foods\hotdog.jpg	1	5	1	hotdog	1	D	2	0	67	0		0	0	166.819179199985	166.91916999995
39255.25	0.0999857000424527	616	satiated	stimuli/non_foods\non-food_inanimate_fire_extinguisher.jpg	1	5	1	non-food_inanimate_fire_extinguisher	0	N	10	0	181	1	a	0.550614600011613	1	166.969193999947	167.069179699989
39292.75	0.099976500030607	617	satiated	stimuli/foods\papaya.jpg	1	5	1	papaya	1	W	16	0	235	0		0	0	167.119199199951	167.219175699982
39330.25	0.0999675000202842	618	satiated	stimuli/foods\croissant.jpg	1	5	1	croissant	1	C	1	0	40	0		0	0	167.269191599975	167.369159099995
39367.75	0.0999933999846689	619	satiated	stimuli/non_foods\non-food_animate_young_girl.jpg	1	5	1	non-food_animate_young_girl	0	G	4	0	157	0		0	0	167.41916499997	167.519158399955
39405.25	0.0999835999682546	620	satiated	stimuli/foods\peas.jpg	1	5	1	peas	1	R	12	0	240	0		0	0	167.569186999986	167.669170599955
39442.75	0.0999934999854304	621	satiated	stimuli/non_foods\non-food_animate_swan.jpg	1	5	1	non-food_animate_swan	0	Z	18	0	152	0		0	0	167.7191705	167.819163999986
39480.25	0.0999687000294216	622	satiated	stimuli/foods\baked_lamb_with_potatoes.jpg	1	5	1	baked_lamb_with_potatoes	1	L	8	0	8	0		0	0	167.869176899956	167.969145599985
39517.75	0.100012400012929	623	satiated	stimuli/foods\fruit_pie.jpg	1	5	1	fruit_pie	1	N	10	0	54	0		0	0	168.019160199969	168.119172599982
39555.25	0.0999875999987125	624	satiated	stimuli/non_foods\non-food_inanimate_desk.jpg	1	5	1	non-food_inanimate_desk	0	K	7	0	178	0		0	0	168.169183199992	168.269170799991
39592.75	0.0999548999825493	625	satiated	stimuli/non_foods\non-food_inanimate_waterlily.jpg	1	5	1	non-food_inanimate_waterlily	0	T	14	0	226	0		0	0	168.319184199965	168.419139099948
39630.25	0.0999771999777295	626	satiated	stimuli/non_foods\non-food_inanimate_lighter.jpg	1	5	1	non-food_inanimate_lighter	0	R	12	0	193	0		0	0	168.469181699969	168.569158899947
39667.75	0.0999871999956667	627	satiated	stimuli/foods\cauliflower.jpg	1	5	1	cauliflower	1	K	7	0	20	0		0	0	168.619169499958	168.719156699954
39705.25	0.0999962000059895	628	satiated	stimuli/foods\asparagus.jpg	1	5	1	asparagus	1	N	10	0	4	0		0	0	168.769166799961	168.869162999967
39742.75	0.0999828000203706	629	satiated	stimuli/non_foods\non-food_animate_peacock.jpg	1	5	1	non-food_animate_peacock	0	V	15	0	134	0		0	0	168.919173999981	169.019156800001
39780.25	0.0999873000546359	630	satiated	stimuli/non_foods\non-food_inanimate_bed.jpg	1	5	1	non-food_inanimate_bed	0	R	12	0	160	0		0	0	169.069166499947	169.169153800001
39817.75	0.099987699999474	631	satiated	stimuli/foods\coconut.jpg	1	5	1	coconut	1	C	1	0	33	0		0	0	169.219167599978	169.319155299978
39855.25	0.100001899991184	632	satiated	stimuli/foods\salami.jpg	1	5	1	salami	1	J	6	0	263	0		0	0	169.369158599991	169.469160499983
39892.75	0.100007400033064	633	satiated	stimuli/non_foods\non-food_inanimate_highlighter.jpg	1	5	1	non-food_inanimate_highlighter	0	N	10	0	189	0		0	0	169.519143899961	169.619151299994
39930.25	0.0999993000295945	634	satiated	stimuli/foods\clams.jpg	1	5	1	clams	1	S	13	0	32	0		0	0	169.669161799946	169.769161099975
39967.75	0.0999844999751076	635	satiated	stimuli/non_foods\non-food_inanimate_briefcase.jpg	1	5	1	non-food_inanimate_briefcase	0	R	12	0	163	0		0	0	169.819173299999	169.919157799974
40005.25	0.0999878000002354	636	satiated	stimuli/foods\mussels.jpg	1	5	1	mussels	1	V	15	0	86	0		0	0	169.969170600001	170.069158400001
