onset	duration	eventnumber	hunger_condition	stimfilename	blockno	trialno	is_faststream	stim	food_idx	letter	letter_idx	istarget	image_number	response	keypressed	rt	correct	time_stimon	time_stimoff
10370.5	0.0999788000481203	0	hunger	stimuli/foods\avocado.jpg	1	1	1	avocado	1	Z	18	0	5	0		0	0	51.1409797999077	51.2409585999558
10408	0.100033800001256	1	hunger	stimuli/foods\green_olives.jpg	1	1	1	green_olives	1	S	13	0	62	0		0	0	51.2909773999127	51.3910111999139
10445.5	0.0999710999894887	2	hunger	stimuli/non_foods\non-food_inanimate_highlighter.jpg	1	1	1	non-food_inanimate_highlighter	0	H	5	0	189	0		0	0	51.4409693999914	51.5409404999809
10483	0.100006300024688	3	hunger	stimuli/non_foods\non-food_inanimate_bamboo.jpg	1	1	1	non-food_inanimate_bamboo	0	X	17	0	159	0		0	0	51.5909471999621	51.6909534999868
10520.5	0.0999810000648722	4	hunger	stimuli/non_foods\non-food_animate_slug.jpg	1	1	1	non-food_animate_slug	0	Z	18	0	148	0		0	0	51.7409698999254	51.8409508999903
10558	0.0999846000922844	5	hunger	stimuli/non_foods\non-food_inanimate_briefcase.jpg	1	1	1	non-food_inanimate_briefcase	0	G	4	0	163	0		0	0	51.8909658999182	51.9909505000105
10595.5	0.0999998000916094	6	hunger	stimuli/non_foods\non-food_animate_camel.jpg	1	1	1	non-food_animate_camel	0	H	5	0	97	0		0	0	52.0409609999042	52.1409607999958
10633	0.0999869999941438	7	hunger	stimuli/non_foods\non-food_inanimate_ring.jpg	1	1	1	non-food_inanimate_ring	0	N	10	0	203	0		0	0	52.1909614999313	52.2909484999254
10670.5	0.099988600006327	8	hunger	stimuli/foods\fruit_salad.jpg	1	1	1	fruit_salad	1	W	16	0	55	0		0	0	52.3409602999454	52.4409488999518
10708	0.0999838999705389	9	hunger	stimuli/non_foods\non-food_animate_kangaroo.jpg	1	1	1	non-food_animate_kangaroo	0	N	10	0	122	0		0	0	52.4909621999832	52.5909460999537
10745.5	0.100003600004129	10	hunger	stimuli/foods\spaghetti_with_meat_sauce.jpg	1	1	1	spaghetti_with_meat_sauce	1	Z	18	0	267	0		0	0	52.6409596999874	52.7409632999916
10783	0.0999405999900773	11	hunger	stimuli/non_foods\non-food_animate_ladybug.jpg	1	1	1	non-food_animate_ladybug	0	V	15	0	124	0		0	0	52.7910054000095	52.8909459999995
10820.5	0.0999842999735847	12	hunger	stimuli/foods\pea_pod.jpg	1	1	1	pea_pod	1	D	2	0	237	0		0	0	52.940957200015	53.0409414999885
10858.25	0.0997652999358252	13	hunger	stimuli/foods\broccoli.jpg	1	1	1	broccoli	1	G	4	0	13	0		0	0	53.0911813999992	53.190946699935
10895.5	0.0999882000032812	14	hunger	stimuli/non_foods\non-food_inanimate_stoplight.jpg	1	1	1	non-food_inanimate_stoplight	0	L	8	0	214	0		0	0	53.2409546999261	53.3409428999294
10933	0.0999854999827221	15	hunger	stimuli/foods\chocolate_pudding.jpg	1	1	1	chocolate_pudding	1	X	17	0	29	0		0	0	53.3909531999379	53.4909386999207
10970.5	0.0999958999454975	16	hunger	stimuli/non_foods\non-food_animate_rhino.jpg	1	1	1	non-food_animate_rhino	0	P	11	0	141	0		0	0	53.5409538999666	53.6409497999121
11008	0.0999677999643609	17	hunger	stimuli/foods\roasted_chicken.jpg	1	1	1	roasted_chicken	1	W	16	0	261	0		0	0	53.6909389999928	53.7909067999572
11045.5	0.100039100041613	18	hunger	stimuli/foods\orange.jpg	1	1	1	orange	1	K	7	0	230	0		0	0	53.8409433999332	53.9409824999748
11083	0.0999747000169009	19	hunger	stimuli/foods\celery.jpg	1	1	1	celery	1	S	13	0	21	0		0	0	53.9909463999793	54.0909210999962
11120.5	0.0999797999393195	20	hunger	stimuli/non_foods\non-food_animate_llama.jpg	1	1	1	non-food_animate_llama	0	K	7	0	127	0		0	0	54.1409260999644	54.2409058999037
11158	0.0999930999241769	21	hunger	stimuli/foods\brownie.jpg	1	1	1	brownie	1	P	11	0	14	0		0	0	54.2909427999984	54.3909358999226
11195.5	0.0999680000822991	22	hunger	stimuli/non_foods\non-food_animate_ant.jpg	1	1	1	non-food_animate_ant	0	L	8	0	91	0		0	0	54.4409464999335	54.5409145000158
11233	0.0999457999132574	23	hunger	stimuli/non_foods\non-food_inanimate_nettle.jpg	1	1	1	non-food_inanimate_nettle	0	W	16	0	197	0		0	0	54.5909848000156	54.6909305999288
11270.5	0.0999978999607265	24	hunger	stimuli/foods\fruit_pie.jpg	1	1	1	fruit_pie	1	R	12	0	54	0		0	0	54.7409324999899	54.8409303999506
11308	0.0999762000283226	25	hunger	stimuli/foods\chilli.jpg	1	1	1	chilli	1	F	3	0	25	0		0	0	54.8909256999614	54.9909018999897
11345.5	0.0999846999766305	26	hunger	stimuli/non_foods\non-food_inanimate_rope.jpg	1	1	1	non-food_inanimate_rope	0	Z	18	0	204	0		0	0	55.040934599936	55.1409192999126
11383	0.0999854999827221	27	hunger	stimuli/non_foods\non-food_inanimate_tent.jpg	1	1	1	non-food_inanimate_tent	0	X	17	0	219	0		0	0	55.190934299957	55.2909197999397
11420.5	0.0999869999941438	28	hunger	stimuli/non_foods\non-food_animate_alligator.jpg	1	1	1	non-food_animate_alligator	0	G	4	0	90	0		0	0	55.3409303999506	55.4409173999447
11458	0.0999823999591172	29	hunger	stimuli/foods\risotto_with_zucchini.jpg	1	1	1	risotto_with_zucchini	1	D	2	0	260	0		0	0	55.490916699986	55.5908990999451
11495.5	0.0999853999819607	30	hunger	stimuli/foods\chocolate_chip_cookies.jpg	1	1	1	chocolate_chip_cookies	1	H	5	0	27	0		0	0	55.6409274999751	55.740912899957
11533	0.0999800999416038	31	hunger	stimuli/non_foods\non-food_animate_Asian_man.jpg	1	1	1	non-food_animate_Asian_man	0	K	7	0	88	0		0	0	55.7909279000014	55.890907999943
11570.5	0.0999674999620765	32	hunger	stimuli/foods\meatballs.jpg	1	1	1	meatballs	1	Z	18	0	81	0		0	0	55.9409347999608	56.0409022999229
11608	0.0999851999804378	33	hunger	stimuli/non_foods\non-food_animate_caterpillar.jpg	1	1	1	non-food_animate_caterpillar	0	H	5	0	99	0		0	0	56.0909311999567	56.1909163999371
11645.5	0.0999970999546349	34	hunger	stimuli/foods\figs.jpg	1	1	1	figs	1	V	15	0	48	0		0	0	56.240933299996	56.3409303999506
11683	0.0999440000159666	35	hunger	stimuli/foods\eggplant.jpg	1	1	1	eggplant	1	P	11	0	46	0		0	0	56.3909715999616	56.4909155999776
11720.5	0.0999857999850065	36	hunger	stimuli/foods\lasagna.jpg	1	1	1	lasagna	1	H	5	0	71	0		0	0	56.540928500006	56.640914299991
11758	0.0999804000603035	37	hunger	stimuli/non_foods\non-food_animate_penguin.jpg	1	1	1	non-food_animate_penguin	0	F	3	0	135	0		0	0	56.6909341999562	56.7909146000165
11795.5	0.0999884000048041	38	hunger	stimuli/foods\grilled_chicken_breast.jpg	1	1	1	grilled_chicken_breast	1	C	1	0	63	0		0	0	56.8409246999072	56.940913099912
11833	0.0999851999804378	39	hunger	stimuli/foods\egg.jpg	1	1	1	egg	1	K	7	0	45	0		0	0	56.9909264999442	57.0909116999246
11870.5	0.0999626000411808	40	hunger	stimuli/foods\dates.jpg	1	1	1	dates	1	N	10	0	43	0		0	0	57.1409218999324	57.2408844999736
11908	0.0999971999553964	41	hunger	stimuli/foods\coffee_beans.jpg	1	1	1	coffee_beans	1	R	12	0	34	0		0	0	57.2909123999998	57.3909095999552
11945.5	0.0999464000342414	42	hunger	stimuli/non_foods\non-food_animate_butterfly.jpg	1	1	1	non-food_animate_butterfly	0	M	9	0	96	0		0	0	57.4409654999617	57.540911899996
11983	0.0999575000023469	43	hunger	stimuli/foods\croissant.jpg	1	1	1	croissant	1	P	11	0	40	0		0	0	57.5909229000099	57.6908804000122
12020.5	0.0999706999864429	44	hunger	stimuli/foods\cooked_ham.jpg	1	1	1	cooked_ham	1	N	10	0	35	0		0	0	57.7409182999982	57.8408889999846
12058	0.0999907000223175	45	hunger	stimuli/non_foods\non-food_inanimate_suitcase.jpg	1	1	1	non-food_inanimate_suitcase	0	G	4	0	215	0		0	0	57.8909244999522	57.9909151999746
12095.5	0.0999929000390694	46	hunger	stimuli/foods\green_beans.jpg	1	1	1	green_beans	1	Z	18	0	61	0		0	0	58.0409201999428	58.1409130999818
12133	0.0999529999680817	47	hunger	stimuli/foods\cracker.jpg	1	1	1	cracker	1	W	16	0	38	0		0	0	58.1909525999799	58.290905599948
12170.5	0.0999600000213832	48	hunger	stimuli/non_foods\non-food_inanimate_hay.jpg	1	1	1	non-food_inanimate_hay	0	Z	18	0	187	0		0	0	58.3409150999505	58.4408750999719
12208	0.100010300055146	49	hunger	stimuli/non_foods\non-food_animate_iguana.jpg	1	1	1	non-food_animate_iguana	0	V	15	0	121	0		0	0	58.4909118999494	58.5909222000046
12245.5	0.0999849999789149	50	hunger	stimuli/non_foods\non-food_animate_green_bug.jpg	1	1	1	non-food_animate_green_bug	0	W	16	0	118	0		0	0	58.6409123999765	58.7408973999554
12283	0.0999872999964282	51	hunger	stimuli/foods\cauliflower.jpg	1	1	1	cauliflower	1	H	5	0	20	0		0	0	58.7909094999777	58.8908967999741
12320.5	0.0999734000070021	52	hunger	stimuli/non_foods\non-food_animate_mouse.jpg	1	1	1	non-food_animate_mouse	0	T	14	0	131	0		0	0	58.9409051999683	59.0408785999753
12358	0.100005900021642	53	hunger	stimuli/foods\almonds.jpg	1	1	1	almonds	1	L	8	0	0	0		0	0	59.0908848999534	59.190890799975
12395.5	0.09997740003746	54	hunger	stimuli/non_foods\non-food_inanimate_bucket.jpg	1	1	1	non-food_inanimate_bucket	0	T	14	0	165	0		0	0	59.2409161999822	59.3408936000196
12433	0.0999859999865294	55	hunger	stimuli/non_foods\non-food_inanimate_short_sleeved_shirt.jpg	1	1	1	non-food_inanimate_short_sleeved_shirt	0	M	9	0	207	0		0	0	59.3909062999301	59.4908922999166
12470.5	0.0999700999818742	56	hunger	stimuli/non_foods\non-food_inanimate_towel.jpg	1	1	1	non-food_inanimate_towel	0	K	7	0	221	0		0	0	59.5409037999343	59.6408738999162
12508	0.0999780000420287	57	hunger	stimuli/foods\stew_with_potatoes_and_carrots.jpg	1	1	1	stew_with_potatoes_and_carrots	1	B	0	0	271	0		0	0	59.6909046999644	59.7908827000065
12545.5	0.100005599902943	58	hunger	stimuli/non_foods\non-food_animate_german_shepherd.jpg	1	1	1	non-food_animate_german_shepherd	0	X	17	0	114	0		0	0	59.8409082000144	59.9409137999173
12583	0.0999500000616536	59	hunger	stimuli/non_foods\non-food_inanimate_alarm_clock.jpg	1	1	1	non-food_inanimate_alarm_clock	0	S	13	0	158	0		0	0	59.9909367999062	60.0908867999678
12620.5	0.0999850999796763	60	hunger	stimuli/non_foods\non-food_animate_frog.jpg	1	1	1	non-food_animate_frog	0	L	8	0	113	0		0	0	60.1409006000031	60.2408856999828
12658	0.0999825000762939	61	hunger	stimuli/foods\gnocchi.jpg	1	1	1	gnocchi	1	C	1	0	58	0		0	0	60.2909008999122	60.3908833999885
12695.5	0.099986599991098	62	hunger	stimuli/foods\spring_onions.jpg	1	1	1	spring_onions	1	V	15	0	269	0		0	0	60.4408965000184	60.5408831000095
12733	0.0999813000671566	63	hunger	stimuli/non_foods\non-food_animate_pigeon.jpg	1	1	1	non-food_animate_pigeon	0	J	6	0	136	0		0	0	60.5908962999238	60.6908775999909
12770.5	0.0999852999811992	64	hunger	stimuli/foods\spinach.jpg	1	1	1	spinach	1	B	0	0	268	0		0	0	60.7408968999516	60.8408821999328
12808	0.0999983999645337	65	hunger	stimuli/foods\mushroom.jpg	1	1	1	mushroom	1	M	9	0	85	0		0	0	60.8908683999907	60.9908667999553
12845.5	0.0999408999923617	66	hunger	stimuli/non_foods\non-food_animate_horse.jpg	1	1	1	non-food_animate_horse	0	J	6	0	119	0		0	0	61.0409147000173	61.1408556000097
12883	0.0999854999827221	67	hunger	stimuli/foods\tomato.jpg	1	1	1	tomato	1	L	8	0	276	0		0	0	61.1908918999834	61.2908773999661
12920.5	0.100171500002034	68	hunger	stimuli/non_foods\non-food_animate_cat.jpg	1	1	1	non-food_animate_cat	0	F	3	0	98	0		0	0	61.3408918000059	61.441063300008
12958	0.0999883000040427	69	hunger	stimuli/non_foods\non-food_animate_dachshund.jpg	1	1	1	non-food_animate_dachshund	0	P	11	0	104	0		0	0	61.4908906999044	61.5908789999085
12995.5	0.100018600001931	70	hunger	stimuli/non_foods\non-food_inanimate_nest.jpg	1	1	1	non-food_inanimate_nest	0	D	2	0	196	0		0	0	61.640893099946	61.7409116999479
13033	0.0999840999720618	71	hunger	stimuli/foods\watermelon.jpg	1	1	1	watermelon	1	L	8	0	279	0		0	0	61.7908888999373	61.8908729999093
13070.5	0.099984799977392	72	hunger	stimuli/non_foods\non-food_inanimate_waterlily.jpg	1	1	1	non-food_inanimate_waterlily	0	F	3	0	226	0		0	0	61.9408867999446	62.040871599922
13108	0.0999692999757826	73	hunger	stimuli/foods\artichoke.jpg	1	1	1	artichoke	1	W	16	0	3	0		0	0	62.0908844999503	62.1908537999261
13145.5	0.100003400002606	74	hunger	stimuli/foods\grapes.jpg	1	1	1	grapes	1	Z	18	0	60	0		0	0	62.2408673999598	62.3408707999624
13183	0.0999888000078499	75	hunger	stimuli/foods\oyster.jpg	1	1	1	oyster	1	T	14	0	233	1	a	0	0	62.3908794999588	62.4908682999667
13220.5	0.0999860999872908	76	hunger	stimuli/foods\smoked_ham.jpg	1	1	1	smoked_ham	1	K	7	0	266	0		0	0	62.5408834000118	62.6408694999991
13258	0.0999990999698639	77	hunger	stimuli/foods\beetroots.jpg	1	1	1	beetroots	1	L	8	0	10	1	a	0	0	62.6908795000054	62.7908785999753
13295.5	0.0999718001112342	78	hunger	stimuli/foods\chocolate_bar.jpg	1	1	1	chocolate_bar	1	Z	18	0	26	0		0	0	62.840893699904	62.9408655000152
13333	0.0999851999804378	79	hunger	stimuli/foods\honey.jpg	1	1	1	honey	1	L	8	0	66	0		0	0	62.990878899931	63.0908640999114
13370.5	0.0999866999918595	80	hunger	stimuli/non_foods\non-food_animate_Causasian_man.jpg	1	1	1	non-food_animate_Causasian_man	0	J	6	0	89	0		0	0	63.140874799923	63.2408614999149
13408	0.099992600036785	81	hunger	stimuli/foods\chestnut.jpg	1	1	1	chestnut	1	R	12	0	24	0		0	0	63.2908755999524	63.3908681999892
13445.5	0.0999537999741733	82	hunger	stimuli/foods\fried_zucchini.jpg	1	1	1	fried_zucchini	1	P	11	0	51	0		0	0	63.4409062999766	63.5408600999508
13483	0.0999726000009105	83	hunger	stimuli/foods\lime.jpg	1	1	1	lime	1	J	6	0	76	0		0	0	63.5908866999671	63.690859299968
13520.5	0.0999843999743462	84	hunger	stimuli/foods\kiwi.jpg	1	1	1	kiwi	1	W	16	0	69	0		0	0	63.7408728000009	63.8408571999753
13558	0.0999853999819607	85	hunger	stimuli/foods\capsicum.jpg	1	1	1	capsicum	1	K	7	0	18	0		0	0	63.8908701000037	63.9908554999856
13595.5	0.0999836000846699	86	hunger	stimuli/non_foods\non-food_animate_young_girl.jpg	1	1	1	non-food_animate_young_girl	0	C	1	0	157	0		0	0	64.0408716999227	64.1408553000074
13633	0.0999778000405058	87	hunger	stimuli/non_foods\non-food_animate_skunk.jpg	1	1	1	non-food_animate_skunk	0	D	2	0	147	0		0	0	64.1908681999194	64.2908459999599
13670.5	0.0999770999187604	88	hunger	stimuli/non_foods\non-food_inanimate_socks.jpg	1	1	1	non-food_inanimate_socks	0	F	3	0	211	0		0	0	64.3408601999981	64.4408372999169
13708	0.10000299999956	89	hunger	stimuli/foods\brie.jpg	1	1	1	brie	1	R	12	0	12	0		0	0	64.4908461999148	64.5908491999144
13745.5	0.0999743000138551	90	hunger	stimuli/foods\potatoes.jpg	1	1	1	potatoes	1	X	17	0	248	0		0	0	64.6408761999337	64.7408504999476
13783	0.099986599991098	91	hunger	stimuli/foods\lollies.jpg	1	1	1	lollies	1	S	13	0	78	0		0	0	64.7908639999805	64.8908505999716
13820.5	0.0999854999827221	92	hunger	stimuli/foods\wafer.jpg	1	1	1	wafer	1	N	10	0	277	0		0	0	64.9408624999924	65.0408479999751
13858	0.100008499925025	93	hunger	stimuli/non_foods\non-food_animate_lizard.jpg	1	1	1	non-food_animate_lizard	0	J	6	0	126	0		0	0	65.0908595999936	65.1908680999186
13895.5	0.0999670000746846	94	hunger	stimuli/non_foods\non-food_inanimate_toilet.jpg	1	1	1	non-food_inanimate_toilet	0	H	5	0	220	0		0	0	65.2408790999325	65.3408461000072
13933	0.0999857001006603	95	hunger	stimuli/foods\risotto_with_peas_and_asparagus_tips.jpg	1	1	1	risotto_with_peas_and_asparagus_tips	1	D	2	0	259	0		0	0	65.3908574999077	65.4908432000084
13970.5	0.0999898998998106	96	hunger	stimuli/non_foods\non-food_animate_mammoth.jpg	1	1	1	non-food_animate_mammoth	0	V	15	0	128	0		0	0	65.5408536000177	65.6408434999175
14008	0.099984799977392	97	hunger	stimuli/foods\chocolate_pralines.jpg	1	1	1	chocolate_pralines	1	K	7	0	28	0		0	0	65.690856799949	65.7908415999264
14045.5	0.0999833999667317	98	hunger	stimuli/foods\banana.jpg	1	1	1	banana	1	O	22	1	9	0		0	0	65.8408570999745	65.9408404999413
14083	0.0999841999728233	99	hunger	stimuli/foods\toasted_bread_with_tomatoes.jpg	1	1	1	toasted_bread_with_tomatoes	1	W	16	0	275	0		0	0	65.9908557999879	66.0908399999607
14120.5	0.099982799962163	100	hunger	stimuli/foods\coconut.jpg	1	1	1	coconut	1	M	9	0	33	1	a	0.391821500030346	1	66.1408550000051	66.2408377999673
14158	0.0999874999979511	101	hunger	stimuli/foods\lemon_meringue_pie.jpg	1	1	1	lemon_meringue_pie	1	L	8	0	73	0		0	0	66.2908543999074	66.3908418999054
14195.5	0.0999804000603035	102	hunger	stimuli/foods\cabbage.jpg	1	1	1	cabbage	1	S	13	0	16	0		0	0	66.4408547999337	66.540835199994
14233	0.0999885000055656	103	hunger	stimuli/non_foods\non-food_animate_millipede.jpg	1	1	1	non-food_animate_millipede	0	X	17	0	129	0		0	0	66.590847000014	66.6908355000196
14270.5	0.0999853999819607	104	hunger	stimuli/non_foods\non-food_animate_yellow_bug.jpg	1	1	1	non-food_animate_yellow_bug	0	J	6	0	155	0		0	0	66.7408470999217	66.8408324999036
14308	0.0999879000009969	105	hunger	stimuli/non_foods\non-food_animate_baby_crawling.jpg	1	1	1	non-food_animate_baby_crawling	0	R	12	0	92	0		0	0	66.8908452999312	66.9908331999322
14345.5	0.0999683999689296	106	hunger	stimuli/non_foods\non-food_animate_grasshopper.jpg	1	1	1	non-food_animate_grasshopper	0	G	4	0	117	0		0	0	67.0408655999927	67.1408339999616
14383	0.0999842999735847	107	hunger	stimuli/foods\asparagus.jpg	1	1	1	asparagus	1	J	6	0	4	0		0	0	67.1908458999824	67.290830199956
14420.5	0.0999866999918595	108	hunger	stimuli/foods\pomegranate.jpg	1	1	1	pomegranate	1	Z	18	0	244	0		0	0	67.3408410999691	67.440827799961
14458	0.0999855999834836	109	hunger	stimuli/foods\strawberry.jpg	1	1	1	strawberry	1	S	13	0	272	0		0	0	67.4908436000114	67.5908291999949
14495.5	0.099985699984245	110	hunger	stimuli/non_foods\non-food_inanimate_cupboard.jpg	1	1	1	non-food_inanimate_cupboard	0	N	10	0	177	0		0	0	67.6408406000119	67.7408262999961
14533	0.0999857999850065	111	hunger	stimuli/foods\carrot.jpg	1	1	1	carrot	1	Z	18	0	19	0		0	0	67.7908434999408	67.8908292999258
14570.5	0.0999804000603035	112	hunger	stimuli/non_foods\non-food_inanimate_buds.jpg	1	1	1	non-food_inanimate_buds	0	G	4	0	166	0		0	0	67.9408414999489	68.0408219000092
14608	0.099967599962838	113	hunger	stimuli/non_foods\non-food_inanimate_pine_cone.jpg	1	1	1	non-food_inanimate_pine_cone	0	H	5	0	200	0		0	0	68.0908554999623	68.1908230999252
14645.5	0.0999757000245154	114	hunger	stimuli/non_foods\non-food_inanimate_guitar.jpg	1	1	1	non-food_inanimate_guitar	0	X	17	0	185	0		0	0	68.2408483999316	68.3408240999561
14683	0.0999868999933824	115	hunger	stimuli/foods\mortadella.jpg	1	1	1	mortadella	1	J	6	0	83	0		0	0	68.3908330999548	68.4908199999481
14720.5	0.0999866999918595	116	hunger	stimuli/non_foods\non-food_animate_ram.jpg	1	1	1	non-food_animate_ram	0	H	5	0	140	0		0	0	68.5408352999948	68.6408219999867
14758	0.100001499988139	117	hunger	stimuli/foods\red_beans.jpg	1	1	1	red_beans	1	F	3	0	255	0		0	0	68.6908339000074	68.7908353999956
14795.5	0.0999612999148667	118	hunger	stimuli/foods\grapefruits.jpg	1	1	1	grapefruits	1	R	12	0	59	0		0	0	68.8408458000049	68.9408070999198
14833	0.0999916000291705	119	hunger	stimuli/non_foods\non-food_inanimate_folding_chair.jpg	1	1	1	non-food_inanimate_folding_chair	0	N	10	0	182	0		0	0	68.9908214999596	69.0908130999887
14870.5	0.0999904000200331	120	hunger	stimuli/non_foods\non-food_animate_donkey.jpg	1	1	1	non-food_animate_donkey	0	R	12	0	107	0		0	0	69.1408169999486	69.2408073999686
14908	0.0999857999850065	121	hunger	stimuli/foods\clams.jpg	1	1	1	clams	1	S	13	0	32	0		0	0	69.2908180999802	69.3908038999652
14945.5	0.0999665999552235	122	hunger	stimuli/non_foods\non-food_animate_swan.jpg	1	1	1	non-food_animate_swan	0	L	8	0	152	0		0	0	69.4408295999747	69.5407961999299
14983	0.0999855999834836	123	hunger	stimuli/foods\pancakes.jpg	1	1	1	pancakes	1	G	4	0	234	0		0	0	69.5908244999591	69.6908100999426
15020.5	0.099987699999474	124	hunger	stimuli/non_foods\non-food_inanimate_sun_flower.jpg	1	1	1	non-food_inanimate_sun_flower	0	W	16	0	216	0		0	0	69.7408245999832	69.8408122999826
15058	0.0999706999864429	125	hunger	stimuli/non_foods\non-food_inanimate_headphones.jpg	1	1	1	non-food_inanimate_headphones	0	A	19	1	188	0		0	0	69.8908408000134	69.9908114999998
15095.5	0.0999582000076771	126	hunger	stimuli/non_foods\non-food_animate_polar_bear.jpg	1	1	1	non-food_animate_polar_bear	0	M	9	0	137	0		0	0	70.0408247999148	70.1407829999225
15133	0.0999878000002354	127	hunger	stimuli/foods\potato_and_green_bean_salad.jpg	1	1	1	potato_and_green_bean_salad	1	X	17	0	246	1	a	0.391810799948871	1	70.1908131999662	70.2908009999665
15170.5	0.0999531000852585	128	hunger	stimuli/foods\cinnamon_sroll.jpg	1	1	1	cinnamon_sroll	1	S	13	0	31	0		0	0	70.3408209999325	70.4407741000177
15208	0.0999756000237539	129	hunger	stimuli/non_foods\non-food_inanimate_horn.jpg	1	1	1	non-food_inanimate_horn	0	H	5	0	190	0		0	0	70.4908249999862	70.59080060001
15245.5	0.0999748000176623	130	hunger	stimuli/foods\papaya.jpg	1	1	1	papaya	1	P	11	0	235	0		0	0	70.6408296999289	70.7408044999465
15283	0.0999556999886408	131	hunger	stimuli/non_foods\non-food_inanimate_bush.jpg	1	1	1	non-food_inanimate_bush	0	W	16	0	167	0		0	0	70.7908192999894	70.890774999978
15320.5	0.099988600006327	132	hunger	stimuli/non_foods\non-food_inanimate_tulip.jpg	1	1	1	non-food_inanimate_tulip	0	N	10	0	224	0		0	0	70.9408135999693	71.0408021999756
15358	0.0999823999591172	133	hunger	stimuli/non_foods\non-food_animate_owl.jpg	1	1	1	non-food_animate_owl	0	Z	18	0	132	0		0	0	71.0908165000146	71.1907988999737
15395.5	0.0999840999720618	134	hunger	stimuli/non_foods\non-food_inanimate_speakers.jpg	1	1	1	non-food_inanimate_speakers	0	W	16	0	212	0		0	0	71.2408130000113	71.3407970999833
15433	0.0999896998982877	135	hunger	stimuli/non_foods\non-food_inanimate_orchid.jpg	1	1	1	non-food_inanimate_orchid	0	X	17	0	198	0		0	0	71.3908099000109	71.4907995999092
15470.5	0.0999872999964282	136	hunger	stimuli/non_foods\non-food_animate_seahorse.jpg	1	1	1	non-food_animate_seahorse	0	W	16	0	145	0		0	0	71.5408099999186	71.640797299915
15508	0.0999701999826357	137	hunger	stimuli/foods\potato_chips.jpg	1	1	1	potato_chips	1	S	13	0	247	0		0	0	71.6908252999419	71.7907954999246
15545.5	0.099984799977392	138	hunger	stimuli/non_foods\non-food_animate_seal.jpg	1	1	1	non-food_animate_seal	0	D	2	0	146	0		0	0	71.8408092999598	71.9407940999372
15583	0.0999889000086114	139	hunger	stimuli/non_foods\non-food_animate_peacock.jpg	1	1	1	non-food_animate_peacock	0	F	3	0	134	0		0	0	71.990806799964	72.0907956999727
16662.25	0.0999779000412673	140	hunger	stimuli/foods\cinnamon.jpg	1	2	1	cinnamon	1	N	10	0	30	0		0	0	76.3074512999738	76.407429200015
16699.75	0.10000120010227	141	hunger	stimuli/non_foods\non-food_inanimate_protractor.jpg	1	2	1	non-food_inanimate_protractor	0	M	9	0	201	0		0	0	76.4574245999102	76.5574258000124
16737.25	0.0999831999652088	142	hunger	stimuli/foods\cereal.jpg	1	2	1	cereal	1	F	3	0	22	0		0	0	76.607442199951	76.7074253999162
16774.75	0.0999850999796763	143	hunger	stimuli/non_foods\non-food_inanimate_rack.jpg	1	2	1	non-food_inanimate_rack	0	L	8	0	202	0		0	0	76.7574392999522	76.8574243999319
16812.25	0.0999872999964282	144	hunger	stimuli/non_foods\non-food_animate_tortoise.jpg	1	2	1	non-food_animate_tortoise	0	X	17	0	153	0		0	0	76.9074342999374	77.0074215999339
16849.75	0.0999857999850065	145	hunger	stimuli/foods\brussel_sprouts.jpg	1	2	1	brussel_sprouts	1	L	8	0	15	0		0	0	77.0574361999752	77.1574219999602
16887.25	0.100004500010982	146	hunger	stimuli/non_foods\non-food_animate_baby_sitting.jpg	1	2	1	non-food_animate_baby_sitting	0	V	15	0	93	0		0	0	77.2074340999825	77.3074385999935
16924.75	0.0999889000086114	147	hunger	stimuli/foods\pear.jpg	1	2	1	pear	1	X	17	0	239	0		0	0	77.3574360999046	77.4574249999132
16962.25	0.0999862999888137	148	hunger	stimuli/foods\taco.jpg	1	2	1	taco	1	J	6	0	274	0		0	0	77.5074324000161	77.6074187000049
16999.75	0.0999853000976145	149	hunger	stimuli/non_foods\non-food_animate_dragonfly.jpg	1	2	1	non-food_animate_dragonfly	0	Z	18	0	108	0		0	0	77.6574310999131	77.7574164000107
17037.25	0.0999904000200331	150	hunger	stimuli/non_foods\non-food_animate_monkey.jpg	1	2	1	non-food_animate_monkey	0	N	10	0	130	0		0	0	77.807429999928	77.907420399948
17074.75	0.0999223999679089	151	hunger	stimuli/foods\cream_donuts.jpg	1	2	1	cream_donuts	1	S	13	0	39	0		0	0	77.95747569995	78.0573980999179
17112.25	0.0999842999735847	152	hunger	stimuli/non_foods\non-food_animate_cheetah.jpg	1	2	1	non-food_animate_cheetah	0	L	8	0	100	0		0	0	78.1074280999601	78.2074123999337
17149.75	0.0999859999865294	153	hunger	stimuli/non_foods\non-food_inanimate_bowling_ball.jpg	1	2	1	non-food_inanimate_bowling_ball	0	X	17	0	162	0		0	0	78.2574276999803	78.3574136999669
17187.25	0.0999524999642745	154	hunger	stimuli/foods\steak.jpg	1	2	1	steak	1	D	2	0	270	0		0	0	78.407426699996	78.5073791999603
17224.75	0.0999794999370351	155	hunger	stimuli/non_foods\non-food_inanimate_shell.jpg	1	2	1	non-food_inanimate_shell	0	M	9	0	206	0		0	0	78.5574219999835	78.6574014999205
17262.25	0.0999935000436381	156	hunger	stimuli/non_foods\non-food_inanimate_chandelier.jpg	1	2	1	non-food_inanimate_chandelier	0	F	3	0	173	0		0	0	78.7074125999352	78.8074060999788
17299.75	0.0999844000907615	157	hunger	stimuli/foods\ice_cream.jpg	1	2	1	ice_cream	1	S	13	0	68	0		0	0	78.8574212999083	78.9574056999991
17337.25	0.100032499991357	158	hunger	stimuli/non_foods\non-food_inanimate_watering_can.jpg	1	2	1	non-food_inanimate_watering_can	0	L	8	0	225	0		0	0	79.0074198999209	79.1074523999123
17374.75	0.0999810999492183	159	hunger	stimuli/foods\baked_cod_with_carrots_and_green_beans.jpg	1	2	1	baked_cod_with_carrots_and_green_beans	1	H	5	0	7	0		0	0	79.1574238999747	79.2574049999239
17412.25	0.0999955999432132	160	hunger	stimuli/non_foods\non-food_animate_cow.jpg	1	2	1	non-food_animate_cow	0	R	12	0	103	0		0	0	79.3073929999955	79.4073885999387
17449.75	0.100002399994992	161	hunger	stimuli/foods\prawn.jpg	1	2	1	prawn	1	W	16	0	249	0		0	0	79.4574001999572	79.5574025999522
17487.25	0.100016699987464	162	hunger	stimuli/foods\raw_ham.jpg	1	2	1	raw_ham	1	I	21	1	253	0		0	0	79.6074164999882	79.7074331999756
17524.75	0.0999365999596193	163	hunger	stimuli/foods\lemon.jpg	1	2	1	lemon	1	P	11	0	72	0		0	0	79.7574634000193	79.857399999979
17562.25	0.0999851999804378	164	hunger	stimuli/foods\frankfurter_and_provolone_salad.jpg	1	2	1	frankfurter_and_provolone_salad	1	K	7	0	49	0		0	0	79.9074109999929	80.0073961999733
17599.75	0.0999709999887273	165	hunger	stimuli/foods\fennel.jpg	1	2	1	fennel	1	R	12	0	47	0		0	0	80.0574110000161	80.1573820000049
17637.25	0.0999921999173239	166	hunger	stimuli/non_foods\non-food_inanimate_skirt.jpg	1	2	1	non-food_inanimate_skirt	0	S	13	0	209	1	a	0.706440999987535	1	80.207390800002	80.3073829999194
17674.75	0.099978799931705	167	hunger	stimuli/non_foods\non-food_animate_snail.jpg	1	2	1	non-food_animate_snail	0	X	17	0	149	0		0	0	80.3574153999798	80.4573941999115
17712.25	0.0999972999561578	168	hunger	stimuli/foods\blackberry.jpg	1	2	1	blackberry	1	K	7	0	11	0		0	0	80.5074108999688	80.607408199925
17749.75	0.0999872999964282	169	hunger	stimuli/non_foods\non-food_inanimate_leaf.jpg	1	2	1	non-food_inanimate_leaf	0	F	3	0	192	0		0	0	80.6574051999487	80.7573924999451
17787.25	0.0999674999620765	170	hunger	stimuli/foods\garlic.jpg	1	2	1	garlic	1	N	10	0	56	0		0	0	80.8074257000117	80.9073931999737
17824.75	0.0999872999964282	171	hunger	stimuli/non_foods\non-food_animate_sea_lion.jpg	1	2	1	non-food_animate_sea_lion	0	D	2	0	143	0		0	0	80.9574043999892	81.0573916999856
17862.25	0.0999828999629244	172	hunger	stimuli/non_foods\non-food_animate_elephant.jpg	1	2	1	non-food_animate_elephant	0	S	13	0	111	0		0	0	81.1074043000117	81.2073871999746
17899.75	0.0999838999705389	173	hunger	stimuli/non_foods\non-food_inanimate_fern.jpg	1	2	1	non-food_inanimate_fern	0	T	14	0	180	0		0	0	81.2574018000159	81.3573856999865
17937.25	0.100028100074269	174	hunger	stimuli/non_foods\non-food_inanimate_soccer_ball.jpg	1	2	1	non-food_inanimate_soccer_ball	0	N	10	0	210	0		0	0	81.4074035999365	81.5074317000108
17974.75	0.0999650000594556	175	hunger	stimuli/foods\fruit_flan.jpg	1	2	1	fruit_flan	1	W	16	0	53	0		0	0	81.5574171999469	81.6573822000064
18012.25	0.0999898000154644	176	hunger	stimuli/foods\ginger_root.jpg	1	2	1	ginger_root	1	K	7	0	57	0		0	0	81.7073966999305	81.807386499946
18049.75	0.0999854999827221	177	hunger	stimuli/non_foods\non-food_inanimate_table.jpg	1	2	1	non-food_inanimate_table	0	T	14	0	217	0		0	0	81.8573974999599	81.9573829999426
18087.25	0.099986599991098	178	hunger	stimuli/foods\salami.jpg	1	2	1	salami	1	G	4	0	263	0		0	0	82.0073959999718	82.1073825999629
18124.75	0.1000015999889	179	hunger	stimuli/non_foods\non-food_animate_porcupine.jpg	1	2	1	non-food_animate_porcupine	0	F	3	0	138	0		0	0	82.1573894999456	82.2573910999345
18162.25	0.100004800013267	180	hunger	stimuli/foods\donut.jpg	1	2	1	donut	1	P	11	0	44	0		0	0	82.3073755999794	82.4073803999927
18199.75	0.099987400113605	181	hunger	stimuli/non_foods\non-food_inanimate_button.jpg	1	2	1	non-food_inanimate_button	0	S	13	0	168	0		0	0	82.4573933999054	82.557380800019
18237.25	0.0999740000115708	182	hunger	stimuli/foods\baked_lamb_with_potatoes.jpg	1	2	1	baked_lamb_with_potatoes	1	B	0	0	8	0		0	0	82.6074012999889	82.7073753000004
18274.75	0.0999873999971896	183	hunger	stimuli/foods\mussels.jpg	1	2	1	mussels	1	D	2	0	86	0		0	0	82.7573885999154	82.8573759999126
18312.25	0.0999858999857679	184	hunger	stimuli/foods\oven-roasted_tomatoes.jpg	1	2	1	oven-roasted_tomatoes	1	R	12	0	232	0		0	0	82.9073902999517	83.0073761999374
18349.75	0.0999594000168145	185	hunger	stimuli/non_foods\non-food_inanimate_grass.jpg	1	2	1	non-food_inanimate_grass	0	T	14	0	184	0		0	0	83.057393199997	83.1573526000138
18387.25	0.1000099000521	186	hunger	stimuli/non_foods\non-food_animate_eagle.jpg	1	2	1	non-food_animate_eagle	0	D	2	0	110	0		0	0	83.2073993999511	83.3074093000032
18424.75	0.099994600052014	187	hunger	stimuli/foods\nectarine.jpg	1	2	1	nectarine	1	Z	18	0	87	0		0	0	83.3573789999355	83.4573735999875
18462.25	0.0999854999827221	188	hunger	stimuli/foods\raisins.jpg	1	2	1	raisins	1	S	13	0	252	0		0	0	83.5073838999961	83.6073693999788
18499.75	0.0999875999987125	189	hunger	stimuli/non_foods\non-food_animate_giraffe.jpg	1	2	1	non-food_animate_giraffe	0	M	9	0	115	0		0	0	83.6573816000018	83.7573692000005
18537.25	0.0999899000162259	190	hunger	stimuli/foods\pickles.jpg	1	2	1	pickles	1	S	13	0	242	0		0	0	83.8073812999064	83.9073711999226
18574.75	0.0999844000907615	191	hunger	stimuli/non_foods\non-food_animate_gorilla.jpg	1	2	1	non-food_animate_gorilla	0	J	6	0	116	0		0	0	83.9573804999236	84.0573649000144
18612.25	0.100000999984331	192	hunger	stimuli/non_foods\non-food_inanimate_construction_helment.jpg	1	2	1	non-food_inanimate_construction_helment	0	V	15	0	175	0		0	0	84.1073663999559	84.2073673999403
18649.75	0.0999887000070885	193	hunger	stimuli/non_foods\non-food_animate_bat.jpg	1	2	1	non-food_animate_bat	0	R	12	0	94	0		0	0	84.2573516999837	84.3573403999908
18687.25	0.100005300017074	194	hunger	stimuli/foods\apple.jpg	1	2	1	apple	1	H	5	0	1	0		0	0	84.4073620999698	84.5073673999868
18724.75	0.099981400067918	195	hunger	stimuli/non_foods\non-food_animate_dolphin.jpg	1	2	1	non-food_animate_dolphin	0	W	16	0	106	0		0	0	84.5573815999087	84.6573629999766
18762.25	0.0999591998988762	196	hunger	stimuli/non_foods\non-food_inanimate_bed.jpg	1	2	1	non-food_inanimate_bed	0	F	3	0	160	0		0	0	84.7073770000134	84.8073361999122
18799.75	0.0999873999971896	197	hunger	stimuli/non_foods\non-food_inanimate_chair.jpg	1	2	1	non-food_inanimate_chair	0	D	2	0	172	0		0	0	84.8573726000031	84.9573600000003
18837.25	0.0999904999043792	198	hunger	stimuli/non_foods\non-food_inanimate_jeans.jpg	1	2	1	non-food_inanimate_jeans	0	C	1	0	191	0		0	0	85.0073868000181	85.1073772999225
18874.75	0.0999520000768825	199	hunger	stimuli/foods\swordfish.jpg	1	2	1	swordfish	1	T	14	0	273	0		0	0	85.1574039999396	85.2573560000164
18912.25	0.099983699969016	200	hunger	stimuli/non_foods\non-food_animate_parrot.jpg	1	2	1	non-food_animate_parrot	0	G	4	0	133	0		0	0	85.3073742999695	85.4073579999385
18949.75	0.09998430009	201	hunger	stimuli/foods\oregano.jpg	1	2	1	oregano	1	C	1	0	231	0		0	0	85.4573635999113	85.5573479000013
18987.25	0.0999960000626743	202	hunger	stimuli/foods\pineapple.jpg	1	2	1	pineapple	1	N	10	0	243	0		0	0	85.6073609999148	85.7073569999775
19024.75	0.099998899968341	203	hunger	stimuli/non_foods\non-food_inanimate_skateboard.jpg	1	2	1	non-food_inanimate_skateboard	0	L	8	0	208	1	a	0	0	85.7573554000119	85.8573542999802
19062.25	0.100008800043724	204	hunger	stimuli/non_foods\non-food_inanimate_canoe.jpg	1	2	1	non-food_inanimate_canoe	0	E	20	1	170	0		0	0	85.907343299943	86.0073520999867
19099.75	0.0999905000207946	205	hunger	stimuli/non_foods\non-food_animate_sea_turtle.jpg	1	2	1	non-food_animate_sea_turtle	0	M	9	0	144	0		0	0	86.0573664999101	86.1573569999309
19137.25	0.0999620000366122	206	hunger	stimuli/non_foods\non-food_animate_killer_whale.jpg	1	2	1	non-food_animate_killer_whale	0	R	12	0	123	0		0	0	86.207386199967	86.3073482000036
19174.75	0.0999888000078499	207	hunger	stimuli/foods\salmon.jpg	1	2	1	salmon	1	J	6	0	264	0		0	0	86.357362199924	86.4573509999318
19212.25	0.0999831000808626	208	hunger	stimuli/foods\hotdog.jpg	1	2	1	hotdog	1	L	8	0	67	1	a	0.691843000007793	1	86.507360199932	86.6073433000129
19249.75	0.0999925000360236	209	hunger	stimuli/foods\mango.jpg	1	2	1	mango	1	K	7	0	80	0		0	0	86.657353599905	86.7573460999411
19287.25	0.0999896000139415	210	hunger	stimuli/non_foods\non-food_animate_bee.jpg	1	2	1	non-food_animate_bee	0	C	1	0	95	0		0	0	86.8073753999779	86.9073649999918
19324.75	0.0999759000260383	211	hunger	stimuli/non_foods\non-food_inanimate_tree.jpg	1	2	1	non-food_inanimate_tree	0	R	12	0	223	0		0	0	86.9573511999333	87.0573270999594
19362.25	0.0999541999772191	212	hunger	stimuli/non_foods\non-food_inanimate_fire_extinguisher.jpg	1	2	1	non-food_inanimate_fire_extinguisher	0	H	5	0	181	0		0	0	87.1073575000046	87.2073116999818
19399.75	0.0999586000107229	213	hunger	stimuli/foods\linguine_with_clams.jpg	1	2	1	linguine_with_clams	1	X	17	0	77	0		0	0	87.2573604999343	87.357319099945
19437.25	0.0999840000877157	214	hunger	stimuli/foods\rice_cake.jpg	1	2	1	rice_cake	1	J	6	0	258	0		0	0	87.4073559999233	87.507340000011
19474.75	0.0999873999971896	215	hunger	stimuli/non_foods\non-food_animate_chicken.jpg	1	2	1	non-food_animate_chicken	0	R	12	0	101	0		0	0	87.5573518999154	87.6573392999126
19512.25	0.0999812999507412	216	hunger	stimuli/foods\fries.jpg	1	2	1	fries	1	L	8	0	52	0		0	0	87.7073558999691	87.8073371999199
19549.75	0.0999999999767169	217	hunger	stimuli/foods\onion.jpg	1	2	1	onion	1	P	11	0	229	0		0	0	87.8573284000158	87.9573283999925
19587.25	0.0999756000237539	218	hunger	stimuli/non_foods\non-food_animate_hummingbird.jpg	1	2	1	non-food_animate_hummingbird	0	N	10	0	120	0		0	0	88.0073352999752	88.107310899999
19624.75	0.0999856000998989	219	hunger	stimuli/non_foods\non-food_inanimate_cactus_pot_plant.jpg	1	2	1	non-food_inanimate_cactus_pot_plant	0	X	17	0	169	0		0	0	88.1573397999164	88.2573254000163
19662.25	0.0999954000581056	220	hunger	stimuli/non_foods\non-food_inanimate_padlock.jpg	1	2	1	non-food_inanimate_padlock	0	Z	18	0	199	0		0	0	88.3073401999427	88.4073356000008
19699.75	0.0999944000504911	221	hunger	stimuli/foods\waffle.jpg	1	2	1	waffle	1	X	17	0	278	0		0	0	88.4573494999204	88.5573438999709
19737.25	0.0999768999172375	222	hunger	stimuli/foods\radish.jpg	1	2	1	radish	1	K	7	0	251	0		0	0	88.6073555999901	88.7073324999074
19774.75	0.0999871999956667	223	hunger	stimuli/non_foods\non-food_animate_young_boy.jpg	1	2	1	non-food_animate_young_boy	0	B	0	0	156	0		0	0	88.757345299935	88.8573324999306
19812.25	0.0999902999028563	224	hunger	stimuli/non_foods\non-food_inanimate_toy_airplane.jpg	1	2	1	non-food_inanimate_toy_airplane	0	X	17	0	222	0		0	0	88.9073380000191	89.0073282999219
19849.75	0.0999722999986261	225	hunger	stimuli/foods\minestrone_soup.jpg	1	2	1	minestrone_soup	1	W	16	0	82	0		0	0	89.0573412999511	89.1573135999497
19887.25	0.099971599993296	226	hunger	stimuli/non_foods\non-food_inanimate_broom.jpg	1	2	1	non-food_inanimate_broom	0	B	0	0	164	0		0	0	89.2073449000018	89.3073164999951
19924.75	0.0999852999811992	227	hunger	stimuli/foods\pepperoni_pizza.jpg	1	2	1	pepperoni_pizza	1	W	16	0	241	0		0	0	89.3573325999314	89.4573178999126
19962.25	0.0999883000040427	228	hunger	stimuli/foods\rice.jpg	1	2	1	rice	1	X	17	0	257	0		0	0	89.5073302999372	89.6073185999412
19999.75	0.0999977999599651	229	hunger	stimuli/foods\museli_bars.jpg	1	2	1	museli_bars	1	B	0	0	84	0		0	0	89.6573300999589	89.7573278999189
20037.25	0.0999932000413537	230	hunger	stimuli/non_foods\non-food_animate_raccoon.jpg	1	2	1	non-food_animate_raccoon	0	F	3	0	139	0		0	0	89.8073257999495	89.9073189999908
20074.75	0.0999841999728233	231	hunger	stimuli/foods\raw_sausage.jpg	1	2	1	raw_sausage	1	H	5	0	254	0		0	0	89.9573305000085	90.0573146999814
20112.25	0.0999931999249384	232	hunger	stimuli/non_foods\non-food_inanimate_moss.jpg	1	2	1	non-food_inanimate_moss	0	S	13	0	194	0		0	0	90.1073271000059	90.2073202999309
20149.75	0.0999910000246018	233	hunger	stimuli/non_foods\non-food_inanimate_couch.jpg	1	2	1	non-food_inanimate_couch	0	Z	18	0	176	0		0	0	90.2573313999455	90.3573223999701
20187.25	0.0999406999908388	234	hunger	stimuli/non_foods\non-food_inanimate_bicycle.jpg	1	2	1	non-food_inanimate_bicycle	0	H	5	0	161	0		0	0	90.4073763999622	90.5073170999531
20224.75	0.0999924000352621	235	hunger	stimuli/non_foods\non-food_animate_student_female.jpg	1	2	1	non-food_animate_student_female	0	Z	18	0	151	0		0	0	90.557321799919	90.6573141999543
20262.25	0.0999866999918595	236	hunger	stimuli/non_foods\non-food_inanimate_teddy_bear.jpg	1	2	1	non-food_inanimate_teddy_bear	0	W	16	0	218	0		0	0	90.7073297000024	90.8073163999943
20299.75	0.0999875999987125	237	hunger	stimuli/non_foods\non-food_inanimate_gloves.jpg	1	2	1	non-food_inanimate_gloves	0	G	4	0	183	0		0	0	90.8573268000036	90.9573144000024
20337.25	0.0999856000998989	238	hunger	stimuli/foods\hazelnuts.jpg	1	2	1	hazelnuts	1	W	16	0	65	0		0	0	91.0073264999082	91.1073121000081
20374.75	0.0999964000657201	239	hunger	stimuli/non_foods\non-food_inanimate_clover.jpg	1	2	1	non-food_inanimate_clover	0	R	12	0	174	0		0	0	91.1573263999308	91.2573227999965
20412.25	0.0999862999888137	240	hunger	stimuli/foods\pumpkin.jpg	1	2	1	pumpkin	1	L	8	0	250	0		0	0	91.3073233999312	91.40730969992
20449.75	0.0999871999956667	241	hunger	stimuli/foods\peas.jpg	1	2	1	peas	1	V	15	0	240	0		0	0	91.4573220999446	91.5573092999402
20487.25	0.0999842999735847	242	hunger	stimuli/foods\cannoli.jpg	1	2	1	cannoli	1	H	5	0	17	0		0	0	91.6073214999633	91.7073057999369
20524.75	0.0999844999751076	243	hunger	stimuli/non_foods\non-food_animate_fox.jpg	1	2	1	non-food_animate_fox	0	L	8	0	112	0		0	0	91.7573205999797	91.8573050999548
20562.25	0.0999840000877157	244	hunger	stimuli/non_foods\non-food_inanimate_wrench.jpg	1	2	1	non-food_inanimate_wrench	0	P	11	0	227	0		0	0	91.9073229999049	92.0073069999926
20599.75	0.100014999974519	245	hunger	stimuli/foods\apricot.jpg	1	2	1	apricot	1	M	9	0	2	0		0	0	92.0573159999913	92.1573309999658
20637.25	0.0999378000851721	246	hunger	stimuli/foods\hamburger.jpg	1	2	1	hamburger	1	L	8	0	64	0		0	0	92.2073656999273	92.3073035000125
20674.75	0.0999840999720618	247	hunger	stimuli/foods\omelette.jpg	1	2	1	omelette	1	C	1	0	228	0		0	0	92.3573177999351	92.4573018999072
20712.25	0.0999855999834836	248	hunger	stimuli/foods\corncob.jpg	1	2	1	corncob	1	X	17	0	37	0		0	0	92.5073140999302	92.6072996999137
20749.75	0.0999896000139415	249	hunger	stimuli/foods\lettuce.jpg	1	2	1	lettuce	1	V	15	0	75	0		0	0	92.6573103999253	92.7572999999393
20787.25	0.0999851999804378	250	hunger	stimuli/foods\cucumber.jpg	1	2	1	cucumber	1	J	6	0	41	0		0	0	92.8073117999593	92.9072969999397
20824.75	0.0999878000002354	251	hunger	stimuli/foods\peach.jpg	1	2	1	peach	1	B	0	0	238	1	a	0	0	92.9573074999498	93.0572952999501
20862.25	0.0999863999895751	252	hunger	stimuli/non_foods\non-food_inanimate_nailpolish.jpg	1	2	1	non-food_inanimate_nailpolish	0	M	9	0	195	0		0	0	93.1073105999967	93.2072969999863
20899.75	0.0999686999712139	253	hunger	stimuli/non_foods\non-food_animate_clown.jpg	1	2	1	non-food_animate_clown	0	T	14	0	102	0		0	0	93.2573245000094	93.3572931999806
20937.25	0.0999847000930458	254	hunger	stimuli/foods\savory_pie.jpg	1	2	1	savory_pie	1	L	8	0	265	0		0	0	93.40730969992	93.5072944000131
20974.75	0.0999796000542119	255	hunger	stimuli/foods\bagel.jpg	1	2	1	bagel	1	T	14	0	6	0		0	0	93.5573098999448	93.657289499999
21012.25	0.100005000014789	256	hunger	stimuli/non_foods\non-food_animate_duck.jpg	1	2	1	non-food_animate_duck	0	G	4	0	109	0		0	0	93.7072871999117	93.8072921999265
21049.75	0.100016799988225	257	hunger	stimuli/foods\lentils.jpg	1	2	1	lentils	1	C	1	0	74	0		0	0	93.8572894999525	93.9573062999407
21087.25	0.0999398999847472	258	hunger	stimuli/non_foods\non-food_inanimate_stapler.jpg	1	2	1	non-food_inanimate_stapler	0	R	12	0	213	0		0	0	94.0073283999227	94.1072682999074
21124.75	0.0999903000192717	259	hunger	stimuli/foods\cupcake.jpg	1	2	1	cupcake	1	X	17	0	42	0		0	0	94.157299799961	94.2572900999803
21162.25	0.0999805999454111	260	hunger	stimuli/foods\fried_calamari.jpg	1	2	1	fried_calamari	1	D	2	0	50	0		0	0	94.3072998999851	94.4072804999305
21199.75	0.0999881000025198	261	hunger	stimuli/non_foods\non-food_animate_lion.jpg	1	2	1	non-food_animate_lion	0	H	5	0	125	0		0	0	94.4572915999452	94.5572796999477
21237.25	0.0999833999667317	262	hunger	stimuli/non_foods\non-food_animate_woman.jpg	1	2	1	non-food_animate_woman	0	G	4	0	154	0		0	0	94.6072915999684	94.7072749999352
21274.75	0.0999869999941438	263	hunger	stimuli/non_foods\non-food_inanimate_lighter.jpg	1	2	1	non-food_inanimate_lighter	0	F	3	0	193	0		0	0	94.7572860999499	94.857273099944
21312.25	0.0999996999744326	264	hunger	stimuli/non_foods\non-food_inanimate_drum_set.jpg	1	2	1	non-food_inanimate_drum_set	0	T	14	0	179	0		0	0	94.9072853999678	95.0072850999422
21349.75	0.0999710999894887	265	hunger	stimuli/non_foods\non-food_animate_runner.jpg	1	2	1	non-food_animate_runner	0	M	9	0	142	0		0	0	95.057311499957	95.1572825999465
21387.25	0.0999907000223175	266	hunger	stimuli/foods\cooked_prawn.jpg	1	2	1	cooked_prawn	1	V	15	0	36	0		0	0	95.2072868999094	95.3072775999317
21424.75	0.100007400033064	267	hunger	stimuli/foods\rockmelon.jpg	1	2	1	rockmelon	1	F	3	0	262	0		0	0	95.3572739999508	95.4572813999839
21462.25	0.0999830999644473	268	hunger	stimuli/foods\lamb_chops.jpg	1	2	1	lamb_chops	1	L	8	0	70	0		0	0	95.5072906999849	95.6072737999493
21499.75	0.100012099952437	269	hunger	stimuli/non_foods\non-food_animate_deer.jpg	1	2	1	non-food_animate_deer	0	C	1	0	105	0		0	0	95.6572996999603	95.7573117999127
21537.25	0.0999723999993876	270	hunger	stimuli/non_foods\non-food_inanimate_scissors.jpg	1	2	1	non-food_inanimate_scissors	0	Z	18	0	205	0		0	0	95.8072878000094	95.9072602000087
21574.75	0.100004000007175	271	hunger	stimuli/foods\mandarin.jpg	1	2	1	mandarin	1	V	15	0	79	0		0	0	95.9572586999275	96.0572626999347
21612.25	0.0999815999530256	272	hunger	stimuli/foods\pork_and_rice.jpg	1	2	1	pork_and_rice	1	C	1	0	245	0		0	0	96.107282300014	96.2072638999671
21649.75	0.0999860999872908	273	hunger	stimuli/non_foods\non-food_inanimate_cap.jpg	1	2	1	non-food_inanimate_cap	0	B	0	0	171	0		0	0	96.2572766999947	96.357262799982
21687.25	0.0999811000656337	274	hunger	stimuli/foods\cherry.jpg	1	2	1	cherry	1	Z	18	0	23	0		0	0	96.407278599916	96.5072596999817
21724.75	0.0999965000664815	275	hunger	stimuli/non_foods\non-food_inanimate_desk.jpg	1	2	1	non-food_inanimate_desk	0	N	10	0	178	1	a	0	0	96.5572747999104	96.6572712999769
21762.25	0.0999726000009105	276	hunger	stimuli/foods\pasta_carbonara.jpg	1	2	1	pasta_carbonara	1	F	3	0	236	0		0	0	96.7072852000128	96.8072578000138
21799.75	0.0999673999613151	277	hunger	stimuli/foods\red_cabbage.jpg	1	2	1	red_cabbage	1	M	9	0	256	0		0	0	96.8572979000164	96.9572652999777
21837.25	0.0999955999432132	278	hunger	stimuli/non_foods\non-food_inanimate_hammer.jpg	1	2	1	non-food_inanimate_hammer	0	P	11	0	186	0		0	0	97.0072728999658	97.107268499909
21874.75	0.100013800081797	279	hunger	stimuli/non_foods\non-food_animate_squirrel.jpg	1	2	1	non-food_animate_squirrel	0	B	0	0	150	0		0	0	97.1572501999326	97.2572640000144
22854	0.0999670999590307	280	hunger	stimuli/non_foods\non-food_inanimate_sun_flower.jpg	1	3	1	non-food_inanimate_sun_flower	0	X	17	0	216	0		0	0	101.073918099981	101.17388519994
22891.5	0.0999808999476954	281	hunger	stimuli/foods\blackberry.jpg	1	3	1	blackberry	1	Z	18	0	11	0		0	0	101.2239175	101.323898399947
22929	0.0999548000982031	282	hunger	stimuli/non_foods\non-food_inanimate_construction_helment.jpg	1	3	1	non-food_inanimate_construction_helment	0	L	8	0	175	0		0	0	101.373918199912	101.47387300001
22966.5	0.100000299979001	283	hunger	stimuli/foods\potato_chips.jpg	1	3	1	potato_chips	1	S	13	0	247	0		0	0	101.523903299938	101.623903599917
23004	0.099995500058867	284	hunger	stimuli/foods\cooked_ham.jpg	1	3	1	cooked_ham	1	L	8	0	35	0		0	0	101.673902999959	101.773898500018
23041.5	0.0999863999895751	285	hunger	stimuli/non_foods\non-food_inanimate_bicycle.jpg	1	3	1	non-food_inanimate_bicycle	0	V	15	0	161	0		0	0	101.823911499931	101.92389789992
23079	0.0999837999697775	286	hunger	stimuli/foods\grapes.jpg	1	3	1	grapes	1	W	16	0	60	0		0	0	101.973901499994	102.073885299964
23116.5	0.100022100028582	287	hunger	stimuli/non_foods\non-food_animate_student_female.jpg	1	3	1	non-food_animate_student_female	0	B	0	0	151	0		0	0	102.12388999993	102.223912099958
23154	0.0999637999339029	288	hunger	stimuli/foods\meatballs.jpg	1	3	1	meatballs	1	S	13	0	81	0		0	0	102.273927300004	102.373891099938
23191.5	0.0999803999438882	289	hunger	stimuli/foods\lollies.jpg	1	3	1	lollies	1	F	3	0	78	0		0	0	102.423905499978	102.523885899922
23229	0.0999879000009969	290	hunger	stimuli/non_foods\non-food_inanimate_hay.jpg	1	3	1	non-food_inanimate_hay	0	G	4	0	187	0		0	0	102.573897599941	102.673885499942
23266.5	0.0999837999697775	291	hunger	stimuli/non_foods\non-food_animate_skunk.jpg	1	3	1	non-food_animate_skunk	0	Z	18	0	147	0		0	0	102.723898099968	102.823881899938
23304	0.0999942000489682	292	hunger	stimuli/foods\brie.jpg	1	3	1	brie	1	R	12	0	12	0		0	0	102.873894799966	102.973889000015
23341.5	0.0999962000641972	293	hunger	stimuli/non_foods\non-food_animate_alligator.jpg	1	3	1	non-food_animate_alligator	0	P	11	0	90	0		0	0	103.023888799944	103.123885000008
23379	0.0999878000002354	294	hunger	stimuli/non_foods\non-food_animate_woman.jpg	1	3	1	non-food_animate_woman	0	V	15	0	154	0		0	0	103.173897199915	103.273884999915
23416.5	0.0999959000619128	295	hunger	stimuli/foods\salmon.jpg	1	3	1	salmon	1	Z	18	0	264	0		0	0	103.32389879995	103.423894700012
23454	0.099984799977392	296	hunger	stimuli/foods\chocolate_bar.jpg	1	3	1	chocolate_bar	1	V	15	0	26	0		0	0	103.473897199961	103.573881999939
23491.5	0.099983699969016	297	hunger	stimuli/foods\asparagus.jpg	1	3	1	asparagus	1	G	4	0	4	0		0	0	103.623898999998	103.723882699967
23529	0.0999482000479475	298	hunger	stimuli/non_foods\non-food_inanimate_rack.jpg	1	3	1	non-food_inanimate_rack	0	P	11	0	202	0		0	0	103.773905999959	103.873854200006
23566.5	0.100008599925786	299	hunger	stimuli/non_foods\non-food_animate_grasshopper.jpg	1	3	1	non-food_animate_grasshopper	0	W	16	0	117	0		0	0	103.923892799998	104.023901399923
23604	0.0999329999322072	300	hunger	stimuli/foods\garlic.jpg	1	3	1	garlic	1	C	1	0	56	0		0	0	104.073947599973	104.173880599905
23641.5	0.0999857001006603	301	hunger	stimuli/foods\savory_pie.jpg	1	3	1	savory_pie	1	G	4	0	265	0		0	0	104.223890699912	104.323876400013
23679	0.0999868999933824	302	hunger	stimuli/non_foods\non-food_animate_seal.jpg	1	3	1	non-food_animate_seal	0	S	13	0	146	0		0	0	104.37388999993	104.473876899923
23716.5	0.0999861999880522	303	hunger	stimuli/foods\hazelnuts.jpg	1	3	1	hazelnuts	1	B	0	0	65	0		0	0	104.523889999953	104.623876199941
23754	0.0999852999811992	304	hunger	stimuli/non_foods\non-food_animate_sea_turtle.jpg	1	3	1	non-food_animate_sea_turtle	0	T	14	0	144	0		0	0	104.673886899953	104.773872199934
23791.5	0.0999821999575943	305	hunger	stimuli/non_foods\non-food_animate_rhino.jpg	1	3	1	non-food_animate_rhino	0	S	13	0	141	0		0	0	104.823889199994	104.923871399951
23829	0.0999841999728233	306	hunger	stimuli/non_foods\non-food_animate_lion.jpg	1	3	1	non-food_animate_lion	0	X	17	0	125	0		0	0	104.973886899999	105.073871099972
23866.5	0.0999675000784919	307	hunger	stimuli/foods\toasted_bread_with_tomatoes.jpg	1	3	1	toasted_bread_with_tomatoes	1	W	16	0	275	0		0	0	105.123902299907	105.223869799986
23904	0.0999801000580192	308	hunger	stimuli/foods\cinnamon_sroll.jpg	1	3	1	cinnamon_sroll	1	K	7	0	31	0		0	0	105.273884799914	105.373864899972
23941.25	0.0999858999857679	309	hunger	stimuli/foods\peas.jpg	1	3	1	peas	1	Z	18	0	240	0		0	0	105.423875099979	105.523860999965
23978.75	0.0999882000032812	310	hunger	stimuli/non_foods\non-food_inanimate_toilet.jpg	1	3	1	non-food_inanimate_toilet	0	T	14	0	220	0		0	0	105.573872499983	105.673860699986
24016.25	0.0999759000260383	311	hunger	stimuli/non_foods\non-food_inanimate_nailpolish.jpg	1	3	1	non-food_inanimate_nailpolish	0	O	22	1	195	0		0	0	105.72388309997	105.823858999996
24054	0.0999494000570849	312	hunger	stimuli/non_foods\non-food_animate_green_bug.jpg	1	3	1	non-food_animate_green_bug	0	H	5	0	118	0		0	0	105.873904499924	105.973853899981
24091.25	0.0999763000290841	313	hunger	stimuli/non_foods\non-food_animate_young_girl.jpg	1	3	1	non-food_animate_young_girl	0	M	9	0	157	1	a	0.391811099951155	1	106.023870099918	106.123846399947
24128.75	0.100001799990423	314	hunger	stimuli/foods\bagel.jpg	1	3	1	bagel	1	C	1	0	6	0		0	0	106.173861299991	106.273863099981
24166.25	0.100000499980524	315	hunger	stimuli/non_foods\non-food_animate_seahorse.jpg	1	3	1	non-food_animate_seahorse	0	P	11	0	145	0		0	0	106.323860900011	106.423861399991
24204	0.0999717999948189	316	hunger	stimuli/foods\pasta_carbonara.jpg	1	3	1	pasta_carbonara	1	C	1	0	236	0		0	0	106.473875299911	106.573847099906
24241.25	0.0999773000366986	317	hunger	stimuli/non_foods\non-food_inanimate_leaf.jpg	1	3	1	non-food_inanimate_leaf	0	H	5	0	192	0		0	0	106.623872799915	106.723850099952
24278.75	0.0999789999332279	318	hunger	stimuli/foods\frankfurter_and_provolone_salad.jpg	1	3	1	frankfurter_and_provolone_salad	1	C	1	0	49	0		0	0	106.773864399991	106.873843399924
24316.5	0.0999846999766305	319	hunger	stimuli/foods\cabbage.jpg	1	3	1	cabbage	1	M	9	0	16	0		0	0	106.923863100004	107.023847799981
24353.75	0.0999824999598786	320	hunger	stimuli/foods\honey.jpg	1	3	1	honey	1	W	16	0	66	0		0	0	107.073860100005	107.173842599965
24391.25	0.0999925000360236	321	hunger	stimuli/foods\cereal.jpg	1	3	1	cereal	1	K	7	0	22	0		0	0	107.223863099935	107.323855599971
24428.75	0.0999882000032812	322	hunger	stimuli/foods\cannoli.jpg	1	3	1	cannoli	1	D	2	0	17	0		0	0	107.373866799986	107.473854999989
24466.25	0.0999988000839949	323	hunger	stimuli/foods\lasagna.jpg	1	3	1	lasagna	1	M	9	0	71	0		0	0	107.523868599907	107.623867399991
24504	0.0999761000275612	324	hunger	stimuli/foods\fruit_pie.jpg	1	3	1	fruit_pie	1	L	8	0	54	0		0	0	107.673885699944	107.773861799971
24541.25	0.10001439996995	325	hunger	stimuli/foods\lime.jpg	1	3	1	lime	1	N	10	0	76	0		0	0	107.823836799944	107.923851199914
24578.75	0.0999881000025198	326	hunger	stimuli/foods\orange.jpg	1	3	1	orange	1	U	23	1	230	0		0	0	107.973860399914	108.073848499916
24616.25	0.0999840999720618	327	hunger	stimuli/non_foods\non-food_animate_owl.jpg	1	3	1	non-food_animate_owl	0	P	11	0	132	0		0	0	108.123862299952	108.223846399924
24653.75	0.0999802999431267	328	hunger	stimuli/non_foods\non-food_animate_peacock.jpg	1	3	1	non-food_animate_peacock	0	D	2	0	134	0		0	0	108.273861099966	108.373841399909
24691.25	0.099989700014703	329	hunger	stimuli/foods\papaya.jpg	1	3	1	papaya	1	M	9	0	235	0		0	0	108.423859399976	108.523849099991
24728.75	0.0999826999614015	330	hunger	stimuli/foods\hamburger.jpg	1	3	1	hamburger	1	H	5	0	64	0		0	0	108.573860200006	108.673842899967
24766.5	0.0999742000130937	331	hunger	stimuli/foods\museli_bars.jpg	1	3	1	museli_bars	1	P	11	0	84	0		0	0	108.723870599992	108.823844800005
24803.75	0.0999826000770554	332	hunger	stimuli/non_foods\non-food_inanimate_fire_extinguisher.jpg	1	3	1	non-food_inanimate_fire_extinguisher	0	K	7	0	181	0		0	0	108.873858899926	108.973841500003
24841.25	0.0999875999987125	333	hunger	stimuli/foods\almonds.jpg	1	3	1	almonds	1	B	0	0	0	0		0	0	109.023853899911	109.12384149991
24878.75	0.0999894000124186	334	hunger	stimuli/foods\mushroom.jpg	1	3	1	mushroom	1	X	17	0	85	0		0	0	109.173854799941	109.273844199954
24916.25	0.100000499980524	335	hunger	stimuli/foods\nectarine.jpg	1	3	1	nectarine	1	P	11	0	87	0		0	0	109.323858999996	109.423859499977
24954	0.0999542999779806	336	hunger	stimuli/foods\spring_onions.jpg	1	3	1	spring_onions	1	X	17	0	269	0		0	0	109.473883399973	109.573837699951
24991.25	0.0999840999720618	337	hunger	stimuli/foods\raw_sausage.jpg	1	3	1	raw_sausage	1	R	12	0	254	0		0	0	109.623851299984	109.723835399956
25028.75	0.0999869999941438	338	hunger	stimuli/foods\artichoke.jpg	1	3	1	artichoke	1	M	9	0	3	0		0	0	109.77384769998	109.873834699974
25066.25	0.0999883000040427	339	hunger	stimuli/non_foods\non-food_inanimate_bowling_ball.jpg	1	3	1	non-food_inanimate_bowling_ball	0	S	13	0	162	0		0	0	109.923847099999	110.023835400003
25103.75	0.0999831000808626	340	hunger	stimuli/foods\cracker.jpg	1	3	1	cracker	1	X	17	0	38	0		0	0	110.073847099906	110.173830199987
25141.25	0.0999694000929594	341	hunger	stimuli/foods\baked_cod_with_carrots_and_green_beans.jpg	1	3	1	baked_cod_with_carrots_and_green_beans	1	V	15	0	7	0		0	0	110.223845799919	110.323815200012
25178.75	0.0999723999993876	342	hunger	stimuli/foods\watermelon.jpg	1	3	1	watermelon	1	C	1	0	279	0		0	0	110.373850399978	110.473822799977
25216.25	0.0999826000770554	343	hunger	stimuli/non_foods\non-food_animate_deer.jpg	1	3	1	non-food_animate_deer	0	T	14	0	105	0		0	0	110.523837899906	110.623820499983
25253.75	0.0999838000861928	344	hunger	stimuli/foods\pineapple.jpg	1	3	1	pineapple	1	H	5	0	243	0		0	0	110.673836899921	110.773820700007
25291.25	0.0999864001059905	345	hunger	stimuli/non_foods\non-food_animate_elephant.jpg	1	3	1	non-food_animate_elephant	0	N	10	0	111	0		0	0	110.823831699905	110.923818100011
25328.75	0.0999907000223175	346	hunger	stimuli/non_foods\non-food_animate_penguin.jpg	1	3	1	non-food_animate_penguin	0	C	1	0	135	0		0	0	110.973836899968	111.07382759999
25366.5	0.0999717999948189	347	hunger	stimuli/non_foods\non-food_inanimate_headphones.jpg	1	3	1	non-food_inanimate_headphones	0	L	8	0	188	0		0	0	111.123857799917	111.223829599912
25403.75	0.0999712001066655	348	hunger	stimuli/foods\fennel.jpg	1	3	1	fennel	1	P	11	0	47	0		0	0	111.273854099913	111.373825300019
25441.25	0.0999861999880522	349	hunger	stimuli/foods\pancakes.jpg	1	3	1	pancakes	1	G	4	0	234	0		0	0	111.423838399933	111.523824599921
25478.75	0.0999844999751076	350	hunger	stimuli/foods\fried_calamari.jpg	1	3	1	fried_calamari	1	P	11	0	50	0		0	0	111.573835499934	111.673819999909
25516.25	0.0999894000124186	351	hunger	stimuli/foods\raw_ham.jpg	1	3	1	raw_ham	1	T	14	0	253	0		0	0	111.723832899937	111.82382229995
25553.75	0.100003600004129	352	hunger	stimuli/non_foods\non-food_inanimate_gloves.jpg	1	3	1	non-food_inanimate_gloves	0	W	16	0	183	0		0	0	111.873830799945	111.973834399949
25591.25	0.100006000022404	353	hunger	stimuli/foods\mortadella.jpg	1	3	1	mortadella	1	H	5	0	83	0		0	0	112.02381049993	112.123816499952
25628.75	0.100003500003368	354	hunger	stimuli/non_foods\non-food_inanimate_table.jpg	1	3	1	non-food_inanimate_table	0	R	12	0	217	0		0	0	112.173829899984	112.273833399988
25666.5	0.099983699969016	355	hunger	stimuli/foods\cherry.jpg	1	3	1	cherry	1	D	2	0	23	0		0	0	112.323842599988	112.423826299957
25703.75	0.0999856000998989	356	hunger	stimuli/non_foods\non-food_inanimate_scissors.jpg	1	3	1	non-food_inanimate_scissors	0	J	6	0	205	0		0	0	112.473828899907	112.573814500007
25741.25	0.0999889000086114	357	hunger	stimuli/non_foods\non-food_inanimate_tulip.jpg	1	3	1	non-food_inanimate_tulip	0	L	8	0	224	0		0	0	112.623827099917	112.723815999925
25778.75	0.0999859999865294	358	hunger	stimuli/foods\grilled_chicken_breast.jpg	1	3	1	grilled_chicken_breast	1	P	11	0	63	0		0	0	112.773826499935	112.873812499922
25816.25	0.0999640999361873	359	hunger	stimuli/foods\apricot.jpg	1	3	1	apricot	1	N	10	0	2	0		0	0	112.92384589999	113.023809999926
25853.75	0.0999833999667317	360	hunger	stimuli/non_foods\non-food_animate_clown.jpg	1	3	1	non-food_animate_clown	0	B	0	0	102	0		0	0	113.073827199987	113.173810599954
25891.25	0.0999879000009969	361	hunger	stimuli/non_foods\non-food_inanimate_short_sleeved_shirt.jpg	1	3	1	non-food_inanimate_short_sleeved_shirt	0	R	12	0	207	0		0	0	113.223823499982	113.323811399983
25928.75	0.0999913000268862	362	hunger	stimuli/foods\chilli.jpg	1	3	1	chilli	1	K	7	0	25	0		0	0	113.373819199973	113.4738105
25966.25	0.0999773999210447	363	hunger	stimuli/non_foods\non-food_inanimate_tree.jpg	1	3	1	non-food_inanimate_tree	0	S	13	0	223	0		0	0	113.523821900017	113.623799299938
26003.75	0.0999846999766305	364	hunger	stimuli/foods\corncob.jpg	1	3	1	corncob	1	V	15	0	37	0		0	0	113.673811599961	113.773796299938
26041.25	0.100013899966143	365	hunger	stimuli/foods\cream_donuts.jpg	1	3	1	cream_donuts	1	J	6	0	39	0		0	0	113.823795099976	113.923808999942
26078.75	0.099999799975194	366	hunger	stimuli/non_foods\non-food_inanimate_cactus_pot_plant.jpg	1	3	1	non-food_inanimate_cactus_pot_plant	0	P	11	0	169	0		0	0	113.973804699956	114.073804499931
26116.25	0.0999935000436381	367	hunger	stimuli/non_foods\non-food_animate_cat.jpg	1	3	1	non-food_animate_cat	0	C	1	0	98	0		0	0	114.123819499975	114.223813000019
26153.75	0.0999878000002354	368	hunger	stimuli/non_foods\non-food_inanimate_stoplight.jpg	1	3	1	non-food_inanimate_stoplight	0	N	10	0	214	0		0	0	114.273815399967	114.373803199967
26191.25	0.0999850999796763	369	hunger	stimuli/non_foods\non-food_inanimate_highlighter.jpg	1	3	1	non-food_inanimate_highlighter	0	H	5	0	189	0		0	0	114.423813199974	114.523798299953
26228.75	0.100001099985093	370	hunger	stimuli/foods\chocolate_chip_cookies.jpg	1	3	1	chocolate_chip_cookies	1	L	8	0	27	0		0	0	114.573810099973	114.673811199958
26266.5	0.0999364000745118	371	hunger	stimuli/non_foods\non-food_animate_squirrel.jpg	1	3	1	non-food_animate_squirrel	0	B	0	0	150	0		0	0	114.723860799917	114.823797199992
26303.75	0.100005199899897	372	hunger	stimuli/non_foods\non-food_animate_yellow_bug.jpg	1	3	1	non-food_animate_yellow_bug	0	W	16	0	155	0		0	0	114.873792800005	114.973797999904
26341.25	0.0999528999673203	373	hunger	stimuli/non_foods\non-food_inanimate_orchid.jpg	1	3	1	non-food_inanimate_orchid	0	S	13	0	198	0		0	0	115.023828299949	115.123781199916
26378.75	0.100000099977478	374	hunger	stimuli/foods\fruit_salad.jpg	1	3	1	fruit_salad	1	W	16	0	55	0		0	0	115.173792799935	115.273792899912
26416.25	0.0999870999949053	375	hunger	stimuli/non_foods\non-food_inanimate_canoe.jpg	1	3	1	non-food_inanimate_canoe	0	D	2	0	170	0		0	0	115.323807199951	115.423794299946
26453.75	0.0999866999918595	376	hunger	stimuli/foods\linguine_with_clams.jpg	1	3	1	linguine_with_clams	1	S	13	0	77	0		0	0	115.473808899987	115.573795599979
26491.25	0.0999873999971896	377	hunger	stimuli/non_foods\non-food_animate_lizard.jpg	1	3	1	non-food_animate_lizard	0	Z	18	0	126	0		0	0	115.623804499977	115.723791899974
26528.75	0.100010099937208	378	hunger	stimuli/non_foods\non-food_inanimate_pine_cone.jpg	1	3	1	non-food_inanimate_pine_cone	0	S	13	0	200	0		0	0	115.773806100013	115.87381619995
26566.25	0.0999832000816241	379	hunger	stimuli/foods\lettuce.jpg	1	3	1	lettuce	1	X	17	0	75	0		0	0	115.923806899926	116.023790100007
26603.75	0.0999870999949053	380	hunger	stimuli/non_foods\non-food_animate_dragonfly.jpg	1	3	1	non-food_animate_dragonfly	0	R	12	0	108	0		0	0	116.073800200014	116.173787300009
26641.25	0.0999821999575943	381	hunger	stimuli/non_foods\non-food_inanimate_broom.jpg	1	3	1	non-food_inanimate_broom	0	C	1	0	164	0		0	0	116.223806699971	116.323788899928
26678.75	0.100009800051339	382	hunger	stimuli/non_foods\non-food_inanimate_button.jpg	1	3	1	non-food_inanimate_button	0	B	0	0	168	0		0	0	116.373799499939	116.473809299991
26716.5	0.0999409999931231	383	hunger	stimuli/foods\rice.jpg	1	3	1	rice	1	T	14	0	257	0		0	0	116.523845399963	116.623786399956
26753.75	0.0999872999964282	384	hunger	stimuli/foods\grapefruits.jpg	1	3	1	grapefruits	1	K	7	0	59	0		0	0	116.673796899966	116.773784199962
26791.25	0.0999884000048041	385	hunger	stimuli/non_foods\non-food_animate_duck.jpg	1	3	1	non-food_animate_duck	0	H	5	0	109	0		0	0	116.823797499994	116.923785899999
26828.75	0.099990600021556	386	hunger	stimuli/foods\capsicum.jpg	1	3	1	capsicum	1	J	6	0	18	0		0	0	116.973789699958	117.073780299979
26866.25	0.0999823999591172	387	hunger	stimuli/foods\mandarin.jpg	1	3	1	mandarin	1	S	13	0	79	0		0	0	117.123787999968	117.223770399927
26903.75	0.0999859999865294	388	hunger	stimuli/foods\gnocchi.jpg	1	3	1	gnocchi	1	J	6	0	58	0		0	0	117.273786799982	117.373772799969
26941.25	0.0999882000032812	389	hunger	stimuli/non_foods\non-food_inanimate_lighter.jpg	1	3	1	non-food_inanimate_lighter	0	K	7	0	193	0		0	0	117.423783099977	117.523771299981
26978.75	0.0999859999865294	390	hunger	stimuli/non_foods\non-food_inanimate_toy_airplane.jpg	1	3	1	non-food_inanimate_toy_airplane	0	X	17	0	222	0		0	0	117.573783800006	117.673769799992
27016.25	0.0999954000581056	391	hunger	stimuli/non_foods\non-food_animate_cheetah.jpg	1	3	1	non-food_animate_cheetah	0	L	8	0	100	0		0	0	117.723782699904	117.823778099963
27053.75	0.0999888000078499	392	hunger	stimuli/non_foods\non-food_animate_ladybug.jpg	1	3	1	non-food_animate_ladybug	0	W	16	0	124	0		0	0	117.873778000008	117.973766800016
27091.25	0.0999935000436381	393	hunger	stimuli/foods\coffee_beans.jpg	1	3	1	coffee_beans	1	G	4	0	34	0		0	0	118.023781999946	118.123775499989
27128.75	0.0999956999439746	394	hunger	stimuli/foods\risotto_with_peas_and_asparagus_tips.jpg	1	3	1	risotto_with_peas_and_asparagus_tips	1	D	2	0	259	0		0	0	118.173786300002	118.273781999946
27166.25	0.0999622000381351	395	hunger	stimuli/non_foods\non-food_animate_horse.jpg	1	3	1	non-food_animate_horse	0	L	8	0	119	0		0	0	118.323804099928	118.423766299966
27203.75	0.0999870999949053	396	hunger	stimuli/foods\avocado.jpg	1	3	1	avocado	1	K	7	0	5	0		0	0	118.473784499918	118.573771599913
27241.25	0.0999855999834836	397	hunger	stimuli/non_foods\non-food_inanimate_skirt.jpg	1	3	1	non-food_inanimate_skirt	0	M	9	0	209	0		0	0	118.623782399925	118.723767999909
27278.75	0.0999912000261247	398	hunger	stimuli/non_foods\non-food_animate_snail.jpg	1	3	1	non-food_animate_snail	0	W	16	0	149	0		0	0	118.773779299925	118.873770499951
27316.25	0.0999861999880522	399	hunger	stimuli/non_foods\non-food_inanimate_bush.jpg	1	3	1	non-food_inanimate_bush	0	C	1	0	167	0		0	0	118.923779999954	119.023766199942
27353.75	0.0999822999583557	400	hunger	stimuli/non_foods\non-food_inanimate_briefcase.jpg	1	3	1	non-food_inanimate_briefcase	0	S	13	0	163	0		0	0	119.073778999969	119.173761299928
27391.25	0.0999745998997241	401	hunger	stimuli/non_foods\non-food_inanimate_guitar.jpg	1	3	1	non-food_inanimate_guitar	0	F	3	0	185	0		0	0	119.223765800009	119.323740399908
27428.75	0.0999855999834836	402	hunger	stimuli/non_foods\non-food_animate_killer_whale.jpg	1	3	1	non-food_animate_killer_whale	0	C	1	0	123	0		0	0	119.373778000008	119.473763599992
27466.25	0.0999884000048041	403	hunger	stimuli/foods\salami.jpg	1	3	1	salami	1	V	15	0	263	0		0	0	119.523777499911	119.623765899916
27503.75	0.0999850000953302	404	hunger	stimuli/non_foods\non-food_inanimate_watering_can.jpg	1	3	1	non-food_inanimate_watering_can	0	M	9	0	225	0		0	0	119.673774399911	119.773759400006
27541.25	0.0999900000169873	405	hunger	stimuli/non_foods\non-food_inanimate_nest.jpg	1	3	1	non-food_inanimate_nest	0	F	3	0	196	0		0	0	119.82377119991	119.923761199927
27578.75	0.10003610001877	406	hunger	stimuli/foods\baked_lamb_with_potatoes.jpg	1	3	1	baked_lamb_with_potatoes	1	L	8	0	8	0		0	0	119.973779899999	120.073816000018
27616.25	0.0999609000282362	407	hunger	stimuli/non_foods\non-food_animate_german_shepherd.jpg	1	3	1	non-food_animate_german_shepherd	0	R	12	0	114	0		0	0	120.123782099923	120.223742999951
27653.75	0.100011999951676	408	hunger	stimuli/foods\pear.jpg	1	3	1	pear	1	N	10	0	239	0		0	0	120.273745800019	120.373757799971
27691.25	0.0999570999993011	409	hunger	stimuli/non_foods\non-food_animate_iguana.jpg	1	3	1	non-food_animate_iguana	0	K	7	0	121	0		0	0	120.423772600014	120.523729700013
27728.75	0.100003200001083	410	hunger	stimuli/foods\eggplant.jpg	1	3	1	eggplant	1	C	1	0	46	0		0	0	120.573742099921	120.673745299922
27766.25	0.0999845999758691	411	hunger	stimuli/foods\banana.jpg	1	3	1	banana	1	D	2	0	9	0		0	0	120.723763099988	120.823747699964
27803.75	0.0999875999987125	412	hunger	stimuli/foods\fried_zucchini.jpg	1	3	1	fried_zucchini	1	B	0	0	51	0		0	0	120.873755899956	120.973743499955
27841.25	0.0999971999553964	413	hunger	stimuli/non_foods\non-food_animate_giraffe.jpg	1	3	1	non-food_animate_giraffe	0	Z	18	0	115	0		0	0	121.0237586	121.123755799956
27878.75	0.0999618999194354	414	hunger	stimuli/non_foods\non-food_inanimate_protractor.jpg	1	3	1	non-food_inanimate_protractor	0	X	17	0	201	0		0	0	121.173788400018	121.273750299937
27916.25	0.0999808999476954	415	hunger	stimuli/foods\broccoli.jpg	1	3	1	broccoli	1	B	0	0	13	0		0	0	121.323764099972	121.42374499992
27953.75	0.0999862999888137	416	hunger	stimuli/non_foods\non-food_animate_camel.jpg	1	3	1	non-food_animate_camel	0	D	2	0	97	0		0	0	121.473762999987	121.573749299976
27991.25	0.0999828999629244	417	hunger	stimuli/non_foods\non-food_inanimate_clover.jpg	1	3	1	non-food_inanimate_clover	0	B	0	0	174	0		0	0	121.623761499999	121.723744399962
28028.75	0.0999990999698639	418	hunger	stimuli/non_foods\non-food_inanimate_bucket.jpg	1	3	1	non-food_inanimate_bucket	0	M	9	0	165	0		0	0	121.77377520001	121.87377429998
28066.25	0.0999582000076771	419	hunger	stimuli/foods\fruit_flan.jpg	1	3	1	fruit_flan	1	X	17	0	53	1	a	0	0	121.923787600012	122.023745800019
28845.5	0.0999302000273019	420	hunger	stimuli/non_foods\non-food_inanimate_chair.jpg	1	4	1	non-food_inanimate_chair	0	J	6	0	172	0		0	0	125.040457499912	125.140387699939
28883	0.0999829999636859	421	hunger	stimuli/non_foods\non-food_animate_millipede.jpg	1	4	1	non-food_animate_millipede	0	D	2	0	129	0		0	0	125.190403999994	125.290386999957
28920.5	0.100000499980524	422	hunger	stimuli/foods\lemon.jpg	1	4	1	lemon	1	X	17	0	72	0		0	0	125.340388400014	125.440388899995
28958	0.0999867999926209	423	hunger	stimuli/foods\oregano.jpg	1	4	1	oregano	1	N	10	0	231	0		0	0	125.490399900009	125.590386700002
28995.5	0.0999851000960916	424	hunger	stimuli/foods\pork_and_rice.jpg	1	4	1	pork_and_rice	1	C	1	0	245	0		0	0	125.640399499913	125.740384600009
29033	0.0999830999644473	425	hunger	stimuli/foods\rockmelon.jpg	1	4	1	rockmelon	1	L	8	0	262	0		0	0	125.790400199941	125.890383299906
29070.5	0.0999879000009969	426	hunger	stimuli/foods\tomato.jpg	1	4	1	tomato	1	S	13	0	276	0		0	0	125.940396599937	126.040384499938
29108	0.10000570002012	427	hunger	stimuli/foods\pepperoni_pizza.jpg	1	4	1	pepperoni_pizza	1	D	2	0	241	0		0	0	126.090376099921	126.190381799941
29145.5	0.0999901000177488	428	hunger	stimuli/non_foods\non-food_inanimate_folding_chair.jpg	1	4	1	non-food_inanimate_folding_chair	0	V	15	0	182	0		0	0	126.240392799955	126.340382899973
29183	0.099985699984245	429	hunger	stimuli/non_foods\non-food_inanimate_suitcase.jpg	1	4	1	non-food_inanimate_suitcase	0	F	3	0	215	0		0	0	126.390393599984	126.490379299968
29220.5	0.0999832999659702	430	hunger	stimuli/foods\wafer.jpg	1	4	1	wafer	1	S	13	0	277	0		0	0	126.540393500007	126.640376799973
29258	0.0999847000930458	431	hunger	stimuli/non_foods\non-food_inanimate_padlock.jpg	1	4	1	non-food_inanimate_padlock	0	F	3	0	199	0		0	0	126.690393699915	126.790378400008
29295.5	0.0999854999827221	432	hunger	stimuli/non_foods\non-food_animate_polar_bear.jpg	1	4	1	non-food_animate_polar_bear	0	X	17	0	137	0		0	0	126.840410699951	126.940396199934
29333	0.0999781000427902	433	hunger	stimuli/non_foods\non-food_inanimate_bamboo.jpg	1	4	1	non-food_inanimate_bamboo	0	M	9	0	159	0		0	0	126.99039349996	127.090371600003
29370.5	0.0999831999652088	434	hunger	stimuli/foods\croissant.jpg	1	4	1	croissant	1	F	3	0	40	0		0	0	127.140390899964	127.240374099929
29408	0.0999843999743462	435	hunger	stimuli/non_foods\non-food_animate_ant.jpg	1	4	1	non-food_animate_ant	0	C	1	0	91	0		0	0	127.290388299967	127.390372699942
29445.5	0.0999896000139415	436	hunger	stimuli/foods\potato_and_green_bean_salad.jpg	1	4	1	potato_and_green_bean_salad	1	Z	18	0	246	0		0	0	127.440383699955	127.540373299969
29483	0.0999696999788284	437	hunger	stimuli/non_foods\non-food_inanimate_bed.jpg	1	4	1	non-food_inanimate_bed	0	C	1	0	160	0		0	0	127.590387400007	127.690357099986
29520.5	0.0999709999887273	438	hunger	stimuli/non_foods\non-food_animate_young_boy.jpg	1	4	1	non-food_animate_young_boy	0	X	17	0	156	0		0	0	127.740384500008	127.840355499997
29558	0.0999818000709638	439	hunger	stimuli/non_foods\non-food_animate_dachshund.jpg	1	4	1	non-food_animate_dachshund	0	H	5	0	104	0		0	0	127.890388399945	127.990370200016
29595.5	0.0999812000663951	440	hunger	stimuli/foods\carrot.jpg	1	4	1	carrot	1	B	0	0	19	0		0	0	128.040385499946	128.140366700012
29633	0.0999883000040427	441	hunger	stimuli/non_foods\non-food_animate_butterfly.jpg	1	4	1	non-food_animate_butterfly	0	J	6	0	96	0		0	0	128.190378499916	128.29036679992
29670.5	0.0999866999918595	442	hunger	stimuli/foods\chocolate_pudding.jpg	1	4	1	chocolate_pudding	1	B	0	0	29	0		0	0	128.340379299945	128.440365999937
29708	0.100008900044486	443	hunger	stimuli/foods\peach.jpg	1	4	1	peach	1	X	17	0	238	0		0	0	128.490373099921	128.590381999966
29745.5	0.0999488000525162	444	hunger	stimuli/foods\kiwi.jpg	1	4	1	kiwi	1	K	7	0	69	0		0	0	128.640404099948	128.7403529
29783	0.0999862999888137	445	hunger	stimuli/non_foods\non-food_animate_mouse.jpg	1	4	1	non-food_animate_mouse	0	V	15	0	131	0		0	0	128.79037069995	128.890356999938
29820.5	0.0999820000724867	446	hunger	stimuli/non_foods\non-food_inanimate_wrench.jpg	1	4	1	non-food_inanimate_wrench	0	C	1	0	227	0		0	0	128.940366999945	129.040349000017
29858	0.0999819999560714	447	hunger	stimuli/foods\pea_pod.jpg	1	4	1	pea_pod	1	K	7	0	237	0		0	0	129.090368499979	129.190350499935
29895.5	0.0999853999819607	448	hunger	stimuli/foods\clams.jpg	1	4	1	clams	1	N	10	0	32	0		0	0	129.240364599973	129.340349999955
29933	0.099972500000149	449	hunger	stimuli/foods\cauliflower.jpg	1	4	1	cauliflower	1	K	7	0	20	0		0	0	129.390374699957	129.490347199957
29970.5	0.0999841999728233	450	hunger	stimuli/non_foods\non-food_animate_baby_crawling.jpg	1	4	1	non-food_animate_baby_crawling	0	X	17	0	92	0		0	0	129.540361799998	129.640345999971
30008	0.0999952000565827	451	hunger	stimuli/non_foods\non-food_inanimate_drum_set.jpg	1	4	1	non-food_inanimate_drum_set	0	C	1	0	179	0		0	0	129.690363199916	129.790358399972
30045.5	0.0999873999971896	452	hunger	stimuli/foods\cucumber.jpg	1	4	1	cucumber	1	B	0	0	41	0		0	0	129.840366699966	129.940354099963
30083	0.0999861999880522	453	hunger	stimuli/non_foods\non-food_inanimate_tent.jpg	1	4	1	non-food_inanimate_tent	0	F	3	0	219	0		0	0	129.990369100007	130.090355299995
30120.5	0.0999861999880522	454	hunger	stimuli/foods\mango.jpg	1	4	1	mango	1	G	4	0	80	0		0	0	130.140366200008	130.240352399996
30158	0.100015999982134	455	hunger	stimuli/non_foods\non-food_inanimate_nettle.jpg	1	4	1	non-food_inanimate_nettle	0	D	2	0	197	0		0	0	130.290377900004	130.390393899987
30195.5	0.0999679999658838	456	hunger	stimuli/non_foods\non-food_inanimate_teddy_bear.jpg	1	4	1	non-food_inanimate_teddy_bear	0	X	17	0	218	0		0	0	130.440382199944	130.54035019991
30233	0.099985699984245	457	hunger	stimuli/foods\chestnut.jpg	1	4	1	chestnut	1	W	16	0	24	0		0	0	130.590364199947	130.690349899931
30270.5	0.0999879000009969	458	hunger	stimuli/non_foods\non-food_inanimate_buds.jpg	1	4	1	non-food_inanimate_buds	0	F	3	0	166	0		0	0	130.740358099923	130.840345999924
30308	0.0999798999400809	459	hunger	stimuli/non_foods\non-food_inanimate_chandelier.jpg	1	4	1	non-food_inanimate_chandelier	0	P	11	0	173	0		0	0	130.890364599996	130.990344499936
30345.5	0.0999845999758691	460	hunger	stimuli/non_foods\non-food_animate_gorilla.jpg	1	4	1	non-food_animate_gorilla	0	B	0	0	116	0		0	0	131.040357199963	131.140341799939
30383	0.0999861999880522	461	hunger	stimuli/foods\fries.jpg	1	4	1	fries	1	H	5	0	52	0		0	0	131.190359200002	131.29034539999
30420.5	0.0999867999926209	462	hunger	stimuli/foods\donut.jpg	1	4	1	donut	1	G	4	0	44	0		0	0	131.340356800007	131.440343599999
30458	0.0999842999735847	463	hunger	stimuli/foods\oven-roasted_tomatoes.jpg	1	4	1	oven-roasted_tomatoes	1	B	0	0	232	0		0	0	131.490354800015	131.590339099988
30495.5	0.0999772999202833	464	hunger	stimuli/foods\red_cabbage.jpg	1	4	1	red_cabbage	1	N	10	0	256	0		0	0	131.640351900016	131.740329199936
30533	0.0999936999287456	465	hunger	stimuli/non_foods\non-food_animate_Asian_man.jpg	1	4	1	non-food_animate_Asian_man	0	P	11	0	88	0		0	0	131.790343699977	131.890337399906
30570.5	0.0999793000519276	466	hunger	stimuli/non_foods\non-food_inanimate_moss.jpg	1	4	1	non-food_inanimate_moss	0	K	7	0	194	0		0	0	131.940352599951	132.040331900003
30608	0.0999723999993876	467	hunger	stimuli/foods\red_beans.jpg	1	4	1	red_beans	1	B	0	0	255	0		0	0	132.090358899906	132.190331299906
30645.5	0.0999829000793397	468	hunger	stimuli/foods\lentils.jpg	1	4	1	lentils	1	C	1	0	74	0		0	0	132.240344699938	132.340327600017
30683	0.099985699984245	469	hunger	stimuli/non_foods\non-food_animate_cow.jpg	1	4	1	non-food_animate_cow	0	R	12	0	103	0		0	0	132.390341999941	132.490327699925
30720.5	0.0999837999697775	470	hunger	stimuli/foods\lamb_chops.jpg	1	4	1	lamb_chops	1	Z	18	0	70	0		0	0	132.540339899948	132.640323699918
30758	0.0999743000138551	471	hunger	stimuli/non_foods\non-food_animate_tortoise.jpg	1	4	1	non-food_animate_tortoise	0	V	15	0	153	0		0	0	132.690349999932	132.790324299945
30795.5	0.0999980999622494	472	hunger	stimuli/non_foods\non-food_animate_Causasian_man.jpg	1	4	1	non-food_animate_Causasian_man	0	J	6	0	89	0		0	0	132.840336499969	132.940334599931
30833	0.10000229999423	473	hunger	stimuli/foods\apple.jpg	1	4	1	apple	1	P	11	0	1	0		0	0	132.990325999912	133.090328299906
30870.5	0.099972500000149	474	hunger	stimuli/non_foods\non-food_animate_bee.jpg	1	4	1	non-food_animate_bee	0	D	2	0	95	0		0	0	133.140345099964	133.240317599964
30908	0.0999826999614015	475	hunger	stimuli/foods\spaghetti_with_meat_sauce.jpg	1	4	1	spaghetti_with_meat_sauce	1	Z	18	0	267	1	a	0	0	133.290349200019	133.39033189998
30945.5	0.0999950000550598	476	hunger	stimuli/foods\taco.jpg	1	4	1	taco	1	H	5	0	274	0		0	0	133.440333799925	133.54032879998
30983	0.0999359999550506	477	hunger	stimuli/foods\green_beans.jpg	1	4	1	green_beans	1	L	8	0	61	0		0	0	133.590382099967	133.690318099922
31020.5	0.0999993999721482	478	hunger	stimuli/non_foods\non-food_inanimate_socks.jpg	1	4	1	non-food_inanimate_socks	0	X	17	0	211	0		0	0	133.740331699955	133.840331099927
31058	0.0999880000017583	479	hunger	stimuli/non_foods\non-food_animate_dolphin.jpg	1	4	1	non-food_animate_dolphin	0	M	9	0	106	0		0	0	133.890359599958	133.99034759996
31095.5	0.0999864999903366	480	hunger	stimuli/foods\celery.jpg	1	4	1	celery	1	J	6	0	21	0		0	0	134.040329099982	134.140315599972
31133	0.0999829999636859	481	hunger	stimuli/foods\hotdog.jpg	1	4	1	hotdog	1	S	13	0	67	0		0	0	134.1903284	134.290311399964
31170.5	0.0999761000275612	482	hunger	stimuli/non_foods\non-food_animate_donkey.jpg	1	4	1	non-food_animate_donkey	0	L	8	0	107	0		0	0	134.340323599987	134.440299700014
31208	0.0999825000762939	483	hunger	stimuli/non_foods\non-food_animate_porcupine.jpg	1	4	1	non-food_animate_porcupine	0	D	2	0	138	0		0	0	134.490327699925	134.590310200001
31245.5	0.0999900000169873	484	hunger	stimuli/non_foods\non-food_inanimate_soccer_ball.jpg	1	4	1	non-food_inanimate_soccer_ball	0	T	14	0	210	0		0	0	134.640319500002	134.740309500019
31283	0.099985699984245	485	hunger	stimuli/non_foods\non-food_animate_swan.jpg	1	4	1	non-food_animate_swan	0	G	4	0	152	0		0	0	134.790325499955	134.890311199939
31320.5	0.0999808999476954	486	hunger	stimuli/foods\swordfish.jpg	1	4	1	swordfish	1	X	17	0	273	0		0	0	134.94032309996	135.040303999907
31358	0.0999828999629244	487	hunger	stimuli/non_foods\non-food_inanimate_rope.jpg	1	4	1	non-food_inanimate_rope	0	C	1	0	204	0		0	0	135.090320199961	135.190303099924
31395.5	0.0999813999515027	488	hunger	stimuli/non_foods\non-food_inanimate_speakers.jpg	1	4	1	non-food_inanimate_speakers	0	G	4	0	212	0		0	0	135.240318799973	135.340300199925
31433	0.100008400040679	489	hunger	stimuli/foods\strawberry.jpg	1	4	1	strawberry	1	W	16	0	272	0		0	0	135.390296599944	135.490304999985
31470.5	0.0999898000154644	490	hunger	stimuli/non_foods\non-food_inanimate_desk.jpg	1	4	1	non-food_inanimate_desk	0	R	12	0	178	0		0	0	135.540326799965	135.64031659998
31508	0.0999638999346644	491	hunger	stimuli/non_foods\non-food_animate_mammoth.jpg	1	4	1	non-food_animate_mammoth	0	D	2	0	128	0		0	0	135.690344700008	135.790308599942
31545.5	0.0999834999674931	492	hunger	stimuli/non_foods\non-food_animate_baby_sitting.jpg	1	4	1	non-food_animate_baby_sitting	0	L	8	0	93	0		0	0	135.840325600002	135.940309099969
31583	0.0999860999872908	493	hunger	stimuli/non_foods\non-food_animate_pigeon.jpg	1	4	1	non-food_animate_pigeon	0	R	12	0	136	0		0	0	135.990324800019	136.090310900006
31620.5	0.0999784999294207	494	hunger	stimuli/foods\waffle.jpg	1	4	1	waffle	1	F	3	0	278	0		0	0	136.140319400001	136.240297899931
31658	0.0999866999918595	495	hunger	stimuli/non_foods\non-food_animate_hummingbird.jpg	1	4	1	non-food_animate_hummingbird	0	V	15	0	120	0		0	0	136.290320799919	136.390307499911
31695.5	0.099986599991098	496	hunger	stimuli/non_foods\non-food_inanimate_waterlily.jpg	1	4	1	non-food_inanimate_waterlily	0	W	16	0	226	0		0	0	136.440318599925	136.540305199916
31733	0.0999854999827221	497	hunger	stimuli/non_foods\non-food_animate_fox.jpg	1	4	1	non-food_animate_fox	0	G	4	0	112	0		0	0	136.590321099968	136.69030659995
31770.5	0.0999980999622494	498	hunger	stimuli/foods\raisins.jpg	1	4	1	raisins	1	R	12	0	252	0		0	0	136.740317599964	136.840315699927
31808	0.0999855999834836	499	hunger	stimuli/non_foods\non-food_inanimate_alarm_clock.jpg	1	4	1	non-food_inanimate_alarm_clock	0	F	3	0	158	0		0	0	136.890314399963	136.990299999947
31845.5	0.0999873999971896	500	hunger	stimuli/non_foods\non-food_animate_eagle.jpg	1	4	1	non-food_animate_eagle	0	K	7	0	110	0		0	0	137.040315199993	137.14030259999
31883	0.0999989999691024	501	hunger	stimuli/foods\ginger_root.jpg	1	4	1	ginger_root	1	M	9	0	57	0		0	0	137.190299400012	137.290298399981
31920.5	0.0999721999978647	502	hunger	stimuli/non_foods\non-food_animate_kangaroo.jpg	1	4	1	non-food_animate_kangaroo	0	H	5	0	122	0		0	0	137.340315099922	137.44028729992
31958	0.0999645999399945	503	hunger	stimuli/foods\pumpkin.jpg	1	4	1	pumpkin	1	T	14	0	250	0		0	0	137.490320499986	137.590285099926
31995.5	0.0999689999734983	504	hunger	stimuli/foods\spinach.jpg	1	4	1	spinach	1	V	15	0	268	0		0	0	137.640310599934	137.740279599908
32033	0.0999850999796763	505	hunger	stimuli/non_foods\non-food_inanimate_skateboard.jpg	1	4	1	non-food_inanimate_skateboard	0	X	17	0	208	0		0	0	137.790292799938	137.890277899918
32070.5	0.0999769000336528	506	hunger	stimuli/foods\stew_with_potatoes_and_carrots.jpg	1	4	1	stew_with_potatoes_and_carrots	1	P	11	0	271	0		0	0	137.94030919997	138.040286100004
32108	0.100005299900658	507	hunger	stimuli/foods\oyster.jpg	1	4	1	oyster	1	V	15	0	233	0		0	0	138.090280900011	138.190286199911
32145.5	0.0999861999880522	508	hunger	stimuli/foods\roasted_chicken.jpg	1	4	1	roasted_chicken	1	C	1	0	261	0		0	0	138.240292700008	138.340278899996
32183	0.0999802000587806	509	hunger	stimuli/non_foods\non-food_animate_frog.jpg	1	4	1	non-food_animate_frog	0	K	7	0	113	0		0	0	138.390312499949	138.490292700008
32220.5	0.0999830999644473	510	hunger	stimuli/non_foods\non-food_animate_runner.jpg	1	4	1	non-food_animate_runner	0	X	17	0	142	0		0	0	138.540297799977	138.640280899941
32258	0.0999940999317914	511	hunger	stimuli/foods\pickles.jpg	1	4	1	pickles	1	S	13	0	242	0		0	0	138.690295799985	138.790289899916
32295.5	0.0999447000212967	512	hunger	stimuli/non_foods\non-food_inanimate_cupboard.jpg	1	4	1	non-food_inanimate_cupboard	0	G	4	0	177	0		0	0	138.840346899931	138.940291599953
32333	0.099989700014703	513	hunger	stimuli/non_foods\non-food_inanimate_cap.jpg	1	4	1	non-food_inanimate_cap	0	T	14	0	171	0		0	0	138.990302599967	139.090292299981
32370.5	0.100020100013353	514	hunger	stimuli/non_foods\non-food_animate_llama.jpg	1	4	1	non-food_animate_llama	0	H	5	0	127	0		0	0	139.14028729999	139.240307400003
32408	0.099937199964188	515	hunger	stimuli/non_foods\non-food_animate_caterpillar.jpg	1	4	1	non-food_animate_caterpillar	0	A	19	1	99	0		0	0	139.290347500006	139.39028469997
32445.5	0.0999843999743462	516	hunger	stimuli/foods\steak.jpg	1	4	1	steak	1	B	0	0	270	0		0	0	139.440299500013	139.540283899987
32483	0.0999869999941438	517	hunger	stimuli/foods\rice_cake.jpg	1	4	1	rice_cake	1	V	15	0	258	0		0	0	139.590295400005	139.690282399999
32520.5	0.0999864001059905	518	hunger	stimuli/non_foods\non-food_inanimate_grass.jpg	1	4	1	non-food_inanimate_grass	0	N	10	0	184	0		0	0	139.740294299903	139.840280700009
32558	0.0999884000048041	519	hunger	stimuli/foods\figs.jpg	1	4	1	figs	1	G	4	0	48	1	a	0.602665000013076	1	139.890294499928	139.990282899933
32595.5	0.0999974999576807	520	hunger	stimuli/foods\smoked_ham.jpg	1	4	1	smoked_ham	1	M	9	0	266	1	a	0.841729899984784	1	140.040280599962	140.14027809992
32633	0.0999861999880522	521	hunger	stimuli/foods\coconut.jpg	1	4	1	coconut	1	P	11	0	33	0		0	0	140.190292899963	140.290279099951
32670.5	0.0999591000145301	522	hunger	stimuli/foods\pomegranate.jpg	1	4	1	pomegranate	1	F	3	0	244	0		0	0	140.340308199986	140.4402673
32708	0.0999881000025198	523	hunger	stimuli/foods\radish.jpg	1	4	1	radish	1	V	15	0	251	0		0	0	140.490279699909	140.590267799911
32745.5	0.0999867999926209	524	hunger	stimuli/foods\dates.jpg	1	4	1	dates	1	L	8	0	43	0		0	0	140.640280999942	140.740267799934
32783	0.0999848999781534	525	hunger	stimuli/foods\chocolate_pralines.jpg	1	4	1	chocolate_pralines	1	K	7	0	28	0		0	0	140.790279999957	140.890264899936
32820.5	0.0999956999439746	526	hunger	stimuli/non_foods\non-food_inanimate_fern.jpg	1	4	1	non-food_inanimate_fern	0	W	16	0	180	0		0	0	140.940284100012	141.040279799956
32858	0.0999647000571713	527	hunger	stimuli/foods\risotto_with_zucchini.jpg	1	4	1	risotto_with_zucchini	1	D	2	0	260	0		0	0	141.090299399919	141.190264099976
32895.5	0.0999909000238404	528	hunger	stimuli/non_foods\non-food_animate_parrot.jpg	1	4	1	non-food_animate_parrot	0	F	3	0	133	0		0	0	141.240273999982	141.340264900005
32933	0.100010999944061	529	hunger	stimuli/foods\egg.jpg	1	4	1	egg	1	J	6	0	45	0		0	0	141.390270899981	141.490281899925
32970.5	0.100039000040852	530	hunger	stimuli/foods\ice_cream.jpg	1	4	1	ice_cream	1	C	1	0	68	0		0	0	141.540263899951	141.640302899992
33008	0.0999972999561578	531	hunger	stimuli/non_foods\non-food_animate_chicken.jpg	1	4	1	non-food_animate_chicken	0	B	0	0	101	0		0	0	141.690254100016	141.790251399972
33045.5	0.100001799990423	532	hunger	stimuli/non_foods\non-food_inanimate_shell.jpg	1	4	1	non-food_inanimate_shell	0	N	10	0	206	0		0	0	141.840264900005	141.940266699996
33083	0.0999878000002354	533	hunger	stimuli/foods\cupcake.jpg	1	4	1	cupcake	1	D	2	0	42	0		0	0	141.990278000012	142.090265800012
33120.5	0.0999833000823855	534	hunger	stimuli/foods\mussels.jpg	1	4	1	mussels	1	P	11	0	86	0		0	0	142.140278399922	142.240261700004
33158	0.0999891000101343	535	hunger	stimuli/non_foods\non-food_inanimate_hammer.jpg	1	4	1	non-food_inanimate_hammer	0	F	3	0	186	0		0	0	142.290265999967	142.390255099977
33195.5	0.0999824999598786	536	hunger	stimuli/foods\green_olives.jpg	1	4	1	green_olives	1	I	21	1	62	0		0	0	142.44026589999	142.54024839995
33233	0.099980799946934	537	hunger	stimuli/non_foods\non-food_inanimate_jeans.jpg	1	4	1	non-food_inanimate_jeans	0	F	3	0	191	0		0	0	142.590281100012	142.690261899959
33270.5	0.0999875999987125	538	hunger	stimuli/non_foods\non-food_inanimate_ring.jpg	1	4	1	non-food_inanimate_ring	0	M	9	0	203	0		0	0	142.740286899963	142.840274499962
33308	0.0999753000214696	539	hunger	stimuli/foods\brownie.jpg	1	4	1	brownie	1	J	6	0	14	0		0	0	142.890284499968	142.99025979999
33345.5	0.0999579000053927	540	hunger	stimuli/non_foods\non-food_animate_sea_lion.jpg	1	4	1	non-food_animate_sea_lion	0	S	13	0	143	0		0	0	143.040274199913	143.140232099919
33383	0.099989099893719	541	hunger	stimuli/foods\prawn.jpg	1	4	1	prawn	1	K	7	0	249	0		0	0	143.19026860001	143.290257699904
33420.5	0.0999819000717252	542	hunger	stimuli/foods\cooked_prawn.jpg	1	4	1	cooked_prawn	1	N	10	0	36	0		0	0	143.340270399931	143.440252300003
33458	0.0999701999826357	543	hunger	stimuli/non_foods\non-food_animate_bat.jpg	1	4	1	non-food_animate_bat	0	W	16	0	94	1	a	1.1418330000015	1	143.490268399939	143.590238599922
33495.5	0.0999890000093728	544	hunger	stimuli/non_foods\non-food_animate_raccoon.jpg	1	4	1	non-food_animate_raccoon	0	N	10	0	139	0		0	0	143.640256899991	143.7402459
33533	0.0999872999964282	545	hunger	stimuli/non_foods\non-food_inanimate_couch.jpg	1	4	1	non-food_inanimate_couch	0	S	13	0	176	0		0	0	143.790257100016	143.890244400012
33570.5	0.0999884000048041	546	hunger	stimuli/non_foods\non-food_animate_ram.jpg	1	4	1	non-food_animate_ram	0	B	0	0	140	0		0	0	143.940257699927	144.040246099932
33608	0.0999845999758691	547	hunger	stimuli/foods\lemon_meringue_pie.jpg	1	4	1	lemon_meringue_pie	1	F	3	0	73	0		0	0	144.090254799929	144.190239399904
33645.5	0.100005500018597	548	hunger	stimuli/foods\brussel_sprouts.jpg	1	4	1	brussel_sprouts	1	D	2	0	15	0		0	0	144.240240399959	144.340245899977
33683	0.099996600067243	549	hunger	stimuli/non_foods\non-food_inanimate_towel.jpg	1	4	1	non-food_inanimate_towel	0	G	4	0	221	0		0	0	144.390248099924	144.490244699991
33720.5	0.0999536999734119	550	hunger	stimuli/non_foods\non-food_animate_monkey.jpg	1	4	1	non-food_animate_monkey	0	L	8	0	130	0		0	0	144.540285299998	144.640238999971
33758	0.0999839000869542	551	hunger	stimuli/non_foods\non-food_animate_slug.jpg	1	4	1	non-food_animate_slug	0	W	16	0	148	0		0	0	144.690257799928	144.790241700015
33795.5	0.0999839000869542	552	hunger	stimuli/foods\potatoes.jpg	1	4	1	potatoes	1	N	10	0	248	0		0	0	144.840253999922	144.940237900009
33833	0.0999863999895751	553	hunger	stimuli/foods\beetroots.jpg	1	4	1	beetroots	1	P	11	0	10	0		0	0	144.990250099916	145.090236499906
33870.5	0.100001399987377	554	hunger	stimuli/foods\omelette.jpg	1	4	1	omelette	1	K	7	0	228	0		0	0	145.14024019998	145.240241599968
33908	0.099980799946934	555	hunger	stimuli/non_foods\non-food_inanimate_horn.jpg	1	4	1	non-food_inanimate_horn	0	M	9	0	190	0		0	0	145.290256800014	145.390237599961
33945.5	0.0999905000207946	556	hunger	stimuli/foods\cinnamon.jpg	1	4	1	cinnamon	1	R	12	0	30	0		0	0	145.440251199994	145.540241700015
33983	0.100019500008784	557	hunger	stimuli/foods\onion.jpg	1	4	1	onion	1	P	11	0	229	0		0	0	145.590253299917	145.690272799926
34020.5	0.0999866999918595	558	hunger	stimuli/non_foods\non-food_inanimate_stapler.jpg	1	4	1	non-food_inanimate_stapler	0	H	5	0	213	0		0	0	145.740250899922	145.840237599914
34058	0.09997049998492	559	hunger	stimuli/foods\minestrone_soup.jpg	1	4	1	minestrone_soup	1	L	8	0	82	0		0	0	145.890250599943	145.990221099928
34658	0.0999783000443131	560	hunger	stimuli/non_foods\non-food_animate_cheetah.jpg	1	5	1	non-food_animate_cheetah	0	Z	18	0	100	0		0	0	148.290242899908	148.390221199952
34695.5	0.0999839999713004	561	hunger	stimuli/non_foods\non-food_animate_owl.jpg	1	5	1	non-food_animate_owl	0	T	14	0	132	0		0	0	148.440233499976	148.540217499947
34733	0.100003200001083	562	hunger	stimuli/foods\pear.jpg	1	5	1	pear	1	H	5	0	239	0		0	0	148.590207299916	148.690210499917
34770.5	0.0999922999180853	563	hunger	stimuli/non_foods\non-food_inanimate_rope.jpg	1	5	1	non-food_inanimate_rope	0	R	12	0	204	0		0	0	148.740231800009	148.840224099928
34808	0.099988600006327	564	hunger	stimuli/foods\pork_and_rice.jpg	1	5	1	pork_and_rice	1	F	3	0	245	0		0	0	148.890227700002	148.990216300008
34845.5	0.0999845000915229	565	hunger	stimuli/foods\green_olives.jpg	1	5	1	green_olives	1	L	8	0	62	0		0	0	149.040228899918	149.140213400009
34883	0.0999776000389829	566	hunger	stimuli/non_foods\non-food_inanimate_stoplight.jpg	1	5	1	non-food_inanimate_stoplight	0	M	9	0	214	0		0	0	149.190229099942	149.290206699981
34920.5	0.0999992999713868	567	hunger	stimuli/foods\salmon.jpg	1	5	1	salmon	1	K	7	0	264	0		0	0	149.340211599949	149.44021089992
34958	0.0999863999895751	568	hunger	stimuli/foods\garlic.jpg	1	5	1	garlic	1	R	12	0	56	0		0	0	149.490224799956	149.590211199946
34995.5	0.0999862999888137	569	hunger	stimuli/foods\omelette.jpg	1	5	1	omelette	1	V	15	0	228	0		0	0	149.640221999958	149.740208299947
35033	0.0999728000024334	570	hunger	stimuli/foods\celery.jpg	1	5	1	celery	1	D	2	0	21	0		0	0	149.790237499983	149.890210299985
35070.5	0.0999689999734983	571	hunger	stimuli/non_foods\non-food_inanimate_wrench.jpg	1	5	1	non-food_inanimate_wrench	0	S	13	0	227	0		0	0	149.94022270001	150.040191699984
35108	0.0999801000580192	572	hunger	stimuli/foods\taco.jpg	1	5	1	taco	1	B	0	0	274	0		0	0	150.090224199928	150.190204299986
35145.5	0.0999881000025198	573	hunger	stimuli/non_foods\non-food_animate_monkey.jpg	1	5	1	non-food_animate_monkey	0	H	5	0	130	0		0	0	150.240219199914	150.340207299916
35183	0.100016400101595	574	hunger	stimuli/foods\fries.jpg	1	5	1	fries	1	V	15	0	52	0		0	0	150.390231599915	150.490248000016
35220.5	0.0999767000321299	575	hunger	stimuli/non_foods\non-food_inanimate_toy_airplane.jpg	1	5	1	non-food_inanimate_toy_airplane	0	P	11	0	222	0		0	0	150.540221899981	150.640198600013
35258	0.0999795000534505	576	hunger	stimuli/non_foods\non-food_inanimate_hay.jpg	1	5	1	non-food_inanimate_hay	0	L	8	0	187	0		0	0	150.690224199905	150.790203699959
35295.5	0.0999851999804378	577	hunger	stimuli/non_foods\non-food_inanimate_folding_chair.jpg	1	5	1	non-food_inanimate_folding_chair	0	F	3	0	182	0		0	0	150.840216799988	150.940201999969
35333	0.0999654999468476	578	hunger	stimuli/non_foods\non-food_animate_lion.jpg	1	5	1	non-food_animate_lion	0	S	13	0	125	0		0	0	150.990217200015	151.090182699962
35370.5	0.0999819000717252	579	hunger	stimuli/non_foods\non-food_animate_grasshopper.jpg	1	5	1	non-food_animate_grasshopper	0	W	16	0	117	0		0	0	151.140199799906	151.240181699977
35408	0.0999949999386445	580	hunger	stimuli/foods\tomato.jpg	1	5	1	tomato	1	X	17	0	276	0		0	0	151.290205299971	151.390200299909
35445.5	0.0999840999720618	581	hunger	stimuli/foods\pepperoni_pizza.jpg	1	5	1	pepperoni_pizza	1	K	7	0	241	0		0	0	151.440212599933	151.540196699905
35483	0.0999914000276476	582	hunger	stimuli/foods\grilled_chicken_breast.jpg	1	5	1	grilled_chicken_breast	1	V	15	0	63	0		0	0	151.590208699927	151.690200099954
35520.5	0.0999833999667317	583	hunger	stimuli/non_foods\non-food_inanimate_bicycle.jpg	1	5	1	non-food_inanimate_bicycle	0	Z	18	0	161	0		0	0	151.74020999996	151.840193399927
35558	0.099984799977392	584	hunger	stimuli/non_foods\non-food_inanimate_skateboard.jpg	1	5	1	non-food_inanimate_skateboard	0	C	1	0	208	0		0	0	151.890209399979	151.990194199956
35595.5	0.0999805999454111	585	hunger	stimuli/non_foods\non-food_inanimate_toilet.jpg	1	5	1	non-food_inanimate_toilet	0	G	4	0	220	0		0	0	152.040209600003	152.140190199949
35633	0.100014200084843	586	hunger	stimuli/foods\fennel.jpg	1	5	1	fennel	1	C	1	0	47	0		0	0	152.190211599926	152.29022580001
35670.5	0.100000599981286	587	hunger	stimuli/non_foods\non-food_inanimate_socks.jpg	1	5	1	non-food_inanimate_socks	0	G	4	0	211	0		0	0	152.340178899933	152.440179499914
35708	0.0999766999157146	588	hunger	stimuli/non_foods\non-food_animate_llama.jpg	1	5	1	non-food_animate_llama	0	R	12	0	127	0		0	0	152.490198499989	152.590175199904
35745.5	0.0999989000847563	589	hunger	stimuli/non_foods\non-food_animate_millipede.jpg	1	5	1	non-food_animate_millipede	0	S	13	0	129	0		0	0	152.640184599906	152.740183499991
35783	0.0999831000808626	590	hunger	stimuli/non_foods\non-food_inanimate_drum_set.jpg	1	5	1	non-food_inanimate_drum_set	0	T	14	0	179	0		0	0	152.790200799936	152.890183900017
35820.5	0.0999879000009969	591	hunger	stimuli/foods\apple.jpg	1	5	1	apple	1	H	5	0	1	0		0	0	152.940199399949	153.04018729995
35858	0.0999829999636859	592	hunger	stimuli/foods\spaghetti_with_meat_sauce.jpg	1	5	1	spaghetti_with_meat_sauce	1	V	15	0	267	0		0	0	153.090201599989	153.190184599953
35895.5	0.0999992999713868	593	hunger	stimuli/foods\savory_pie.jpg	1	5	1	savory_pie	1	L	8	0	265	0		0	0	153.240197099978	153.340196399949
35933	0.0999843999743462	594	hunger	stimuli/foods\baked_cod_with_carrots_and_green_beans.jpg	1	5	1	baked_cod_with_carrots_and_green_beans	1	W	16	0	7	0		0	0	153.390197700006	153.49018209998
35970.5	0.0999858999857679	595	hunger	stimuli/non_foods\non-food_animate_polar_bear.jpg	1	5	1	non-food_animate_polar_bear	0	R	12	0	137	0		0	0	153.540193599998	153.640179499984
36008	0.0999720999971032	596	hunger	stimuli/non_foods\non-food_animate_giraffe.jpg	1	5	1	non-food_animate_giraffe	0	D	2	0	115	0		0	0	153.690193200018	153.790165300015
36045.5	0.0999900000169873	597	hunger	stimuli/foods\cherry.jpg	1	5	1	cherry	1	P	11	0	23	0		0	0	153.840195299941	153.940185299958
36083	0.0999803999438882	598	hunger	stimuli/non_foods\non-food_animate_raccoon.jpg	1	5	1	non-food_animate_raccoon	0	O	22	1	139	0		0	0	153.990228799987	154.090209199931
36120.5	0.0999759000260383	599	hunger	stimuli/non_foods\non-food_animate_hummingbird.jpg	1	5	1	non-food_animate_hummingbird	0	L	8	0	120	0		0	0	154.140192799969	154.240168699995
36158	0.0999889998929575	600	hunger	stimuli/non_foods\non-food_animate_eagle.jpg	1	5	1	non-food_animate_eagle	0	M	9	0	110	0		0	0	154.290180800017	154.39016979991
36195.5	0.0999855999834836	601	hunger	stimuli/non_foods\non-food_animate_snail.jpg	1	5	1	non-food_animate_snail	0	H	5	0	149	1	a	0.452800199971534	1	154.440180699923	154.540166299907
36233	0.0999826999614015	602	hunger	stimuli/foods\linguine_with_clams.jpg	1	5	1	linguine_with_clams	1	T	14	0	77	0		0	0	154.5901725	154.690155199962
36270.5	0.100013600080274	603	hunger	stimuli/non_foods\non-food_animate_penguin.jpg	1	5	1	non-food_animate_penguin	0	J	6	0	135	0		0	0	154.740160299931	154.840173900011
36308	0.0999850999796763	604	hunger	stimuli/foods\chocolate_pralines.jpg	1	5	1	chocolate_pralines	1	B	0	0	28	0		0	0	154.890187799931	154.99017289991
36345.5	0.0999838999705389	605	hunger	stimuli/foods\risotto_with_peas_and_asparagus_tips.jpg	1	5	1	risotto_with_peas_and_asparagus_tips	1	M	9	0	259	0		0	0	155.040180200012	155.140164099983
36383	0.0999631000449881	606	hunger	stimuli/non_foods\non-food_inanimate_sun_flower.jpg	1	5	1	non-food_inanimate_sun_flower	0	Z	18	0	216	0		0	0	155.190194099909	155.290157199954
36420.5	0.0999849999789149	607	hunger	stimuli/non_foods\non-food_animate_ram.jpg	1	5	1	non-food_animate_ram	0	N	10	0	140	0		0	0	155.340183599968	155.440168599947
36458	0.0999872999964282	608	hunger	stimuli/non_foods\non-food_inanimate_grass.jpg	1	5	1	non-food_inanimate_grass	0	X	17	0	184	0		0	0	155.490179999964	155.590167299961
36495.5	0.100004900014028	609	hunger	stimuli/non_foods\non-food_inanimate_padlock.jpg	1	5	1	non-food_inanimate_padlock	0	M	9	0	199	0		0	0	155.640179799986	155.7401847
36533	0.0999873999971896	610	hunger	stimuli/foods\pomegranate.jpg	1	5	1	pomegranate	1	H	5	0	244	0		0	0	155.790180200012	155.89016760001
36570.5	0.0999843999743462	611	hunger	stimuli/non_foods\non-food_inanimate_rack.jpg	1	5	1	non-food_inanimate_rack	0	B	0	0	202	0		0	0	155.940177500015	156.040161899989
36608	0.0999888000078499	612	hunger	stimuli/non_foods\non-food_animate_deer.jpg	1	5	1	non-food_animate_deer	0	F	3	0	105	0		0	0	156.090172700002	156.19016150001
36645.5	0.0999849999789149	613	hunger	stimuli/foods\pickles.jpg	1	5	1	pickles	1	O	22	1	242	0		0	0	156.240177999949	156.340162999928
36683	0.0999891000101343	614	hunger	stimuli/non_foods\non-food_animate_fox.jpg	1	5	1	non-food_animate_fox	0	T	14	0	112	0		0	0	156.390171699924	156.490160799935
36720.5	0.0999822999583557	615	hunger	stimuli/foods\hotdog.jpg	1	5	1	hotdog	1	D	2	0	67	0		0	0	156.540175099974	156.640157399932
36758	0.0999885000055656	616	hunger	stimuli/non_foods\non-food_inanimate_fire_extinguisher.jpg	1	5	1	non-food_inanimate_fire_extinguisher	0	N	10	0	181	0		0	0	156.690168399946	156.790156899951
36795.5	0.100002899998799	617	hunger	stimuli/foods\papaya.jpg	1	5	1	papaya	1	W	16	0	235	1	a	0.593171600019559	1	156.840165799949	156.940168699948
36833	0.0999831000808626	618	hunger	stimuli/foods\croissant.jpg	1	5	1	croissant	1	C	1	0	40	0		0	0	156.990172499907	157.090155599988
36870.5	0.0999869999941438	619	hunger	stimuli/non_foods\non-food_animate_young_girl.jpg	1	5	1	non-food_animate_young_girl	0	G	4	0	157	0		0	0	157.140167200007	157.240154200001
36908	0.0999856000998989	620	hunger	stimuli/foods\peas.jpg	1	5	1	peas	1	R	12	0	240	0		0	0	157.290166499908	157.390152100008
36945.5	0.0999896000139415	621	hunger	stimuli/non_foods\non-food_animate_swan.jpg	1	5	1	non-food_animate_swan	0	Z	18	0	152	0		0	0	157.440163099905	157.540152699919
36983	0.0999649999430403	622	hunger	stimuli/foods\baked_lamb_with_potatoes.jpg	1	5	1	baked_lamb_with_potatoes	1	L	8	0	8	0		0	0	157.590186299989	157.690151299932
37020.5	0.0999867999926209	623	hunger	stimuli/foods\fruit_pie.jpg	1	5	1	fruit_pie	1	N	10	0	54	0		0	0	157.740160999936	157.840147799929
37058	0.099987699999474	624	hunger	stimuli/non_foods\non-food_inanimate_desk.jpg	1	5	1	non-food_inanimate_desk	0	K	7	0	178	0		0	0	157.890162999975	157.990150699974
37095.5	0.099984799977392	625	hunger	stimuli/non_foods\non-food_inanimate_waterlily.jpg	1	5	1	non-food_inanimate_waterlily	0	T	14	0	226	0		0	0	158.040163700003	158.140148499981
37133	0.0999919000314549	626	hunger	stimuli/non_foods\non-food_inanimate_lighter.jpg	1	5	1	non-food_inanimate_lighter	0	R	12	0	193	0		0	0	158.190156199969	158.290148100001
37170.5	0.0999871001113206	627	hunger	stimuli/foods\cauliflower.jpg	1	5	1	cauliflower	1	K	7	0	20	0		0	0	158.340159999905	158.440147100016
37208	0.099986599991098	628	hunger	stimuli/foods\asparagus.jpg	1	5	1	asparagus	1	N	10	0	4	0		0	0	158.49015889992	158.590145499911
37245.5	0.0999851999804378	629	hunger	stimuli/non_foods\non-food_animate_peacock.jpg	1	5	1	non-food_animate_peacock	0	V	15	0	134	0		0	0	158.640156499925	158.740141699906
37283	0.0999727000016719	630	hunger	stimuli/non_foods\non-food_inanimate_bed.jpg	1	5	1	non-food_inanimate_bed	0	R	12	0	160	0		0	0	158.790156599949	158.890129299951
37320.5	0.0999863999895751	631	hunger	stimuli/foods\coconut.jpg	1	5	1	coconut	1	C	1	0	33	0		0	0	158.940155999968	159.040142399957
37358	0.0999968000687659	632	hunger	stimuli/foods\salami.jpg	1	5	1	salami	1	J	6	0	263	0		0	0	159.090129699907	159.190126499976
37395.5	0.100043800077401	633	hunger	stimuli/non_foods\non-food_inanimate_highlighter.jpg	1	5	1	non-food_inanimate_highlighter	0	N	10	0	189	0		0	0	159.240128399921	159.340172199998
37433	0.0999557999894023	634	hunger	stimuli/foods\clams.jpg	1	5	1	clams	1	S	13	0	32	0		0	0	159.390195999993	159.490151799982
37470.5	0.100002699997276	635	hunger	stimuli/non_foods\non-food_inanimate_briefcase.jpg	1	5	1	non-food_inanimate_briefcase	0	R	12	0	163	0		0	0	159.540148100001	159.640150799998
37508	0.100007599918172	636	hunger	stimuli/foods\mussels.jpg	1	5	1	mussels	1	V	15	0	86	0		0	0	159.690128699993	159.790136299911
37545.5	0.0999870999949053	637	hunger	stimuli/foods\lemon.jpg	1	5	1	lemon	1	G	4	0	72	0		0	0	159.840148599935	159.94013569993
37583	0.0999892000108957	638	hunger	stimuli/foods\smoked_ham.jpg	1	5	1	smoked_ham	1	D	2	0	266	0		0	0	159.990139300004	160.090128500015
37620.5	0.099989700014703	639	hunger	stimuli/foods\mushroom.jpg	1	5	1	mushroom	1	J	6	0	85	0		0	0	160.140136200003	160.240125900018
37658	0.099996899953112	640	hunger	stimuli/foods\brownie.jpg	1	5	1	brownie	1	B	0	0	14	0		0	0	160.290135100018	160.390131999971
37695.5	0.100003100000322	641	hunger	stimuli/foods\cooked_prawn.jpg	1	5	1	cooked_prawn	1	K	7	0	36	0		0	0	160.4401297	160.540132800001
37733	0.0999867999926209	642	hunger	stimuli/non_foods\non-food_inanimate_skirt.jpg	1	5	1	non-food_inanimate_skirt	0	L	8	0	209	0		0	0	160.590133699938	160.69012049993
37770.5	0.100003200001083	643	hunger	stimuli/foods\oyster.jpg	1	5	1	oyster	1	B	0	0	233	0		0	0	160.740127199912	160.840130399913
37808	0.0999870001105592	644	hunger	stimuli/foods\ice_cream.jpg	1	5	1	ice_cream	1	J	6	0	68	0		0	0	160.890139099909	160.99012610002
37845.5	0.100030999979936	645	hunger	stimuli/foods\honey.jpg	1	5	1	honey	1	L	8	0	66	0		0	0	161.040142099955	161.140173099935
37883	0.0999696999788284	646	hunger	stimuli/foods\grapefruits.jpg	1	5	1	grapefruits	1	S	13	0	59	0		0	0	161.190155099961	161.29012479994
37920.5	0.0999861999880522	647	hunger	stimuli/foods\potato_chips.jpg	1	5	1	potato_chips	1	R	12	0	247	0		0	0	161.340136399958	161.440122599946
37958	0.0999839999713004	648	hunger	stimuli/foods\lollies.jpg	1	5	1	lollies	1	H	5	0	78	0		0	0	161.490140300011	161.590124299983
