onset	duration	eventnumber	hunger_condition	stimfilename	blockno	trialno	is_faststream	stim	food_idx	letter	letter_idx	istarget	image_number	response	keypressed	rt	correct	time_stimon	time_stimoff
9316	0.0999738997779787	0	satiated	stimuli/foods\spring_onions.jpg	1	1	1	spring_onions	1	F	3	0	269	0		0	0	48.8579195998609	48.9578934996389
9353.5	0.100037700030953	1	satiated	stimuli/non_foods\non-food_animate_baby_sitting.jpg	1	1	1	non-food_animate_baby_sitting	0	K	7	0	93	0		0	0	49.0079117999412	49.1079494999722
9391	0.0999734997749329	2	satiated	stimuli/non_foods\non-food_animate_deer.jpg	1	1	1	non-food_animate_deer	0	Z	18	0	105	0		0	0	49.1579058999196	49.2578793996945
9428.5	0.0999477999284863	3	satiated	stimuli/non_foods\non-food_animate_swan.jpg	1	1	1	non-food_animate_swan	0	L	8	0	152	0		0	0	49.3079415000975	49.407889300026
9466	0.0999842998571694	4	satiated	stimuli/foods\chocolate_pralines.jpg	1	1	1	chocolate_pralines	1	X	17	0	28	0		0	0	49.4579031998292	49.5578874996863
9503.5	0.0999865997582674	5	satiated	stimuli/non_foods\non-food_inanimate_hammer.jpg	1	1	1	non-food_inanimate_hammer	0	M	9	0	186	0		0	0	49.6079011000693	49.7078876998276
9541	0.0999809000641108	6	satiated	stimuli/foods\fries.jpg	1	1	1	fries	1	G	4	0	52	0		0	0	49.7578993998468	49.8578802999109
9578.5	0.0999875999987125	7	satiated	stimuli/non_foods\non-food_animate_donkey.jpg	1	1	1	non-food_animate_donkey	0	K	7	0	107	0		0	0	49.9078957000747	50.0078833000734
9616	0.0999837000854313	8	satiated	stimuli/non_foods\non-food_animate_seal.jpg	1	1	1	non-food_animate_seal	0	R	12	0	146	0		0	0	50.0578955998644	50.1578792999499
9653.5	0.0999836004339159	9	satiated	stimuli/foods\onion.jpg	1	1	1	onion	1	K	7	0	229	0		0	0	50.2078938996419	50.3078775000758
9691	0.0999842002056539	10	satiated	stimuli/foods\raw_ham.jpg	1	1	1	raw_ham	1	L	8	0	253	0		0	0	50.3578901998699	50.4578744000755
9728.5	0.0999854002147913	11	satiated	stimuli/foods\chilli.jpg	1	1	1	chilli	1	R	12	0	25	0		0	0	50.5078877997585	50.6078731999733
9766	0.099968200083822	12	satiated	stimuli/foods\salami.jpg	1	1	1	salami	1	C	1	0	263	0		0	0	50.6578905996867	50.7578587997705
9803.5	0.0997268003411591	13	satiated	stimuli/non_foods\non-food_animate_raccoon.jpg	1	1	1	non-food_animate_raccoon	0	T	14	0	139	0		0	0	50.8081195997074	50.9078464000486
9841	0.0999836996197701	14	satiated	stimuli/foods\waffle.jpg	1	1	1	waffle	1	X	17	0	278	0		0	0	50.9578776000999	51.0578612997197
9878.5	0.0999993002042174	15	satiated	stimuli/non_foods\non-food_animate_eagle.jpg	1	1	1	non-food_animate_eagle	0	F	3	0	110	0		0	0	51.1078673996963	51.2078666999005
9916	0.0999909001402557	16	satiated	stimuli/non_foods\non-food_inanimate_cactus_pot_plant.jpg	1	1	1	non-food_inanimate_cactus_pot_plant	0	C	1	0	169	0		0	0	51.2578730997629	51.3578639999032
9953.5	0.0999901001341641	17	satiated	stimuli/foods\potato_chips.jpg	1	1	1	potato_chips	1	G	4	0	247	0		0	0	51.4078758996911	51.5078659998253
9991	0.099969900213182	18	satiated	stimuli/foods\taco.jpg	1	1	1	taco	1	H	5	0	274	0		0	0	51.5578803997487	51.6578502999619
10028.5	0.0999759999103844	19	satiated	stimuli/foods\baked_lamb_with_potatoes.jpg	1	1	1	baked_lamb_with_potatoes	1	W	16	0	8	0		0	0	51.7078726999462	51.8078486998565
10066	0.0999818998388946	20	satiated	stimuli/non_foods\non-food_animate_slug.jpg	1	1	1	non-food_animate_slug	0	X	17	0	148	0		0	0	51.8578681000508	51.9578499998897
10103.5	0.0999591997824609	21	satiated	stimuli/foods\hamburger.jpg	1	1	1	hamburger	1	V	15	0	64	0		0	0	52.0078870998695	52.107846299652
10141	0.099976200144738	22	satiated	stimuli/foods\avocado.jpg	1	1	1	avocado	1	L	8	0	5	0		0	0	52.1578616998158	52.2578378999606
10178.5	0.10001160018146	23	satiated	stimuli/non_foods\non-food_animate_mammoth.jpg	1	1	1	non-food_animate_mammoth	0	P	11	0	128	0		0	0	52.3078409996815	52.407852599863
10216	0.0999902999028563	24	satiated	stimuli/non_foods\non-food_animate_ram.jpg	1	1	1	non-food_animate_ram	0	W	16	0	140	0		0	0	52.4578615999781	52.5578518998809
10253.5	0.0999849000945687	25	satiated	stimuli/non_foods\non-food_inanimate_waterlily.jpg	1	1	1	non-food_inanimate_waterlily	0	X	17	0	226	0		0	0	52.6078674998134	52.707852399908
10291	0.0999952000565827	26	satiated	stimuli/non_foods\non-food_animate_squirrel.jpg	1	1	1	non-food_animate_squirrel	0	L	8	0	150	0		0	0	52.7578504998237	52.8578456998803
10328.5	0.0999567001126707	27	satiated	stimuli/foods\cupcake.jpg	1	1	1	cupcake	1	K	7	0	42	0		0	0	52.9078917996958	53.0078484998085
10366	0.0999810001812875	28	satiated	stimuli/foods\ginger_root.jpg	1	1	1	ginger_root	1	X	17	0	57	0		0	0	53.0578601998277	53.157841200009
10403.5	0.099983099848032	29	satiated	stimuli/foods\figs.jpg	1	1	1	figs	1	A	19	1	48	0		0	0	53.2078542998061	53.3078373996541
10441	0.0999866002239287	30	satiated	stimuli/foods\lemon.jpg	1	1	1	lemon	1	K	7	0	72	0		0	0	53.3578523998149	53.4578390000388
10478.5	0.0999842998571694	31	satiated	stimuli/foods\savory_pie.jpg	1	1	1	savory_pie	1	F	3	0	265	0		0	0	53.507852899842	53.6078371996991
10516	0.0999588998965919	32	satiated	stimuli/non_foods\non-food_inanimate_sun_flower.jpg	1	1	1	non-food_inanimate_sun_flower	0	D	2	0	216	0		0	0	53.6578726000153	53.7578314999118
10553.5	0.0999809997156262	33	satiated	stimuli/non_foods\non-food_inanimate_padlock.jpg	1	1	1	non-food_inanimate_padlock	0	K	7	0	199	1	a	0.600768700242043	1	53.8078487999737	53.9078297996894
10591	0.0999944000504911	34	satiated	stimuli/non_foods\non-food_inanimate_canoe.jpg	1	1	1	non-food_inanimate_canoe	0	X	17	0	170	0		0	0	53.957843999844	54.0578383998945
10628.5	0.099985099863261	35	satiated	stimuli/non_foods\non-food_inanimate_moss.jpg	1	1	1	non-food_inanimate_moss	0	H	5	0	194	0		0	0	54.1078440998681	54.2078291997313
10666	0.0999855999834836	36	satiated	stimuli/foods\strawberry.jpg	1	1	1	strawberry	1	Z	18	0	272	0		0	0	54.257840000093	54.3578256000765
10703.5	0.099972500000149	37	satiated	stimuli/non_foods\non-food_inanimate_tulip.jpg	1	1	1	non-food_inanimate_tulip	0	N	10	0	224	0		0	0	54.4078457998112	54.5078182998113
10741	0.0999884000048041	38	satiated	stimuli/foods\pepperoni_pizza.jpg	1	1	1	pepperoni_pizza	1	R	12	0	241	0		0	0	54.5578359998763	54.6578243998811
10778.5	0.0999710001051426	39	satiated	stimuli/non_foods\non-food_animate_kangaroo.jpg	1	1	1	non-food_animate_kangaroo	0	N	10	0	122	0		0	0	54.7078375997953	54.8078085999005
10816	0.100005100015551	40	satiated	stimuli/non_foods\non-food_inanimate_headphones.jpg	1	1	1	non-food_inanimate_headphones	0	T	14	0	188	0		0	0	54.8578079999425	54.957813099958
10853.5	0.0999818998388946	41	satiated	stimuli/foods\green_olives.jpg	1	1	1	green_olives	1	B	0	0	62	0		0	0	55.007824299857	55.1078061996959
10891	0.0999956000596285	42	satiated	stimuli/foods\potatoes.jpg	1	1	1	potatoes	1	S	13	0	248	0		0	0	55.1578164999373	55.257812099997
10928.5	0.0999872996471822	43	satiated	stimuli/non_foods\non-food_inanimate_skateboard.jpg	1	1	1	non-food_inanimate_skateboard	0	G	4	0	208	0		0	0	55.3078282000497	55.4078154996969
10966	0.0999663998372853	44	satiated	stimuli/non_foods\non-food_inanimate_nailpolish.jpg	1	1	1	non-food_inanimate_nailpolish	0	C	1	0	195	0		0	0	55.4578443998471	55.5578107996844
11003.5	0.0999884000048041	45	satiated	stimuli/foods\oyster.jpg	1	1	1	oyster	1	W	16	0	233	0		0	0	55.6078252000734	55.7078136000782
11041	0.0999839003197849	46	satiated	stimuli/non_foods\non-food_animate_woman.jpg	1	1	1	non-food_animate_woman	0	P	11	0	154	0		0	0	55.7578245997429	55.8578085000627
11078.5	0.0999878002330661	47	satiated	stimuli/non_foods\non-food_animate_elephant.jpg	1	1	1	non-food_animate_elephant	0	J	6	0	111	0		0	0	55.907816299703	56.007804099936
11116	0.0999880000017583	48	satiated	stimuli/non_foods\non-food_inanimate_clover.jpg	1	1	1	non-food_inanimate_clover	0	V	15	0	174	0		0	0	56.0578167997301	56.1578047997318
11153.5	0.0999774001538754	49	satiated	stimuli/non_foods\non-food_inanimate_grass.jpg	1	1	1	non-food_inanimate_grass	0	L	8	0	184	0		0	0	56.2078203996643	56.3077977998182
11191	0.0999775999225676	50	satiated	stimuli/non_foods\non-food_animate_caterpillar.jpg	1	1	1	non-food_animate_caterpillar	0	S	13	0	99	0		0	0	56.3578139999881	56.4577915999107
11228.5	0.0999849997460842	51	satiated	stimuli/foods\omelette.jpg	1	1	1	omelette	1	G	4	0	228	0		0	0	56.5078048999421	56.6077898996882
11266	0.0999817000702024	52	satiated	stimuli/non_foods\non-food_animate_butterfly.jpg	1	1	1	non-food_animate_butterfly	0	H	5	0	96	0		0	0	56.657805999741	56.7577876998112
11303.5	0.0999750001356006	53	satiated	stimuli/foods\minestrone_soup.jpg	1	1	1	minestrone_soup	1	W	16	0	82	0		0	0	56.8078037998639	56.9077787999995
11341	0.0999901001341641	54	satiated	stimuli/non_foods\non-food_inanimate_construction_helment.jpg	1	1	1	non-food_inanimate_construction_helment	0	T	14	0	175	0		0	0	56.957795499824	57.0577855999582
11378.5	0.0999892000108957	55	satiated	stimuli/non_foods\non-food_inanimate_buds.jpg	1	1	1	non-food_inanimate_buds	0	H	5	0	166	0		0	0	57.1077962997369	57.2077854997478
11416	0.0999378999695182	56	satiated	stimuli/non_foods\non-food_animate_dachshund.jpg	1	1	1	non-food_animate_dachshund	0	J	6	0	104	0		0	0	57.2578487996943	57.3577866996638
11453.5	0.0999735998921096	57	satiated	stimuli/foods\stew_with_potatoes_and_carrots.jpg	1	1	1	stew_with_potatoes_and_carrots	1	P	11	0	271	0		0	0	57.4078007000498	57.507774299942
11491	0.0999790001660585	58	satiated	stimuli/foods\frankfurter_and_provolone_salad.jpg	1	1	1	frankfurter_and_provolone_salad	1	M	9	0	49	0		0	0	57.5577920996584	57.6577710998245
11528.5	0.100008100271225	59	satiated	stimuli/non_foods\non-food_animate_young_girl.jpg	1	1	1	non-food_animate_young_girl	0	F	3	0	157	0		0	0	57.7077759997919	57.8077841000631
11566	0.0999823999591172	60	satiated	stimuli/non_foods\non-food_inanimate_desk.jpg	1	1	1	non-food_inanimate_desk	0	G	4	0	178	0		0	0	57.8577974000946	57.9577798000537
11603.5	0.0999887003563344	61	satiated	stimuli/non_foods\non-food_inanimate_guitar.jpg	1	1	1	non-food_inanimate_guitar	0	F	3	0	185	0		0	0	58.0077911997214	58.1077799000777
11641	0.0999718001112342	62	satiated	stimuli/non_foods\non-food_animate_grasshopper.jpg	1	1	1	non-food_animate_grasshopper	0	Z	18	0	117	0		0	0	58.157793099992	58.2577649001032
11678.5	0.0999676999635994	63	satiated	stimuli/foods\honey.jpg	1	1	1	honey	1	M	9	0	66	0		0	0	58.3077977998182	58.4077654997818
11716	0.0999993002042174	64	satiated	stimuli/non_foods\non-food_animate_baby_crawling.jpg	1	1	1	non-food_animate_baby_crawling	0	W	16	0	92	0		0	0	58.4577728998847	58.5577722000889
11753.5	0.0999790001660585	65	satiated	stimuli/foods\artichoke.jpg	1	1	1	artichoke	1	Z	18	0	3	0		0	0	58.6077864998952	58.7077655000612
11791	0.0999850002117455	66	satiated	stimuli/non_foods\non-food_animate_dolphin.jpg	1	1	1	non-food_animate_dolphin	0	F	3	0	106	0		0	0	58.7577836997807	58.8577686999924
11828.5	0.0999755999073386	67	satiated	stimuli/foods\brownie.jpg	1	1	1	brownie	1	R	12	0	14	0		0	0	58.9077896997333	59.0077652996406
11866	0.0999703002162278	68	satiated	stimuli/foods\garlic.jpg	1	1	1	garlic	1	F	3	0	56	0		0	0	59.0577944996767	59.1577647998929
11903.5	0.0999670997262001	69	satiated	stimuli/non_foods\non-food_animate_giraffe.jpg	1	1	1	non-food_animate_giraffe	0	X	17	0	115	0		0	0	59.2077778000385	59.3077448997647
11941	0.0999805997125804	70	satiated	stimuli/foods\carrot.jpg	1	1	1	carrot	1	B	0	0	19	0		0	0	59.3577817999758	59.4577623996884
11978.5	0.100008900277317	71	satiated	stimuli/foods\lollies.jpg	1	1	1	lollies	1	J	6	0	78	0		0	0	59.5077474997379	59.6077564000152
12016	0.0999801000580192	72	satiated	stimuli/non_foods\non-food_animate_ant.jpg	1	1	1	non-food_animate_ant	0	P	11	0	91	0		0	0	59.6577762998641	59.7577563999221
12053.5	0.0999878998845816	73	satiated	stimuli/foods\red_cabbage.jpg	1	1	1	red_cabbage	1	R	12	0	256	0		0	0	59.8077675998211	59.9077554997057
12091	0.0999922999180853	74	satiated	stimuli/non_foods\non-food_inanimate_socks.jpg	1	1	1	non-food_inanimate_socks	0	M	9	0	211	0		0	0	59.9577597999014	60.0577520998195
12128.5	0.0999841997399926	75	satiated	stimuli/foods\grilled_chicken_breast.jpg	1	1	1	grilled_chicken_breast	1	N	10	0	63	0		0	0	60.1077676001005	60.2077517998405
12166	0.0999835003167391	76	satiated	stimuli/non_foods\non-food_animate_clown.jpg	1	1	1	non-food_animate_clown	0	J	6	0	102	0		0	0	60.2577621997334	60.3577457000501
12203.5	0.0999822998419404	77	satiated	stimuli/foods\pumpkin.jpg	1	1	1	pumpkin	1	K	7	0	250	0		0	0	60.4077637000009	60.5077459998429
12241	0.0999650997109711	78	satiated	stimuli/non_foods\non-food_animate_mouse.jpg	1	1	1	non-food_animate_mouse	0	H	5	0	131	0		0	0	60.5577571000904	60.6577221998014
12278.5	0.0999922002665699	79	satiated	stimuli/foods\green_beans.jpg	1	1	1	green_beans	1	T	14	0	61	0		0	0	60.7077571996488	60.8077493999153
12316	0.0999604002572596	80	satiated	stimuli/foods\salmon.jpg	1	1	1	salmon	1	M	9	0	264	0		0	0	60.8577541997656	60.9577146000229
12353.5	0.0999846002086997	81	satiated	stimuli/non_foods\non-food_animate_lion.jpg	1	1	1	non-food_animate_lion	0	F	3	0	125	0		0	0	61.0077541996725	61.1077387998812
12391	0.0999862998723984	82	satiated	stimuli/non_foods\non-food_inanimate_table.jpg	1	1	1	non-food_inanimate_table	0	H	5	0	217	0		0	0	61.1577531998046	61.257739499677
12428.5	0.0999833000823855	83	satiated	stimuli/non_foods\non-food_animate_lizard.jpg	1	1	1	non-food_animate_lizard	0	T	14	0	126	0		0	0	61.3077516998164	61.4077349998988
12466	0.0999855999834836	84	satiated	stimuli/non_foods\non-food_inanimate_couch.jpg	1	1	1	non-food_inanimate_couch	0	H	5	0	176	0		0	0	61.4577470999211	61.5577326999046
12503.5	0.0999803999438882	85	satiated	stimuli/foods\potato_and_green_bean_salad.jpg	1	1	1	potato_and_green_bean_salad	1	X	17	0	246	0		0	0	61.607748999726	61.7077293996699
12541	0.0999858002178371	86	satiated	stimuli/foods\fruit_salad.jpg	1	1	1	fruit_salad	1	H	5	0	55	0		0	0	61.7577446997166	61.8577304999344
12578.5	0.0999888000078499	87	satiated	stimuli/non_foods\non-food_inanimate_alarm_clock.jpg	1	1	1	non-food_inanimate_alarm_clock	0	X	17	0	158	0		0	0	61.9077403000556	62.0077291000634
12616	0.0999822001904249	88	satiated	stimuli/non_foods\non-food_inanimate_jeans.jpg	1	1	1	non-food_inanimate_jeans	0	R	12	0	191	0		0	0	62.0577433998697	62.1577256000601
12653.5	0.0999858002178371	89	satiated	stimuli/foods\pasta_carbonara.jpg	1	1	1	pasta_carbonara	1	V	15	0	236	0		0	0	62.2077366998419	62.3077225000598
12691	0.0999858002178371	90	satiated	stimuli/foods\blackberry.jpg	1	1	1	blackberry	1	R	12	0	11	0		0	0	62.357740199659	62.4577259998769
12728.5	0.0999902002513409	91	satiated	stimuli/non_foods\non-food_animate_runner.jpg	1	1	1	non-food_animate_runner	0	G	4	0	142	0		0	0	62.5077439998277	62.607734200079
12766	0.0999829000793397	92	satiated	stimuli/foods\fennel.jpg	1	1	1	fennel	1	W	16	0	47	0		0	0	62.6577347996645	62.7577176997438
12803.5	0.0999908996745944	93	satiated	stimuli/non_foods\non-food_inanimate_teddy_bear.jpg	1	1	1	non-food_inanimate_teddy_bear	0	G	4	0	218	0		0	0	62.8077265000902	62.9077173997648
12841	0.0999753000214696	94	satiated	stimuli/foods\capsicum.jpg	1	1	1	capsicum	1	B	0	0	18	0		0	0	62.9577313000336	63.0577066000551
12878.5	0.0999881001189351	95	satiated	stimuli/foods\orange.jpg	1	1	1	orange	1	P	11	0	230	0		0	0	63.1077276999131	63.207715800032
12916	0.0999761000275612	96	satiated	stimuli/non_foods\non-food_animate_ladybug.jpg	1	1	1	non-food_animate_ladybug	0	O	22	1	124	0		0	0	63.2577333999798	63.3577095000073
12953.5	0.0999843999743462	97	satiated	stimuli/non_foods\non-food_animate_green_bug.jpg	1	1	1	non-food_animate_green_bug	0	Z	18	0	118	0		0	0	63.4077246999368	63.5077090999112
12991	0.0999859999865294	98	satiated	stimuli/non_foods\non-food_inanimate_bowling_ball.jpg	1	1	1	non-food_inanimate_bowling_ball	0	G	4	0	162	0		0	0	63.5577234998345	63.6577094998211
13028.5	0.0999843999743462	99	satiated	stimuli/non_foods\non-food_animate_snail.jpg	1	1	1	non-food_animate_snail	0	C	1	0	149	1	a	0.443388999905437	1	63.7077212999575	63.8077056999318
13066	0.1000195001252	100	satiated	stimuli/foods\rice_cake.jpg	1	1	1	rice_cake	1	R	12	0	258	0		0	0	63.8577112997882	63.9577307999134
13103.5	0.0999576998874545	101	satiated	stimuli/foods\corncob.jpg	1	1	1	corncob	1	J	6	0	37	0		0	0	64.0077157998458	64.1076734997332
13141	0.100027400068939	102	satiated	stimuli/foods\chocolate_pudding.jpg	1	1	1	chocolate_pudding	1	N	10	0	29	0		0	0	64.1577083999291	64.257735799998
13178.5	0.100001099985093	103	satiated	stimuli/non_foods\non-food_animate_rhino.jpg	1	1	1	non-food_animate_rhino	0	S	13	0	141	0		0	0	64.3076933999546	64.4076944999397
13216	0.0999801997095346	104	satiated	stimuli/non_foods\non-food_inanimate_rope.jpg	1	1	1	non-food_inanimate_rope	0	V	15	0	204	0		0	0	64.4577047000639	64.5576848997734
13253.5	0.0999730001203716	105	satiated	stimuli/non_foods\non-food_inanimate_bicycle.jpg	1	1	1	non-food_inanimate_bicycle	0	H	5	0	161	0		0	0	64.6077046999708	64.7076777000912
13291	0.0999984000809491	106	satiated	stimuli/non_foods\non-food_animate_bee.jpg	1	1	1	non-food_animate_bee	0	M	9	0	95	0		0	0	64.7576931999065	64.8576915999874
13328.5	0.0999850002117455	107	satiated	stimuli/non_foods\non-food_animate_polar_bear.jpg	1	1	1	non-food_animate_polar_bear	0	N	10	0	137	0		0	0	64.9077049996704	65.0076899998821
13366	0.099961900152266	108	satiated	stimuli/foods\pear.jpg	1	1	1	pear	1	X	17	0	239	0		0	0	65.0577071998268	65.1576690999791
13403.5	0.0999851999804378	109	satiated	stimuli/foods\chocolate_bar.jpg	1	1	1	chocolate_bar	1	D	2	0	26	0		0	0	65.2076832996681	65.3076684996486
13441	0.0999867999926209	110	satiated	stimuli/non_foods\non-food_inanimate_nettle.jpg	1	1	1	non-food_inanimate_nettle	0	N	10	0	197	0		0	0	65.3577012000605	65.4576880000532
13478.5	0.0999676999635994	111	satiated	stimuli/non_foods\non-food_inanimate_bucket.jpg	1	1	1	non-food_inanimate_bucket	0	F	3	0	165	0		0	0	65.5077109998092	65.6076786997728
13516	0.099984799977392	112	satiated	stimuli/non_foods\non-food_inanimate_leaf.jpg	1	1	1	non-food_inanimate_leaf	0	B	0	0	192	0		0	0	65.6576950997114	65.7576798996888
13553.5	0.0999870002269745	113	satiated	stimuli/non_foods\non-food_animate_monkey.jpg	1	1	1	non-food_animate_monkey	0	N	10	0	130	0		0	0	65.8076948998496	65.9076819000766
13591	0.0999871999956667	114	satiated	stimuli/foods\toasted_bread_with_tomatoes.jpg	1	1	1	toasted_bread_with_tomatoes	1	H	5	0	275	0		0	0	65.9576944997534	66.0576816997491
13628.5	0.0999571997672319	115	satiated	stimuli/non_foods\non-food_animate_fox.jpg	1	1	1	non-food_animate_fox	0	F	3	0	112	0		0	0	66.1077153999358	66.2076725997031
13666	0.0999821000732481	116	satiated	stimuli/foods\fruit_pie.jpg	1	1	1	fruit_pie	1	N	10	0	54	0		0	0	66.2576903998852	66.3576724999584
13703.5	0.0999886002391577	117	satiated	stimuli/foods\risotto_with_zucchini.jpg	1	1	1	risotto_with_zucchini	1	Z	18	0	260	0		0	0	66.4076824998483	66.5076711000875
13741	0.0999881997704506	118	satiated	stimuli/foods\broccoli.jpg	1	1	1	broccoli	1	W	16	0	13	0		0	0	66.5576855000108	66.6576736997813
13778.5	0.0999823999591172	119	satiated	stimuli/non_foods\non-food_animate_sea_lion.jpg	1	1	1	non-food_animate_sea_lion	0	F	3	0	143	0		0	0	66.7076824000105	66.8076647999696
13816	0.0999841000884771	120	satiated	stimuli/foods\roasted_chicken.jpg	1	1	1	roasted_chicken	1	W	16	0	261	0		0	0	66.8576809996739	66.9576650997624
13853.5	0.0999873001128435	121	satiated	stimuli/non_foods\non-food_animate_peacock.jpg	1	1	1	non-food_animate_peacock	0	R	12	0	134	0		0	0	67.0076775997877	67.1076648999006
13891	0.0999757000245154	122	satiated	stimuli/foods\cream_donuts.jpg	1	1	1	cream_donuts	1	M	9	0	39	0		0	0	67.1576767996885	67.257652499713
13928.5	0.100008000154048	123	satiated	stimuli/foods\banana.jpg	1	1	1	banana	1	G	4	0	9	0		0	0	67.3076681997627	67.4076761999168
13966	0.0999706001020968	124	satiated	stimuli/non_foods\non-food_inanimate_stapler.jpg	1	1	1	non-food_inanimate_stapler	0	U	23	1	213	0		0	0	67.4576610997319	67.557631699834
14003.5	0.0999806001782417	125	satiated	stimuli/foods\cooked_ham.jpg	1	1	1	cooked_ham	1	D	2	0	35	0		0	0	67.607670399826	67.7076510000043
14041	0.0999968000687659	126	satiated	stimuli/foods\grapefruits.jpg	1	1	1	grapefruits	1	X	17	0	59	0		0	0	67.757659799885	67.8576565999538
14078.5	0.0999637003988028	127	satiated	stimuli/non_foods\non-food_inanimate_stoplight.jpg	1	1	1	non-food_inanimate_stoplight	0	M	9	0	214	0		0	0	67.9076890996657	68.0076528000645
14116	0.0999859999865294	128	satiated	stimuli/non_foods\non-food_inanimate_speakers.jpg	1	1	1	non-food_inanimate_speakers	0	L	8	0	212	1	a	0.691836300306022	1	68.0576649000868	68.1576509000733
14153.5	0.0999778998084366	129	satiated	stimuli/foods\pea_pod.jpg	1	1	1	pea_pod	1	X	17	0	237	0		0	0	68.2076639998704	68.3076418996789
14191	0.0999823003076017	130	satiated	stimuli/foods\museli_bars.jpg	1	1	1	museli_bars	1	H	5	0	84	0		0	0	68.3576614996418	68.4576437999494
14228.5	0.0999912000261247	131	satiated	stimuli/non_foods\non-food_inanimate_fire_extinguisher.jpg	1	1	1	non-food_inanimate_fire_extinguisher	0	V	15	0	181	0		0	0	68.5076572997496	68.6076484997757
14266	0.0999815999530256	132	satiated	stimuli/foods\coconut.jpg	1	1	1	coconut	1	H	5	0	33	0		0	0	68.6576613998041	68.7576429997571
14303.5	0.0999858002178371	133	satiated	stimuli/foods\pork_and_rice.jpg	1	1	1	pork_and_rice	1	B	0	0	245	0		0	0	68.8076535998844	68.9076394001022
14341	0.0999588998965919	134	satiated	stimuli/foods\cabbage.jpg	1	1	1	cabbage	1	P	11	0	16	0		0	0	68.9576713000424	69.057630199939
14378.5	0.0999818998388946	135	satiated	stimuli/foods\coffee_beans.jpg	1	1	1	coffee_beans	1	F	3	0	34	0		0	0	69.1076450999826	69.2076269998215
14416	0.0999784003943205	136	satiated	stimuli/non_foods\non-food_inanimate_bamboo.jpg	1	1	1	non-food_inanimate_bamboo	0	L	8	0	159	0		0	0	69.257643299643	69.3576217000373
14453.5	0.0999794001691043	137	satiated	stimuli/non_foods\non-food_inanimate_pine_cone.jpg	1	1	1	non-food_inanimate_pine_cone	0	J	6	0	200	0		0	0	69.4076458998024	69.5076252999716
14491	0.0999713996425271	138	satiated	stimuli/non_foods\non-food_animate_cow.jpg	1	1	1	non-food_animate_cow	0	W	16	0	103	0		0	0	69.557639000006	69.6576103996485
14528.5	0.0999533999711275	139	satiated	stimuli/non_foods\non-food_inanimate_shell.jpg	1	1	1	non-food_inanimate_shell	0	G	4	0	206	0		0	0	69.7076579998247	69.8076113997959
15682.75	0.0999516998417675	140	satiated	stimuli/foods\mango.jpg	1	2	1	mango	1	L	8	0	80	0		0	0	74.3242593999021	74.4242110997438
15720.25	0.0999846998602152	141	satiated	stimuli/foods\fried_calamari.jpg	1	2	1	fried_calamari	1	F	3	0	50	0		0	0	74.4742421000265	74.5742267998867
15757.75	0.0999984997324646	142	satiated	stimuli/foods\almonds.jpg	1	2	1	almonds	1	L	8	0	0	0		0	0	74.6242394000292	74.7242378997616
15795.25	0.0999692999757826	143	satiated	stimuli/foods\brie.jpg	1	2	1	brie	1	S	13	0	12	0		0	0	74.7742661000229	74.8742353999987
15832.75	0.0999724003486335	144	satiated	stimuli/foods\grapes.jpg	1	2	1	grapes	1	H	5	0	60	0		0	0	74.9242571997456	75.0242296000943
15870.25	0.100001099985093	145	satiated	stimuli/non_foods\non-food_inanimate_bush.jpg	1	2	1	non-food_inanimate_bush	0	F	3	0	167	0		0	0	75.0742282997817	75.1742293997668
15907.75	0.100010499823838	146	satiated	stimuli/non_foods\non-food_animate_Causasian_man.jpg	1	2	1	non-food_animate_Causasian_man	0	C	1	0	89	0		0	0	75.2242152998224	75.3242257996462
15945.25	0.0999623001553118	147	satiated	stimuli/foods\mandarin.jpg	1	2	1	mandarin	1	Z	18	0	79	0		0	0	75.3742443998344	75.4742066999897
15982.75	0.0999822001904249	148	satiated	stimuli/non_foods\non-food_animate_cat.jpg	1	2	1	non-food_animate_cat	0	H	5	0	98	0		0	0	75.5242363996804	75.6242185998708
16020.25	0.0999930999241769	149	satiated	stimuli/non_foods\non-food_animate_parrot.jpg	1	2	1	non-food_animate_parrot	0	L	8	0	133	0		0	0	75.6742354999296	75.7742285998538
16057.75	0.099993800278753	150	satiated	stimuli/foods\raw_sausage.jpg	1	2	1	raw_sausage	1	W	16	0	254	0		0	0	75.8242322998121	75.9242261000909
16095.25	0.0999929001554847	151	satiated	stimuli/non_foods\non-food_animate_dragonfly.jpg	1	2	1	non-food_animate_dragonfly	0	G	4	0	108	0		0	0	75.9742157999426	76.0742087000981
16132.75	0.100003000348806	152	satiated	stimuli/foods\cherry.jpg	1	2	1	cherry	1	C	1	0	23	0		0	0	76.1242144997232	76.224217500072
16170.25	0.0999845997430384	153	satiated	stimuli/non_foods\non-food_animate_tortoise.jpg	1	2	1	non-food_animate_tortoise	0	F	3	0	153	0		0	0	76.2742250999436	76.3742096996866
16207.75	0.0999927995726466	154	satiated	stimuli/foods\peach.jpg	1	2	1	peach	1	V	15	0	238	0		0	0	76.4242233000696	76.5242160996422
16245.25	0.0999440001323819	155	satiated	stimuli/non_foods\non-food_inanimate_rack.jpg	1	2	1	non-food_inanimate_rack	0	J	6	0	202	0		0	0	76.5742647997104	76.6742087998427
16282.75	0.0999842998571694	156	satiated	stimuli/non_foods\non-food_inanimate_hay.jpg	1	2	1	non-food_inanimate_hay	0	V	15	0	187	0		0	0	76.7242212998681	76.8242055997252
16320.25	0.0999694000929594	157	satiated	stimuli/foods\spaghetti_with_meat_sauce.jpg	1	2	1	spaghetti_with_meat_sauce	1	Z	18	0	267	0		0	0	76.8742211996578	76.9741905997507
16357.75	0.100015200208873	158	satiated	stimuli/non_foods\non-food_animate_porcupine.jpg	1	2	1	non-food_animate_porcupine	0	H	5	0	138	0		0	0	77.0242002997547	77.1242154999636
16395.25	0.100003100000322	159	satiated	stimuli/non_foods\non-food_inanimate_lighter.jpg	1	2	1	non-food_inanimate_lighter	0	S	13	0	193	0		0	0	77.1742000998929	77.2742031998932
16432.75	0.0999746997840703	160	satiated	stimuli/non_foods\non-food_inanimate_ring.jpg	1	2	1	non-food_inanimate_ring	0	F	3	0	203	0		0	0	77.3241963000037	77.4241709997877
16470.25	0.0999866998754442	161	satiated	stimuli/non_foods\non-food_animate_frog.jpg	1	2	1	non-food_animate_frog	0	A	19	1	113	0		0	0	77.4742107000202	77.5741973998956
16507.75	0.0999845000915229	162	satiated	stimuli/non_foods\non-food_inanimate_wrench.jpg	1	2	1	non-food_inanimate_wrench	0	G	4	0	227	0		0	0	77.6242112996988	77.7241957997903
16545.25	0.0999845997430384	163	satiated	stimuli/foods\celery.jpg	1	2	1	celery	1	R	12	0	21	1	a	0.391823299694806	1	77.774208100047	77.87419269979
16582.75	0.0999731998890638	164	satiated	stimuli/non_foods\non-food_animate_pigeon.jpg	1	2	1	non-food_animate_pigeon	0	N	10	0	136	0		0	0	77.924207800068	78.024180999957
16620.25	0.0999612999148667	165	satiated	stimuli/foods\apple.jpg	1	2	1	apple	1	J	6	0	1	0		0	0	78.0742012998089	78.1741625997238
16657.75	0.1000195001252	166	satiated	stimuli/non_foods\non-food_inanimate_toilet.jpg	1	2	1	non-food_inanimate_toilet	0	B	0	0	220	0		0	0	78.2241782997735	78.3241977998987
16695.25	0.100031699985266	167	satiated	stimuli/non_foods\non-food_inanimate_cap.jpg	1	2	1	non-food_inanimate_cap	0	F	3	0	171	0		0	0	78.3741732998751	78.4742049998604
16732.75	0.099972799886018	168	satiated	stimuli/foods\rockmelon.jpg	1	2	1	rockmelon	1	Z	18	0	262	0		0	0	78.524201199878	78.624173999764
16770.25	0.0999924000352621	169	satiated	stimuli/foods\hazelnuts.jpg	1	2	1	hazelnuts	1	H	5	0	65	0		0	0	78.6741904998198	78.7741828998551
16807.75	0.0999809000641108	170	satiated	stimuli/non_foods\non-food_animate_iguana.jpg	1	2	1	non-food_animate_iguana	0	R	12	0	121	0		0	0	78.8241959996521	78.9241768997163
16845.25	0.0999896000139415	171	satiated	stimuli/foods\gnocchi.jpg	1	2	1	gnocchi	1	P	11	0	58	0		0	0	78.9741901997477	79.0741797997616
16882.75	0.0999830001965165	172	satiated	stimuli/foods\lamb_chops.jpg	1	2	1	lamb_chops	1	T	14	0	70	0		0	0	79.12419269979	79.2241756999865
16920.25	0.10000400012359	173	satiated	stimuli/foods\mortadella.jpg	1	2	1	mortadella	1	L	8	0	83	0		0	0	79.2741709998809	79.3741750000045
16957.75	0.0999869001097977	174	satiated	stimuli/non_foods\non-food_animate_killer_whale.jpg	1	2	1	non-food_animate_killer_whale	0	H	5	0	123	0		0	0	79.4242044999264	79.5241914000362
16995.25	0.0999833000823855	175	satiated	stimuli/non_foods\non-food_animate_seahorse.jpg	1	2	1	non-food_animate_seahorse	0	G	4	0	145	0		0	0	79.5741860996932	79.6741693997756
17032.75	0.0999831999652088	176	satiated	stimuli/foods\oven-roasted_tomatoes.jpg	1	2	1	oven-roasted_tomatoes	1	B	0	0	232	0		0	0	79.7241822998039	79.8241654997692
17070.25	0.0999844996258616	177	satiated	stimuli/non_foods\non-food_inanimate_suitcase.jpg	1	2	1	non-food_inanimate_suitcase	0	L	8	0	215	0		0	0	79.8741830000654	79.9741674996912
17107.75	0.100007299799472	178	satiated	stimuli/foods\papaya.jpg	1	2	1	papaya	1	K	7	0	235	0		0	0	80.0241781999357	80.1241854997352
17145.25	0.099982799962163	179	satiated	stimuli/foods\pomegranate.jpg	1	2	1	pomegranate	1	V	15	0	244	0		0	0	80.1741788997315	80.2741616996937
17182.75	0.0999938999302685	180	satiated	stimuli/non_foods\non-food_inanimate_orchid.jpg	1	2	1	non-food_inanimate_orchid	0	G	4	0	198	0		0	0	80.3241754998453	80.4241693997756
17220.25	0.0999823999591172	181	satiated	stimuli/non_foods\non-food_animate_llama.jpg	1	2	1	non-food_animate_llama	0	M	9	0	127	0		0	0	80.4741748999804	80.5741572999395
17257.75	0.0999884000048041	182	satiated	stimuli/foods\chestnut.jpg	1	2	1	chestnut	1	D	2	0	24	0		0	0	80.6241681999527	80.7241565999575
17295.25	0.0999844004400074	183	satiated	stimuli/non_foods\non-food_animate_cheetah.jpg	1	2	1	non-food_animate_cheetah	0	R	12	0	100	0		0	0	80.7741703996435	80.8741548000835
17332.75	0.0999940000474453	184	satiated	stimuli/non_foods\non-food_inanimate_briefcase.jpg	1	2	1	non-food_inanimate_briefcase	0	C	1	0	163	0		0	0	80.9241598998196	81.0241538998671
17370.25	0.0999799002893269	185	satiated	stimuli/non_foods\non-food_inanimate_tree.jpg	1	2	1	non-food_inanimate_tree	0	Z	18	0	223	0		0	0	81.0741697996855	81.1741496999748
17407.75	0.099967900197953	186	satiated	stimuli/non_foods\non-food_animate_camel.jpg	1	2	1	non-food_animate_camel	0	W	16	0	97	0		0	0	81.2241787998937	81.3241467000917
17445.25	0.0999867999926209	187	satiated	stimuli/non_foods\non-food_animate_gorilla.jpg	1	2	1	non-food_animate_gorilla	0	Z	18	0	116	0		0	0	81.3741620997898	81.4741488997824
17482.75	0.0999823999591172	188	satiated	stimuli/foods\cinnamon.jpg	1	2	1	cinnamon	1	B	0	0	30	0		0	0	81.5241630999371	81.6241454998963
17520.25	0.0999792004004121	189	satiated	stimuli/non_foods\non-food_inanimate_watering_can.jpg	1	2	1	non-food_inanimate_watering_can	0	P	11	0	225	0		0	0	81.6741585996933	81.7741378000937
17557.75	0.100004199892282	190	satiated	stimuli/non_foods\non-food_animate_owl.jpg	1	2	1	non-food_animate_owl	0	X	17	0	132	0		0	0	81.8241403000429	81.9241444999352
17595.25	0.0999612999148667	191	satiated	stimuli/foods\linguine_with_clams.jpg	1	2	1	linguine_with_clams	1	V	15	0	77	0		0	0	81.9741676999256	82.0741289998405
17632.75	0.0999932996928692	192	satiated	stimuli/foods\hotdog.jpg	1	2	1	hotdog	1	U	23	1	67	0		0	0	82.1241460000165	82.2241392997093
17670.25	0.0999845997430384	193	satiated	stimuli/foods\pancakes.jpg	1	2	1	pancakes	1	Z	18	0	234	0		0	0	82.2741547999904	82.3741393997334
17707.75	0.0999882998876274	194	satiated	stimuli/foods\ice_cream.jpg	1	2	1	ice_cream	1	R	12	0	68	0		0	0	82.4241508999839	82.5241391998716
17745.25	0.0999853000976145	195	satiated	stimuli/non_foods\non-food_animate_skunk.jpg	1	2	1	non-food_animate_skunk	0	G	4	0	147	1	a	0.541849100030959	1	82.5741494996473	82.6741347997449
17782.75	0.0999846998602152	196	satiated	stimuli/foods\cauliflower.jpg	1	2	1	cauliflower	1	D	2	0	20	0		0	0	82.7241441998631	82.8241288997233
17820.25	0.0999882998876274	197	satiated	stimuli/foods\chocolate_chip_cookies.jpg	1	2	1	chocolate_chip_cookies	1	M	9	0	27	0		0	0	82.8741407999769	82.9741290998645
17857.75	0.0999659998342395	198	satiated	stimuli/foods\cracker.jpg	1	2	1	cracker	1	L	8	0	38	0		0	0	83.0241521000862	83.1241180999205
17895.25	0.0999813000671566	199	satiated	stimuli/non_foods\non-food_inanimate_chandelier.jpg	1	2	1	non-food_inanimate_chandelier	0	R	12	0	173	0		0	0	83.174134099856	83.2741153999232
17932.75	0.0999745996668935	200	satiated	stimuli/non_foods\non-food_inanimate_toy_airplane.jpg	1	2	1	non-food_inanimate_toy_airplane	0	V	15	0	222	0		0	0	83.324131899979	83.4241064996459
17970.25	0.0999903003685176	201	satiated	stimuli/foods\bagel.jpg	1	2	1	bagel	1	F	3	0	6	0		0	0	83.4741300996393	83.5741204000078
18007.75	0.100041899830103	202	satiated	stimuli/non_foods\non-food_inanimate_fern.jpg	1	2	1	non-food_inanimate_fern	0	N	10	0	180	0		0	0	83.6241192999296	83.7241611997597
18045.25	0.0999933001585305	203	satiated	stimuli/non_foods\non-food_inanimate_skirt.jpg	1	2	1	non-food_inanimate_skirt	0	H	5	0	209	0		0	0	83.7741244998761	83.8741178000346
18082.75	0.0999825000762939	204	satiated	stimuli/non_foods\non-food_animate_yellow_bug.jpg	1	2	1	non-food_animate_yellow_bug	0	F	3	0	155	0		0	0	83.9241311997175	84.0241136997938
18120.25	0.0999842998571694	205	satiated	stimuli/foods\cannoli.jpg	1	2	1	cannoli	1	N	10	0	17	0		0	0	84.0741250999272	84.1741093997844
18157.75	0.0999831999652088	206	satiated	stimuli/foods\lettuce.jpg	1	2	1	lettuce	1	M	9	0	75	0		0	0	84.2241273000836	84.3241105000488
18195.25	0.0999869001097977	207	satiated	stimuli/non_foods\non-food_animate_student_female.jpg	1	2	1	non-food_animate_student_female	0	V	15	0	151	0		0	0	84.3741207998246	84.4741076999344
18232.75	0.0999843003228307	208	satiated	stimuli/foods\donut.jpg	1	2	1	donut	1	G	4	0	44	0		0	0	84.5241223997436	84.6241067000665
18270.25	0.0999846998602152	209	satiated	stimuli/foods\steak.jpg	1	2	1	steak	1	B	0	0	270	0		0	0	84.6741204001009	84.7741050999612
18307.75	0.0999843999743462	210	satiated	stimuli/non_foods\non-food_inanimate_broom.jpg	1	2	1	non-food_inanimate_broom	0	M	9	0	164	0		0	0	84.8241186998785	84.9241030998528
18345.25	0.0999867999926209	211	satiated	stimuli/non_foods\non-food_animate_young_boy.jpg	1	2	1	non-food_animate_young_boy	0	F	3	0	156	0		0	0	84.9741166997701	85.0741034997627
18382.75	0.0999977001920342	212	satiated	stimuli/foods\wafer.jpg	1	2	1	wafer	1	J	6	0	277	0		0	0	85.1240916997194	85.2240893999115
18420.25	0.100006200373173	213	satiated	stimuli/non_foods\non-food_animate_millipede.jpg	1	2	1	non-food_animate_millipede	0	X	17	0	129	0		0	0	85.2741036997177	85.3741099000908
18457.75	0.0999671001918614	214	satiated	stimuli/non_foods\non-food_inanimate_towel.jpg	1	2	1	non-food_inanimate_towel	0	D	2	0	221	0		0	0	85.4241319997236	85.5240990999155
18495.25	0.0999758997932076	215	satiated	stimuli/foods\raisins.jpg	1	2	1	raisins	1	T	14	0	252	0		0	0	85.5741200000048	85.674095899798
18532.75	0.099983399733901	216	satiated	stimuli/non_foods\non-food_inanimate_tent.jpg	1	2	1	non-food_inanimate_tent	0	V	15	0	219	0		0	0	85.7241100999527	85.8240934996866
18570.25	0.0999853000976145	217	satiated	stimuli/foods\fruit_flan.jpg	1	2	1	fruit_flan	1	S	13	0	53	0		0	0	85.8741032998078	85.9740885999054
18607.75	0.0999857001006603	218	satiated	stimuli/non_foods\non-food_inanimate_drum_set.jpg	1	2	1	non-food_inanimate_drum_set	0	H	5	0	179	0		0	0	86.0241029998288	86.1240886999294
18645.25	0.0999888000078499	219	satiated	stimuli/non_foods\non-food_inanimate_soccer_ball.jpg	1	2	1	non-food_inanimate_soccer_ball	0	C	1	0	210	0		0	0	86.1740990998223	86.2740878998302
18682.75	0.0999721996486187	220	satiated	stimuli/foods\pineapple.jpg	1	2	1	pineapple	1	B	0	0	243	0		0	0	86.3240978000686	86.4240699997172
18720.25	0.0999983004294336	221	satiated	stimuli/foods\cooked_prawn.jpg	1	2	1	cooked_prawn	1	K	7	0	36	0		0	0	86.4740875996649	86.5740859000944
18757.75	0.0999616999179125	222	satiated	stimuli/foods\tomato.jpg	1	2	1	tomato	1	J	6	0	276	0		0	0	86.6241206000559	86.7240822999738
18795.25	0.100005799904466	223	satiated	stimuli/non_foods\non-food_animate_penguin.jpg	1	2	1	non-food_animate_penguin	0	M	9	0	135	0		0	0	86.7740719998255	86.87407779973
18832.75	0.0999638000503182	224	satiated	stimuli/foods\cinnamon_sroll.jpg	1	2	1	cinnamon_sroll	1	S	13	0	31	0		0	0	86.9240908999927	87.0240547000431
18870.25	0.0999910002574325	225	satiated	stimuli/foods\apricot.jpg	1	2	1	apricot	1	M	9	0	2	0		0	0	87.0740832998417	87.1740743000992
18907.75	0.0999574000015855	226	satiated	stimuli/foods\asparagus.jpg	1	2	1	asparagus	1	X	17	0	4	0		0	0	87.2241066996939	87.3240640996955
18945.25	0.0999714001081884	227	satiated	stimuli/non_foods\non-food_inanimate_cupboard.jpg	1	2	1	non-food_inanimate_cupboard	0	R	12	0	177	0		0	0	87.3740829997696	87.4740543998778
18982.75	0.0999842002056539	228	satiated	stimuli/foods\brussel_sprouts.jpg	1	2	1	brussel_sprouts	1	L	8	0	15	0		0	0	87.5240833996795	87.6240675998852
19020.25	0.0999841997399926	229	satiated	stimuli/non_foods\non-food_animate_hummingbird.jpg	1	2	1	non-food_animate_hummingbird	0	Z	18	0	120	0		0	0	87.674083400052	87.774067599792
19057.75	0.0999809997156262	230	satiated	stimuli/foods\eggplant.jpg	1	2	1	eggplant	1	C	1	0	46	0		0	0	87.8240823000669	87.9240632997826
19095.25	0.0999854998663068	231	satiated	stimuli/non_foods\non-food_animate_alligator.jpg	1	2	1	non-food_animate_alligator	0	J	6	0	90	0		0	0	87.9740758999251	88.0740613997914
19132.75	0.099983099848032	232	satiated	stimuli/non_foods\non-food_inanimate_button.jpg	1	2	1	non-food_inanimate_button	0	B	0	0	168	0		0	0	88.1240785000846	88.2240615999326
19170.25	0.0999874002300203	233	satiated	stimuli/non_foods\non-food_animate_sea_turtle.jpg	1	2	1	non-food_animate_sea_turtle	0	D	2	0	144	0		0	0	88.2740726997145	88.3740600999445
19207.75	0.0999737000092864	234	satiated	stimuli/foods\radish.jpg	1	2	1	radish	1	Z	18	0	251	0		0	0	88.4240860999562	88.5240597999655
19245.25	0.0999582000076771	235	satiated	stimuli/non_foods\non-food_animate_duck.jpg	1	2	1	non-food_animate_duck	0	M	9	0	109	0		0	0	88.5740918000229	88.6740500000305
19282.75	0.0999814001843333	236	satiated	stimuli/foods\fried_zucchini.jpg	1	2	1	fried_zucchini	1	W	16	0	51	0		0	0	88.7240698998794	88.8240513000637
19320.25	0.100037300027907	237	satiated	stimuli/foods\clams.jpg	1	2	1	clams	1	D	2	0	32	0		0	0	88.8740407996811	88.974078099709
19357.75	0.0999513999558985	238	satiated	stimuli/non_foods\non-food_inanimate_scissors.jpg	1	2	1	non-food_inanimate_scissors	0	H	5	0	205	0		0	0	89.0240962998942	89.1240476998501
19395.25	0.0999707998707891	239	satiated	stimuli/non_foods\non-food_inanimate_bed.jpg	1	2	1	non-food_inanimate_bed	0	Z	18	0	160	0		0	0	89.1740768998861	89.2740476997569
19432.75	0.0999974999576807	240	satiated	stimuli/foods\red_beans.jpg	1	2	1	red_beans	1	G	4	0	255	0		0	0	89.3240604000166	89.4240578999743
19470.25	0.0999821000732481	241	satiated	stimuli/foods\beetroots.jpg	1	2	1	beetroots	1	D	2	0	10	0		0	0	89.474059399683	89.5740414997563
19507.75	0.0999871999956667	242	satiated	stimuli/non_foods\non-food_animate_chicken.jpg	1	2	1	non-food_animate_chicken	0	X	17	0	101	0		0	0	89.6240570996888	89.7240442996845
19545.25	0.0999896000139415	243	satiated	stimuli/foods\prawn.jpg	1	2	1	prawn	1	N	10	0	249	0		0	0	89.77405430004	89.8740439000539
19582.75	0.0999504998326302	244	satiated	stimuli/foods\baked_cod_with_carrots_and_green_beans.jpg	1	2	1	baked_cod_with_carrots_and_green_beans	1	R	12	0	7	0		0	0	89.9240572000854	90.024007699918
19620.25	0.0999909997917712	245	satiated	stimuli/non_foods\non-food_animate_horse.jpg	1	2	1	non-food_animate_horse	0	L	8	0	119	0		0	0	90.0740563999861	90.1740473997779
19657.75	0.09998539974913	246	satiated	stimuli/non_foods\non-food_animate_bat.jpg	1	2	1	non-food_animate_bat	0	P	11	0	94	0		0	0	90.2240480999462	90.3240334996954
19695.25	0.0999882002361119	247	satiated	stimuli/non_foods\non-food_inanimate_chair.jpg	1	2	1	non-food_inanimate_chair	0	L	8	0	172	0		0	0	90.3740479997359	90.474036199972
19732.75	0.0999823003076017	248	satiated	stimuli/foods\watermelon.jpg	1	2	1	watermelon	1	S	13	0	279	0		0	0	90.524048499763	90.6240308000706
19770.25	0.0999960000626743	249	satiated	stimuli/non_foods\non-food_inanimate_horn.jpg	1	2	1	non-food_inanimate_horn	0	R	12	0	190	0		0	0	90.6740433997475	90.7740393998101
19807.75	0.100002699997276	250	satiated	stimuli/non_foods\non-food_inanimate_folding_chair.jpg	1	2	1	non-food_inanimate_folding_chair	0	F	3	0	182	0		0	0	90.8240620000288	90.9240647000261
19845.25	0.0999750001356006	251	satiated	stimuli/foods\kiwi.jpg	1	2	1	kiwi	1	N	10	0	69	0		0	0	90.9740400998853	91.0740151000209
19882.75	0.0999861997552216	252	satiated	stimuli/non_foods\non-food_inanimate_short_sleeved_shirt.jpg	1	2	1	non-food_inanimate_short_sleeved_shirt	0	J	6	0	207	0		0	0	91.124035899993	91.2240220997483
19920.25	0.0999936000443995	253	satiated	stimuli/foods\cucumber.jpg	1	2	1	cucumber	1	T	14	0	41	0		0	0	91.2740402999334	91.3740338999778
19957.75	0.0999905001372099	254	satiated	stimuli/foods\peas.jpg	1	2	1	peas	1	M	9	0	240	0		0	0	91.4240283998661	91.5240189000033
19995.25	0.0999873001128435	255	satiated	stimuli/foods\croissant.jpg	1	2	1	croissant	1	P	11	0	40	0		0	0	91.5740342997015	91.6740215998143
20032.75	0.0999842998571694	256	satiated	stimuli/foods\spinach.jpg	1	2	1	spinach	1	K	7	0	268	0		0	0	91.7240300998092	91.8240143996663
20070.25	0.0999813000671566	257	satiated	stimuli/foods\swordfish.jpg	1	2	1	swordfish	1	R	12	0	273	0		0	0	91.8740280997008	91.974009399768
20107.75	0.0999543997459114	258	satiated	stimuli/foods\smoked_ham.jpg	1	2	1	smoked_ham	1	X	17	0	266	0		0	0	92.0240519000217	92.1240062997676
20145.25	0.0999846002086997	259	satiated	stimuli/non_foods\non-food_animate_Asian_man.jpg	1	2	1	non-food_animate_Asian_man	0	V	15	0	88	0		0	0	92.1740227998234	92.2740074000321
20182.75	0.0999984997324646	260	satiated	stimuli/foods\lentils.jpg	1	2	1	lentils	1	G	4	0	74	0		0	0	92.3240165999159	92.4240150996484
20220.25	0.0999798998236656	261	satiated	stimuli/non_foods\non-food_inanimate_protractor.jpg	1	2	1	non-food_inanimate_protractor	0	S	13	0	201	0		0	0	92.4740245998837	92.5740044997074
20257.75	0.0999387996271253	262	satiated	stimuli/foods\lime.jpg	1	2	1	lime	1	C	1	0	76	0		0	0	92.6240646000952	92.7240033997223
20295.25	0.0999978999607265	263	satiated	stimuli/foods\rice.jpg	1	2	1	rice	1	J	6	0	257	0		0	0	92.7740185000002	92.874016399961
20332.75	0.0999720003455877	264	satiated	stimuli/non_foods\non-food_inanimate_gloves.jpg	1	2	1	non-food_inanimate_gloves	0	D	2	0	183	0		0	0	92.9240210996941	93.0239931000397
20370.25	0.100007799919695	265	satiated	stimuli/foods\egg.jpg	1	2	1	egg	1	H	5	0	45	0		0	0	93.0739919999614	93.1739997998811
20407.75	0.0999855999834836	266	satiated	stimuli/foods\meatballs.jpg	1	2	1	meatballs	1	G	4	0	81	0		0	0	93.2240110998973	93.3239966998808
20445.25	0.0999845997430384	267	satiated	stimuli/foods\lasagna.jpg	1	2	1	lasagna	1	D	2	0	71	0		0	0	93.374007999897	93.47399259964
20482.75	0.0999880000017583	268	satiated	stimuli/non_foods\non-food_inanimate_nest.jpg	1	2	1	non-food_inanimate_nest	0	X	17	0	196	0		0	0	93.5240058996715	93.6239938996732
20520.25	0.0999825000762939	269	satiated	stimuli/non_foods\non-food_inanimate_highlighter.jpg	1	2	1	non-food_inanimate_highlighter	0	B	0	0	189	0		0	0	93.6740087997168	93.7739912997931
20557.75	0.0999592002481222	270	satiated	stimuli/foods\risotto_with_peas_and_asparagus_tips.jpg	1	2	1	risotto_with_peas_and_asparagus_tips	1	D	2	0	259	0		0	0	93.8240032996982	93.9239624999464
20595.25	0.0999845997430384	271	satiated	stimuli/foods\cereal.jpg	1	2	1	cereal	1	B	0	0	22	0		0	0	93.9740021000616	94.0739866998047
20632.75	0.0999803002923727	272	satiated	stimuli/foods\nectarine.jpg	1	2	1	nectarine	1	T	14	0	87	0		0	0	94.1240022997372	94.2239826000296
20670.25	0.100015100091696	273	satiated	stimuli/non_foods\non-food_animate_german_shepherd.jpg	1	2	1	non-food_animate_german_shepherd	0	P	11	0	114	0		0	0	94.2739945999347	94.3740097000264
20707.75	0.0999440001323819	274	satiated	stimuli/foods\mushroom.jpg	1	2	1	mushroom	1	D	2	0	85	0		0	0	94.4240410998464	94.5239850999787
20745.25	0.0999812004156411	275	satiated	stimuli/foods\dates.jpg	1	2	1	dates	1	R	12	0	43	0		0	0	94.5739968996495	94.6739781000651
20782.75	0.0999863999895751	276	satiated	stimuli/foods\lemon_meringue_pie.jpg	1	2	1	lemon_meringue_pie	1	G	4	0	73	0		0	0	94.7239920999855	94.8239784999751
20820.25	0.0999851003289223	277	satiated	stimuli/foods\oregano.jpg	1	2	1	oregano	1	K	7	0	231	0		0	0	94.8739914996549	94.9739765999839
20857.75	0.0999865001067519	278	satiated	stimuli/foods\mussels.jpg	1	2	1	mussels	1	N	10	0	86	0		0	0	95.0239888997748	95.1239753998816
20895.25	0.100025500170887	279	satiated	stimuli/foods\pickles.jpg	1	2	1	pickles	1	M	9	0	242	0		0	0	95.1739865997806	95.2740120999515
21395.25	0.0999799999408424	280	satiated	stimuli/foods\celery.jpg	1	3	1	celery	1	M	9	0	21	0		0	0	97.1739655998535	97.2739455997944
21432.75	0.0999841000884771	281	satiated	stimuli/non_foods\non-food_animate_gorilla.jpg	1	3	1	non-food_animate_gorilla	0	H	5	0	116	0		0	0	97.3239625999704	97.4239467000589
21470.25	0.0999852996319532	282	satiated	stimuli/foods\dates.jpg	1	3	1	dates	1	M	9	0	43	0		0	0	97.4739588000812	97.5739440997131
21507.75	0.0999811999499798	283	satiated	stimuli/foods\swordfish.jpg	1	3	1	swordfish	1	J	6	0	273	0		0	0	97.6239563999698	97.7239375999197
21545.25	0.0999851003289223	284	satiated	stimuli/non_foods\non-food_animate_ant.jpg	1	3	1	non-food_animate_ant	0	H	5	0	91	0		0	0	97.7739542997442	97.8739394000731
21582.75	0.0999914999119937	285	satiated	stimuli/non_foods\non-food_inanimate_shell.jpg	1	3	1	non-food_inanimate_shell	0	C	1	0	206	0		0	0	97.9239439000376	98.0239353999496
21620.25	0.0999797000549734	286	satiated	stimuli/non_foods\non-food_inanimate_buds.jpg	1	3	1	non-food_inanimate_buds	0	V	15	0	166	0		0	0	98.073982199654	98.173961899709
21657.75	0.0999880000017583	287	satiated	stimuli/foods\fruit_pie.jpg	1	3	1	fruit_pie	1	R	12	0	54	0		0	0	98.2239451999776	98.3239331999794
21695.25	0.0999882998876274	288	satiated	stimuli/non_foods\non-food_animate_bee.jpg	1	3	1	non-food_animate_bee	0	W	16	0	95	0		0	0	98.3739453000017	98.4739335998893
21732.75	0.0999843999743462	289	satiated	stimuli/foods\artichoke.jpg	1	3	1	artichoke	1	J	6	0	3	0		0	0	98.5239454996772	98.6239298996516
21770.25	0.100004799664021	290	satiated	stimuli/non_foods\non-food_inanimate_nest.jpg	1	3	1	non-food_inanimate_nest	0	S	13	0	196	0		0	0	98.6739227999933	98.7739275996573
21807.75	0.100003800354898	291	satiated	stimuli/foods\watermelon.jpg	1	3	1	watermelon	1	W	16	0	279	0		0	0	98.8239118997008	98.9239157000557
21845.25	0.0999814998358488	292	satiated	stimuli/foods\chocolate_pralines.jpg	1	3	1	chocolate_pralines	1	M	9	0	28	0		0	0	98.9739397000521	99.073921199888
21882.75	0.0999863999895751	293	satiated	stimuli/foods\hamburger.jpg	1	3	1	hamburger	1	B	0	0	64	0		0	0	99.1239348999225	99.223921299912
21920.25	0.0999854002147913	294	satiated	stimuli/foods\salmon.jpg	1	3	1	salmon	1	R	12	0	264	0		0	0	99.2739351997152	99.37392059993
21957.75	0.0999969998374581	295	satiated	stimuli/non_foods\non-food_inanimate_tent.jpg	1	3	1	non-food_inanimate_tent	0	G	4	0	219	0		0	0	99.4239221001044	99.5239190999418
21995.25	0.0999729000031948	296	satiated	stimuli/foods\cooked_ham.jpg	1	3	1	cooked_ham	1	N	10	0	35	0		0	0	99.57393449964	99.6739073996432
22032.75	0.0999691002070904	297	satiated	stimuli/foods\avocado.jpg	1	3	1	avocado	1	G	4	0	5	0		0	0	99.7239271998405	99.8238963000476
22070.25	0.100022200029343	298	satiated	stimuli/non_foods\non-food_animate_seahorse.jpg	1	3	1	non-food_animate_seahorse	0	C	1	0	145	0		0	0	99.8739045998082	99.9739267998375
22107.75	0.0999777000397444	299	satiated	stimuli/foods\prawn.jpg	1	3	1	prawn	1	L	8	0	249	0		0	0	100.02393369982	100.12391139986
22145.25	0.0999842002056539	300	satiated	stimuli/foods\eggplant.jpg	1	3	1	eggplant	1	P	11	0	46	0		0	0	100.17392189987	100.273906100076
22182.75	0.100006900262088	301	satiated	stimuli/foods\broccoli.jpg	1	3	1	broccoli	1	D	2	0	13	0		0	0	100.323903999757	100.423910900019
22220.25	0.0999758001416922	302	satiated	stimuli/foods\asparagus.jpg	1	3	1	asparagus	1	C	1	0	4	0		0	0	100.473925299942	100.573901100084
22257.75	0.0999791999347508	303	satiated	stimuli/non_foods\non-food_animate_lion.jpg	1	3	1	non-food_animate_lion	0	K	7	0	125	0		0	0	100.623910999857	100.723890199792
22295.25	0.0999878998845816	304	satiated	stimuli/non_foods\non-food_inanimate_table.jpg	1	3	1	non-food_inanimate_table	0	X	17	0	217	0		0	0	100.773917099927	100.873904999811
22332.75	0.0999988000839949	305	satiated	stimuli/foods\cupcake.jpg	1	3	1	cupcake	1	E	20	1	42	0		0	0	100.92391669983	101.023915499914
22370.25	0.0999843999743462	306	satiated	stimuli/non_foods\non-food_inanimate_button.jpg	1	3	1	non-food_inanimate_button	0	N	10	0	168	0		0	0	101.073910200037	101.173894600011
22407.75	0.100032300222665	307	satiated	stimuli/non_foods\non-food_animate_mouse.jpg	1	3	1	non-food_animate_mouse	0	W	16	0	131	0		0	0	101.22387469979	101.323907000013
22445.25	0.0999917997978628	308	satiated	stimuli/non_foods\non-food_animate_green_bug.jpg	1	3	1	non-food_animate_green_bug	0	H	5	0	118	1	a	0.454591500107199	1	101.373894299846	101.473886099644
22482.75	0.100007700268179	309	satiated	stimuli/foods\oyster.jpg	1	3	1	oyster	1	L	8	0	233	0		0	0	101.523908599745	101.623916300014
22520.25	0.0999936000443995	310	satiated	stimuli/foods\lemon.jpg	1	3	1	lemon	1	M	9	0	72	0		0	0	101.673897099681	101.773890699726
22557.75	0.0999857997521758	311	satiated	stimuli/non_foods\non-food_inanimate_bamboo.jpg	1	3	1	non-food_inanimate_bamboo	0	K	7	0	159	0		0	0	101.82390190009	101.923887699842
22595.25	0.0999874002300203	312	satiated	stimuli/non_foods\non-food_animate_frog.jpg	1	3	1	non-food_animate_frog	0	T	14	0	113	0		0	0	101.973901599646	102.073888999876
22632.75	0.0999695002101362	313	satiated	stimuli/non_foods\non-food_animate_owl.jpg	1	3	1	non-food_animate_owl	0	L	8	0	132	0		0	0	102.123897499871	102.223867000081
22670.25	0.0999827003106475	314	satiated	stimuli/foods\risotto_with_peas_and_asparagus_tips.jpg	1	3	1	risotto_with_peas_and_asparagus_tips	1	N	10	0	259	0		0	0	102.273899499793	102.373882200103
22707.75	0.0999695998616517	315	satiated	stimuli/foods\mushroom.jpg	1	3	1	mushroom	1	J	6	0	85	0		0	0	102.423896399792	102.523865999654
22745.25	0.0999795999377966	316	satiated	stimuli/non_foods\non-food_animate_woman.jpg	1	3	1	non-food_animate_woman	0	M	9	0	154	0		0	0	102.57389569981	102.673875299748
22782.75	0.100000299979001	317	satiated	stimuli/foods\potatoes.jpg	1	3	1	potatoes	1	X	17	0	248	0		0	0	102.723890999798	102.823891299777
22820.25	0.0999861001037061	318	satiated	stimuli/non_foods\non-food_inanimate_grass.jpg	1	3	1	non-food_inanimate_grass	0	L	8	0	184	0		0	0	102.873890299816	102.973876399919
22857.75	0.099999999627471	319	satiated	stimuli/foods\cauliflower.jpg	1	3	1	cauliflower	1	T	14	0	20	0		0	0	103.023861600086	103.123861599714
22895.25	0.0999846998602152	320	satiated	stimuli/foods\linguine_with_clams.jpg	1	3	1	linguine_with_clams	1	L	8	0	77	0		0	0	103.173889100086	103.273873799946
22932.75	0.0999882002361119	321	satiated	stimuli/foods\cooked_prawn.jpg	1	3	1	cooked_prawn	1	P	11	0	36	0		0	0	103.323881799821	103.423870000057
22970.25	0.100006000138819	322	satiated	stimuli/non_foods\non-food_inanimate_guitar.jpg	1	3	1	non-food_inanimate_guitar	0	L	8	0	185	0		0	0	103.473899699748	103.573905699886
23007.75	0.0999837000854313	323	satiated	stimuli/non_foods\non-food_animate_snail.jpg	1	3	1	non-food_animate_snail	0	H	5	0	149	0		0	0	103.623880899977	103.723864600062
23045.25	0.099981099832803	324	satiated	stimuli/non_foods\non-food_inanimate_stoplight.jpg	1	3	1	non-food_inanimate_stoplight	0	X	17	0	214	0		0	0	103.773879299872	103.873860399704
23082.75	0.0999846002086997	325	satiated	stimuli/non_foods\non-food_inanimate_bowling_ball.jpg	1	3	1	non-food_inanimate_bowling_ball	0	C	1	0	162	0		0	0	103.923877199646	104.023861799855
23120.25	0.0999858002178371	326	satiated	stimuli/non_foods\non-food_animate_Causasian_man.jpg	1	3	1	non-food_animate_Causasian_man	0	V	15	0	89	0		0	0	104.073872999754	104.173858799972
23157.75	0.0999842002056539	327	satiated	stimuli/foods\radish.jpg	1	3	1	radish	1	N	10	0	251	0		0	0	104.22387119988	104.323855400085
23195.25	0.0999874002300203	328	satiated	stimuli/non_foods\non-food_inanimate_speakers.jpg	1	3	1	non-food_inanimate_speakers	0	J	6	0	212	0		0	0	104.373869099654	104.473856499884
23232.75	0.0999865001067519	329	satiated	stimuli/foods\carrot.jpg	1	3	1	carrot	1	M	9	0	19	0		0	0	104.523868399672	104.623854899779
23270.25	0.100003500003368	330	satiated	stimuli/non_foods\non-food_animate_student_female.jpg	1	3	1	non-food_animate_student_female	0	S	13	0	151	0		0	0	104.673859300092	104.773862800095
23307.75	0.0999865001067519	331	satiated	stimuli/non_foods\non-food_animate_porcupine.jpg	1	3	1	non-food_animate_porcupine	0	Z	18	0	138	0		0	0	104.823862999678	104.923849499784
23345.25	0.0999832996167243	332	satiated	stimuli/non_foods\non-food_inanimate_nailpolish.jpg	1	3	1	non-food_inanimate_nailpolish	0	J	6	0	195	0		0	0	104.973864200059	105.073847499676
23382.75	0.100023000035435	333	satiated	stimuli/non_foods\non-food_inanimate_wrench.jpg	1	3	1	non-food_inanimate_wrench	0	M	9	0	227	0		0	0	105.123842800036	105.223865800072
23420.25	0.099977099802345	334	satiated	stimuli/non_foods\non-food_animate_peacock.jpg	1	3	1	non-food_animate_peacock	0	C	1	0	134	0		0	0	105.273886499926	105.373863599729
23457.75	0.0999781996943057	335	satiated	stimuli/foods\mandarin.jpg	1	3	1	mandarin	1	T	14	0	79	0		0	0	105.42386119999	105.523839399684
23495.25	0.0999849000945687	336	satiated	stimuli/foods\fennel.jpg	1	3	1	fennel	1	U	23	1	47	0		0	0	105.573849499691	105.673834399786
23532.75	0.0999780003912747	337	satiated	stimuli/non_foods\non-food_inanimate_bush.jpg	1	3	1	non-food_inanimate_bush	0	T	14	0	167	0		0	0	105.723848799709	105.823826800101
23570.25	0.0999755002558231	338	satiated	stimuli/non_foods\non-food_animate_kangaroo.jpg	1	3	1	non-food_animate_kangaroo	0	L	8	0	122	0		0	0	105.873842199799	105.973817700054
23607.75	0.10000290023163	339	satiated	stimuli/non_foods\non-food_animate_cat.jpg	1	3	1	non-food_animate_cat	0	X	17	0	98	0		0	0	106.023830399849	106.12383330008
23645.25	0.099978799931705	340	satiated	stimuli/non_foods\non-food_animate_caterpillar.jpg	1	3	1	non-food_animate_caterpillar	0	Z	18	0	99	1	a	0.691818900406361	1	106.173844499979	106.273823299911
23682.75	0.0999834001995623	341	satiated	stimuli/non_foods\non-food_inanimate_moss.jpg	1	3	1	non-food_inanimate_moss	0	J	6	0	194	0		0	0	106.323847499676	106.423830899876
23720.25	0.0999855999834836	342	satiated	stimuli/non_foods\non-food_animate_lizard.jpg	1	3	1	non-food_animate_lizard	0	T	14	0	126	0		0	0	106.473844300024	106.573829900008
23757.75	0.0999974999576807	343	satiated	stimuli/non_foods\non-food_animate_duck.jpg	1	3	1	non-food_animate_duck	0	K	7	0	109	0		0	0	106.62382930005	106.723826800007
23795.25	0.0999934999272227	344	satiated	stimuli/foods\hazelnuts.jpg	1	3	1	hazelnuts	1	S	13	0	65	0		0	0	106.773831699975	106.873825199902
23832.75	0.0999893001280725	345	satiated	stimuli/foods\apple.jpg	1	3	1	apple	1	X	17	0	1	0		0	0	106.923835199792	107.02382449992
23870.25	0.099944899789989	346	satiated	stimuli/non_foods\non-food_inanimate_fern.jpg	1	3	1	non-food_inanimate_fern	0	N	10	0	180	0		0	0	107.073875899892	107.173820799682
23907.75	0.099983099848032	347	satiated	stimuli/non_foods\non-food_animate_ram.jpg	1	3	1	non-food_animate_ram	0	W	16	0	140	0		0	0	107.223836800084	107.323819899932
23945.25	0.0999821997247636	348	satiated	stimuli/foods\rice.jpg	1	3	1	rice	1	C	1	0	257	0		0	0	107.373835199978	107.473817399703
23982.75	0.099985699634999	349	satiated	stimuli/foods\honey.jpg	1	3	1	honey	1	Z	18	0	66	0		0	0	107.523831400089	107.623817099724
24020.25	0.0999846002086997	350	satiated	stimuli/foods\nectarine.jpg	1	3	1	nectarine	1	K	7	0	87	0		0	0	107.673829699866	107.773814300075
24057.75	0.0999824996106327	351	satiated	stimuli/foods\hotdog.jpg	1	3	1	hotdog	1	T	14	0	67	0		0	0	107.823827200104	107.923809699714
24095.25	0.0999869997613132	352	satiated	stimuli/non_foods\non-food_inanimate_pine_cone.jpg	1	3	1	non-food_inanimate_pine_cone	0	F	3	0	200	0		0	0	107.973824399989	108.07381139975
24132.75	0.0999615001492202	353	satiated	stimuli/foods\pea_pod.jpg	1	3	1	pea_pod	1	X	17	0	237	0		0	0	108.123843799811	108.22380529996
24170.25	0.099987399764359	354	satiated	stimuli/non_foods\non-food_inanimate_scissors.jpg	1	3	1	non-food_inanimate_scissors	0	D	2	0	205	0		0	0	108.273830499966	108.37381789973
24207.75	0.09999810019508	355	satiated	stimuli/foods\grilled_chicken_breast.jpg	1	3	1	grilled_chicken_breast	1	W	16	0	63	0		0	0	108.423806599807	108.523804700002
24245.25	0.0999849997460842	356	satiated	stimuli/non_foods\non-food_animate_fox.jpg	1	3	1	non-food_animate_fox	0	D	2	0	112	0		0	0	108.573808799963	108.67379379971
24282.75	0.100001699756831	357	satiated	stimuli/foods\gnocchi.jpg	1	3	1	gnocchi	1	J	6	0	58	0		0	0	108.723818500061	108.823820199817
24320.25	0.0999516001902521	358	satiated	stimuli/non_foods\non-food_animate_llama.jpg	1	3	1	non-food_animate_llama	0	K	7	0	127	0		0	0	108.873838899657	108.973790499847
24357.75	0.0999741000123322	359	satiated	stimuli/non_foods\non-food_inanimate_padlock.jpg	1	3	1	non-food_inanimate_padlock	0	B	0	0	199	0		0	0	109.023803899996	109.123778000008
24395.25	0.10000290023163	360	satiated	stimuli/non_foods\non-food_inanimate_skirt.jpg	1	3	1	non-food_inanimate_skirt	0	X	17	0	209	0		0	0	109.173791399691	109.273794299923
24432.75	0.0999863003380597	361	satiated	stimuli/foods\orange.jpg	1	3	1	orange	1	M	9	0	230	0		0	0	109.323805799708	109.423792100046
24470.25	0.0999862998723984	362	satiated	stimuli/foods\lime.jpg	1	3	1	lime	1	L	8	0	76	0		0	0	109.473807199858	109.573793499731
24507.75	0.0999874998815358	363	satiated	stimuli/foods\kiwi.jpg	1	3	1	kiwi	1	P	11	0	69	0		0	0	109.62380169984	109.723789199721
24545.25	0.0999925001524389	364	satiated	stimuli/non_foods\non-food_animate_yellow_bug.jpg	1	3	1	non-food_animate_yellow_bug	0	Z	18	0	155	0		0	0	109.773797499947	109.8737900001
24582.75	0.0999687002040446	365	satiated	stimuli/non_foods\non-food_inanimate_chandelier.jpg	1	3	1	non-food_inanimate_chandelier	0	D	2	0	173	0		0	0	109.923816499766	110.02378519997
24620.25	0.0999842002056539	366	satiated	stimuli/foods\raw_ham.jpg	1	3	1	raw_ham	1	B	0	0	253	0		0	0	110.073797199875	110.173781400081
24657.75	0.0999719998799264	367	satiated	stimuli/non_foods\non-food_animate_butterfly.jpg	1	3	1	non-food_animate_butterfly	0	K	7	0	96	0		0	0	110.223799999803	110.323771999683
24695.25	0.0999854998663068	368	satiated	stimuli/foods\pomegranate.jpg	1	3	1	pomegranate	1	L	8	0	244	0		0	0	110.373786599841	110.473772099707
24732.75	0.100003100000322	369	satiated	stimuli/foods\cucumber.jpg	1	3	1	cucumber	1	C	1	0	41	0		0	0	110.523792099673	110.623795199674
24770.25	0.0999789000488818	370	satiated	stimuli/non_foods\non-food_animate_raccoon.jpg	1	3	1	non-food_animate_raccoon	0	W	16	0	139	0		0	0	110.673788999673	110.773767899722
24807.75	0.10000819992274	371	satiated	stimuli/foods\minestrone_soup.jpg	1	3	1	minestrone_soup	1	F	3	0	82	0		0	0	110.823763299733	110.923771499656
24845.25	0.099981399718672	372	satiated	stimuli/foods\strawberry.jpg	1	3	1	strawberry	1	P	11	0	272	0		0	0	110.973785900045	111.073767299764
24882.75	0.0999922999180853	373	satiated	stimuli/foods\mussels.jpg	1	3	1	mussels	1	N	10	0	86	0		0	0	111.123784400057	111.223776699975
24920.25	0.0999885001219809	374	satiated	stimuli/non_foods\non-food_animate_dolphin.jpg	1	3	1	non-food_animate_dolphin	0	X	17	0	106	0		0	0	111.273776999675	111.373765499797
24957.75	0.0999863999895751	375	satiated	stimuli/non_foods\non-food_animate_grasshopper.jpg	1	3	1	non-food_animate_grasshopper	0	P	11	0	117	0		0	0	111.423781800084	111.523768200073
24995.25	0.0999833000823855	376	satiated	stimuli/foods\fruit_salad.jpg	1	3	1	fruit_salad	1	L	8	0	55	0		0	0	111.573780999985	111.673764300067
25032.75	0.0999882998876274	377	satiated	stimuli/non_foods\non-food_inanimate_cactus_pot_plant.jpg	1	3	1	non-food_inanimate_cactus_pot_plant	0	V	15	0	169	0		0	0	111.723776299972	111.82376459986
25070.25	0.0999815999530256	378	satiated	stimuli/foods\brie.jpg	1	3	1	brie	1	G	4	0	12	0		0	0	111.873776799999	111.973758399952
25107.75	0.100008500274271	379	satiated	stimuli/foods\roasted_chicken.jpg	1	3	1	roasted_chicken	1	P	11	0	261	0		0	0	112.023773099761	112.123781600036
25145.25	0.0999830001965165	380	satiated	stimuli/non_foods\non-food_animate_cheetah.jpg	1	3	1	non-food_animate_cheetah	0	G	4	0	100	0		0	0	112.1737728999	112.273755900096
25182.75	0.100002599880099	381	satiated	stimuli/non_foods\non-food_animate_monkey.jpg	1	3	1	non-food_animate_monkey	0	L	8	0	130	0		0	0	112.323781399988	112.423783999868
25220.25	0.0999875999987125	382	satiated	stimuli/foods\cream_donuts.jpg	1	3	1	cream_donuts	1	S	13	0	39	0		0	0	112.473767600022	112.573755200021
25257.75	0.0999814998358488	383	satiated	stimuli/non_foods\non-food_animate_slug.jpg	1	3	1	non-food_animate_slug	0	D	2	0	148	0		0	0	112.623768399935	112.723749899771
25295.25	0.0999839999713004	384	satiated	stimuli/non_foods\non-food_inanimate_bed.jpg	1	3	1	non-food_inanimate_bed	0	F	3	0	160	0		0	0	112.773762799799	112.873746799771
25332.75	0.0999850002117455	385	satiated	stimuli/non_foods\non-food_inanimate_ring.jpg	1	3	1	non-food_inanimate_ring	0	V	15	0	203	0		0	0	112.923764399718	113.02374939993
25370.25	0.0999826001934707	386	satiated	stimuli/non_foods\non-food_animate_polar_bear.jpg	1	3	1	non-food_animate_polar_bear	0	P	11	0	137	0		0	0	113.073759699706	113.173742299899
25407.75	0.0999869001097977	387	satiated	stimuli/foods\wafer.jpg	1	3	1	wafer	1	R	12	0	277	0		0	0	113.22375679994	113.32374370005
25445.25	0.0999818998388946	388	satiated	stimuli/non_foods\non-food_animate_penguin.jpg	1	3	1	non-food_animate_penguin	0	K	7	0	135	0		0	0	113.373757299967	113.473739199806
25482.75	0.099987399764359	389	satiated	stimuli/foods\chestnut.jpg	1	3	1	chestnut	1	H	5	0	24	0		0	0	113.523752599955	113.623739999719
25520.25	0.0999702997505665	390	satiated	stimuli/foods\taco.jpg	1	3	1	taco	1	L	8	0	274	0		0	0	113.673757399898	113.773727699649
25557.75	0.0999851999804378	391	satiated	stimuli/foods\red_beans.jpg	1	3	1	red_beans	1	S	13	0	255	0		0	0	113.823748199735	113.923733399715
25595.25	0.0999946002848446	392	satiated	stimuli/foods\steak.jpg	1	3	1	steak	1	Z	18	0	270	0		0	0	113.973745899741	114.073740500025
25632.75	0.1000195001252	393	satiated	stimuli/non_foods\non-food_animate_runner.jpg	1	3	1	non-food_animate_runner	0	B	0	0	142	0		0	0	114.123750899918	114.223770400044
25670.25	0.0999900996685028	394	satiated	stimuli/non_foods\non-food_animate_camel.jpg	1	3	1	non-food_animate_camel	0	L	8	0	97	0		0	0	114.273739499971	114.37372959964
25707.75	0.099977099802345	395	satiated	stimuli/foods\baked_lamb_with_potatoes.jpg	1	3	1	baked_lamb_with_potatoes	1	R	12	0	8	0		0	0	114.42374629993	114.523723399732
25745.25	0.0999818998388946	396	satiated	stimuli/foods\capsicum.jpg	1	3	1	capsicum	1	J	6	0	18	0		0	0	114.5737414998	114.673723399639
25782.75	0.0999826998449862	397	satiated	stimuli/non_foods\non-food_inanimate_horn.jpg	1	3	1	non-food_inanimate_horn	0	T	14	0	190	0		0	0	114.723740899935	114.82372359978
25820.25	0.0999850002117455	398	satiated	stimuli/non_foods\non-food_inanimate_waterlily.jpg	1	3	1	non-food_inanimate_waterlily	0	V	15	0	226	0		0	0	114.873738099821	114.973723100033
25857.75	0.0999512001872063	399	satiated	stimuli/non_foods\non-food_inanimate_highlighter.jpg	1	3	1	non-food_inanimate_highlighter	0	Z	18	0	189	0		0	0	115.02373569971	115.123686899897
25895.25	0.100006599910557	400	satiated	stimuli/non_foods\non-food_animate_cow.jpg	1	3	1	non-food_animate_cow	0	R	12	0	103	0		0	0	115.173733700067	115.273740299977
25932.75	0.0999606000259519	401	satiated	stimuli/foods\pork_and_rice.jpg	1	3	1	pork_and_rice	1	F	3	0	245	0		0	0	115.323753099889	115.423713699915
25970.25	0.0999740003608167	402	satiated	stimuli/non_foods\non-food_inanimate_protractor.jpg	1	3	1	non-food_inanimate_protractor	0	H	5	0	201	0		0	0	115.473727599718	115.573701600078
26007.5	0.0999851999804378	403	satiated	stimuli/foods\pear.jpg	1	3	1	pear	1	R	12	0	239	0		0	0	115.623710999731	115.723696199711
26045.25	0.0999833000823855	404	satiated	stimuli/foods\potato_and_green_bean_salad.jpg	1	3	1	potato_and_green_bean_salad	1	K	7	0	246	0		0	0	115.773728800006	115.873712100089
26082.75	0.100004700012505	405	satiated	stimuli/foods\rice_cake.jpg	1	3	1	rice_cake	1	G	4	0	258	0		0	0	115.923722799867	116.02372749988
26120.25	0.0999609003774822	406	satiated	stimuli/foods\cannoli.jpg	1	3	1	cannoli	1	K	7	0	17	0		0	0	116.073743399698	116.173704300076
26157.5	0.0999977001920342	407	satiated	stimuli/foods\risotto_with_zucchini.jpg	1	3	1	risotto_with_zucchini	1	S	13	0	260	0		0	0	116.223693799693	116.323691499885
26195	0.0999775999225676	408	satiated	stimuli/foods\lettuce.jpg	1	3	1	lettuce	1	H	5	0	75	0		0	0	116.373697199859	116.473674799781
26232.5	0.0999957001768053	409	satiated	stimuli/non_foods\non-food_animate_mammoth.jpg	1	3	1	non-food_animate_mammoth	0	J	6	0	128	0		0	0	116.52370559983	116.623701300006
26270.25	0.0999864996410906	410	satiated	stimuli/non_foods\non-food_animate_squirrel.jpg	1	3	1	non-food_animate_squirrel	0	R	12	0	150	0		0	0	116.673713400029	116.77369989967
26307.5	0.0999738997779787	411	satiated	stimuli/foods\toasted_bread_with_tomatoes.jpg	1	3	1	toasted_bread_with_tomatoes	1	Z	18	0	275	0		0	0	116.82369520003	116.923669099808
26345	0.100002000108361	412	satiated	stimuli/non_foods\non-food_animate_giraffe.jpg	1	3	1	non-food_animate_giraffe	0	K	7	0	115	0		0	0	116.973710699938	117.073712700047
26382.5	0.100018199998885	413	satiated	stimuli/foods\ginger_root.jpg	1	3	1	ginger_root	1	Z	18	0	57	0		0	0	117.123709599953	117.223727799952
26420.25	0.0999866998754442	414	satiated	stimuli/foods\pepperoni_pizza.jpg	1	3	1	pepperoni_pizza	1	F	3	0	241	0		0	0	117.273703999817	117.373690699693
26457.5	0.0999948997050524	415	satiated	stimuli/foods\mango.jpg	1	3	1	mango	1	H	5	0	80	0		0	0	117.423688400071	117.523683299776
26495	0.0999954999424517	416	satiated	stimuli/foods\oven-roasted_tomatoes.jpg	1	3	1	oven-roasted_tomatoes	1	W	16	0	232	0		0	0	117.573697799817	117.673693299759
26532.5	0.0999658997170627	417	satiated	stimuli/non_foods\non-food_animate_young_boy.jpg	1	3	1	non-food_animate_young_boy	0	L	8	0	156	0		0	0	117.72371229995	117.823678199667
26570	0.099983399733901	418	satiated	stimuli/non_foods\non-food_inanimate_couch.jpg	1	3	1	non-food_inanimate_couch	0	W	16	0	176	0		0	0	117.873696099967	117.973679499701
26607.5	0.099982799962163	419	satiated	stimuli/non_foods\non-food_animate_eagle.jpg	1	3	1	non-food_animate_eagle	0	F	3	0	110	0		0	0	118.023691100068	118.123673900031
27420.25	0.0999694000929594	420	satiated	stimuli/foods\papaya.jpg	1	4	1	papaya	1	W	16	0	235	1	a	0	0	121.273680899758	121.373650299851
27457.5	0.0999854002147913	421	satiated	stimuli/non_foods\non-food_animate_baby_crawling.jpg	1	4	1	non-food_animate_baby_crawling	0	M	9	0	92	0		0	0	121.423655599821	121.523641000036
27495	0.099983099848032	422	satiated	stimuli/foods\coffee_beans.jpg	1	4	1	coffee_beans	1	C	1	0	34	0		0	0	121.573657500092	121.67364059994
27532.5	0.0999733996577561	423	satiated	stimuli/non_foods\non-food_inanimate_socks.jpg	1	4	1	non-food_inanimate_socks	0	K	7	0	211	0		0	0	121.723654800095	121.823628199752
27570	0.0999628002755344	424	satiated	stimuli/non_foods\non-food_inanimate_suitcase.jpg	1	4	1	non-food_inanimate_suitcase	0	J	6	0	215	0		0	0	121.873643399682	121.973606199957
27607.5	0.0999904996715486	425	satiated	stimuli/non_foods\non-food_inanimate_cap.jpg	1	4	1	non-food_inanimate_cap	0	K	7	0	171	0		0	0	122.023643000051	122.123633499723
27645	0.0999813000671566	426	satiated	stimuli/foods\donut.jpg	1	4	1	donut	1	M	9	0	44	0		0	0	122.173647899646	122.273629199713
27682.5	0.0999897997826338	427	satiated	stimuli/non_foods\non-food_animate_pigeon.jpg	1	4	1	non-food_animate_pigeon	0	C	1	0	136	0		0	0	122.323630699888	122.423620499671
27720	0.0999880996532738	428	satiated	stimuli/foods\chilli.jpg	1	4	1	chilli	1	D	2	0	25	0		0	0	122.473632900044	122.573620999698
27757.5	0.099983099848032	429	satiated	stimuli/non_foods\non-food_inanimate_toy_airplane.jpg	1	4	1	non-food_inanimate_toy_airplane	0	J	6	0	222	0		0	0	122.623629699927	122.723612799775
27795	0.0999797000549734	430	satiated	stimuli/non_foods\non-food_animate_young_girl.jpg	1	4	1	non-food_animate_young_girl	0	R	12	0	157	0		0	0	122.77363049984	122.873610199895
27832.5	0.0999900000169873	431	satiated	stimuli/foods\rockmelon.jpg	1	4	1	rockmelon	1	P	11	0	262	0		0	0	122.92360999994	123.023599999957
27870	0.099963300395757	432	satiated	stimuli/non_foods\non-food_inanimate_watering_can.jpg	1	4	1	non-food_inanimate_watering_can	0	C	1	0	225	0		0	0	123.073645199649	123.173608500045
27907.75	0.0999448001384735	433	satiated	stimuli/non_foods\non-food_inanimate_skateboard.jpg	1	4	1	non-food_inanimate_skateboard	0	X	17	0	208	0		0	0	123.223673699889	123.323618500028
27945	0.0999698997475207	434	satiated	stimuli/non_foods\non-food_inanimate_orchid.jpg	1	4	1	non-food_inanimate_orchid	0	D	2	0	198	0		0	0	123.373630499933	123.47360039968
27982.5	0.100013100076467	435	satiated	stimuli/foods\cracker.jpg	1	4	1	cracker	1	W	16	0	38	0		0	0	123.523600599729	123.623613699805
28020	0.0999799002893269	436	satiated	stimuli/foods\grapefruits.jpg	1	4	1	grapefruits	1	T	14	0	59	0		0	0	123.673628899734	123.773608800024
28057.5	0.0999960000626743	437	satiated	stimuli/foods\lollies.jpg	1	4	1	lollies	1	Z	18	0	78	0		0	0	123.823624299839	123.923620299902
28095	0.099959900137037	438	satiated	stimuli/foods\lamb_chops.jpg	1	4	1	lamb_chops	1	L	8	0	70	0		0	0	123.973636599723	124.07359649986
28132.5	0.0999892000108957	439	satiated	stimuli/non_foods\non-food_inanimate_sun_flower.jpg	1	4	1	non-food_inanimate_sun_flower	0	W	16	0	216	0		0	0	124.123618899845	124.223608099855
28170	0.0999766001477838	440	satiated	stimuli/non_foods\non-food_inanimate_headphones.jpg	1	4	1	non-food_inanimate_headphones	0	L	8	0	188	0		0	0	124.273620999884	124.373597600032
28207.5	0.0999869001097977	441	satiated	stimuli/foods\pineapple.jpg	1	4	1	pineapple	1	Z	18	0	243	0		0	0	124.423606599681	124.523593499791
28245	0.0999851999804378	442	satiated	stimuli/foods\banana.jpg	1	4	1	banana	1	F	3	0	9	0		0	0	124.573608200066	124.673593400046
28282.5	0.100006800144911	443	satiated	stimuli/foods\cereal.jpg	1	4	1	cereal	1	B	0	0	22	0		0	0	124.723618099932	124.823624900077
28320	0.09998539974913	444	satiated	stimuli/foods\clams.jpg	1	4	1	clams	1	T	14	0	32	0		0	0	124.873611900024	124.973597299773
28357.5	0.100015699863434	445	satiated	stimuli/non_foods\non-food_animate_german_shepherd.jpg	1	4	1	non-food_animate_german_shepherd	0	H	5	0	114	0		0	0	125.023579999804	125.123595699668
28395	0.0999882998876274	446	satiated	stimuli/non_foods\non-food_animate_deer.jpg	1	4	1	non-food_animate_deer	0	T	14	0	105	0		0	0	125.17360429978	125.273592599668
28432.5	0.0999968000687659	447	satiated	stimuli/foods\potato_chips.jpg	1	4	1	potato_chips	1	N	10	0	247	0		0	0	125.323586700018	125.423583500087
28470	0.100000000093132	448	satiated	stimuli/foods\spinach.jpg	1	4	1	spinach	1	T	14	0	268	0		0	0	125.473592199851	125.573592199944
28507.5	0.099985099863261	449	satiated	stimuli/foods\green_beans.jpg	1	4	1	green_beans	1	D	2	0	61	0		0	0	125.623601799831	125.723586899694
28545	0.0999854002147913	450	satiated	stimuli/non_foods\non-food_inanimate_teddy_bear.jpg	1	4	1	non-food_inanimate_teddy_bear	0	T	14	0	218	0		0	0	125.773599099834	125.873584500048
28582.5	0.099974799901247	451	satiated	stimuli/foods\almonds.jpg	1	4	1	almonds	1	Z	18	0	0	0		0	0	125.923601499759	126.02357629966
28620	0.0999811999499798	452	satiated	stimuli/foods\lemon_meringue_pie.jpg	1	4	1	lemon_meringue_pie	1	S	13	0	73	0		0	0	126.073597999755	126.173579199705
28657.5	0.0999726001173258	453	satiated	stimuli/foods\museli_bars.jpg	1	4	1	museli_bars	1	Z	18	0	84	0		0	0	126.223592299968	126.323564900085
28695	0.0999842998571694	454	satiated	stimuli/non_foods\non-food_animate_millipede.jpg	1	4	1	non-food_animate_millipede	0	T	14	0	129	0		0	0	126.37359429989	126.473578599747
28732.5	0.0999889001250267	455	satiated	stimuli/foods\cinnamon.jpg	1	4	1	cinnamon	1	R	12	0	30	0		0	0	126.523579999804	126.62356889993
28770	0.0999940000474453	456	satiated	stimuli/non_foods\non-food_inanimate_hammer.jpg	1	4	1	non-food_inanimate_hammer	0	C	1	0	186	0		0	0	126.673580599949	126.773574599996
28807.5	0.0999850002117455	457	satiated	stimuli/foods\salami.jpg	1	4	1	salami	1	N	10	0	263	0		0	0	126.823588399682	126.923573399894
28845	0.0999773996882141	458	satiated	stimuli/non_foods\non-food_inanimate_construction_helment.jpg	1	4	1	non-food_inanimate_construction_helment	0	Z	18	0	175	0		0	0	126.973576399963	127.073553799652
28882.5	0.100004400126636	459	satiated	stimuli/non_foods\non-food_animate_sea_turtle.jpg	1	4	1	non-food_animate_sea_turtle	0	K	7	0	144	0		0	0	127.12356319977	127.223567599896
28920	0.099989399779588	460	satiated	stimuli/foods\garlic.jpg	1	4	1	garlic	1	Z	18	0	56	0		0	0	127.27357900003	127.373568399809
28957.5	0.0999866998754442	461	satiated	stimuli/non_foods\non-food_animate_iguana.jpg	1	4	1	non-food_animate_iguana	0	L	8	0	121	0		0	0	127.423568599857	127.523555299733
28995	0.0999825997278094	462	satiated	stimuli/foods\brownie.jpg	1	4	1	brownie	1	F	3	0	14	0		0	0	127.573574800044	127.673557399772
29032.5	0.100026400294155	463	satiated	stimuli/non_foods\non-food_animate_tortoise.jpg	1	4	1	non-food_animate_tortoise	0	G	4	0	153	0		0	0	127.723568599671	127.823594999965
29070	0.0999855999834836	464	satiated	stimuli/non_foods\non-food_inanimate_clover.jpg	1	4	1	non-food_inanimate_clover	0	Z	18	0	174	0		0	0	127.873576699756	127.97356229974
29107.5	0.0999751999042928	465	satiated	stimuli/non_foods\non-food_inanimate_hay.jpg	1	4	1	non-food_inanimate_hay	0	H	5	0	187	0		0	0	128.023573399987	128.123548599891
29145	0.0999874002300203	466	satiated	stimuli/foods\spaghetti_with_meat_sauce.jpg	1	4	1	spaghetti_with_meat_sauce	1	E	20	1	267	0		0	0	128.17355979979	128.27354720002
29182.5	0.100007600151002	467	satiated	stimuli/non_foods\non-food_inanimate_towel.jpg	1	4	1	non-food_inanimate_towel	0	G	4	0	221	0		0	0	128.323548699729	128.42355629988
29220	0.0999739002436399	468	satiated	stimuli/non_foods\non-food_animate_chicken.jpg	1	4	1	non-food_animate_chicken	0	F	3	0	101	0		0	0	128.473567899782	128.573541800026
29257.5	0.0999981998465955	469	satiated	stimuli/non_foods\non-food_inanimate_gloves.jpg	1	4	1	non-food_inanimate_gloves	0	H	5	0	183	1	a	0.541823500301689	1	128.623560099863	128.723558299709
29295	0.0999984000809491	470	satiated	stimuli/foods\spring_onions.jpg	1	4	1	spring_onions	1	Z	18	0	269	0		0	0	128.773542299867	128.873540699948
29332.5	0.0999873001128435	471	satiated	stimuli/non_foods\non-food_inanimate_lighter.jpg	1	4	1	non-food_inanimate_lighter	0	K	7	0	193	0		0	0	128.923552199733	129.023539499845
29370	0.0999757000245154	472	satiated	stimuli/foods\pancakes.jpg	1	4	1	pancakes	1	S	13	0	234	0		0	0	129.073563700076	129.173539400101
29407.5	0.0999842002056539	473	satiated	stimuli/non_foods\non-food_inanimate_soccer_ball.jpg	1	4	1	non-food_inanimate_soccer_ball	0	P	11	0	210	0		0	0	129.223549199756	129.323533399962
29445	0.0999856004491448	474	satiated	stimuli/non_foods\non-food_animate_rhino.jpg	1	4	1	non-food_animate_rhino	0	F	3	0	141	0		0	0	129.373547999654	129.473533600103
29482.5	0.0999884996563196	475	satiated	stimuli/non_foods\non-food_inanimate_leaf.jpg	1	4	1	non-food_inanimate_leaf	0	L	8	0	192	0		0	0	129.523549200036	129.623537699692
29520	0.0999831999652088	476	satiated	stimuli/foods\corncob.jpg	1	4	1	corncob	1	M	9	0	37	0		0	0	129.673551300075	129.77353450004
29557.5	0.0999846002086997	477	satiated	stimuli/non_foods\non-food_animate_bat.jpg	1	4	1	non-food_animate_bat	0	S	13	0	94	0		0	0	129.823552999645	129.923537599854
29595	0.0999801000580192	478	satiated	stimuli/non_foods\non-food_animate_seal.jpg	1	4	1	non-food_animate_seal	0	D	2	0	146	0		0	0	129.97354839975	130.073528499808
29632.5	0.0999695998616517	479	satiated	stimuli/foods\cherry.jpg	1	4	1	cherry	1	G	4	0	23	0		0	0	130.123543399852	130.223512999713
29670	0.100021500140429	480	satiated	stimuli/non_foods\non-food_inanimate_stapler.jpg	1	4	1	non-food_inanimate_stapler	0	C	1	0	213	0		0	0	130.273518499918	130.373540000059
29707.5	0.0999766001477838	481	satiated	stimuli/foods\waffle.jpg	1	4	1	waffle	1	X	17	0	278	0		0	0	130.423543199897	130.523519800045
29745	0.0999892000108957	482	satiated	stimuli/foods\chocolate_pudding.jpg	1	4	1	chocolate_pudding	1	P	11	0	29	0		0	0	130.573531500064	130.673520700075
29782.5	0.100000500213355	483	satiated	stimuli/non_foods\non-food_animate_dragonfly.jpg	1	4	1	non-food_animate_dragonfly	0	K	7	0	108	0		0	0	130.723519299645	130.823519799858
29820	0.0999854002147913	484	satiated	stimuli/non_foods\non-food_inanimate_bicycle.jpg	1	4	1	non-food_inanimate_bicycle	0	W	16	0	161	0		0	0	130.873535699677	130.973521099892
29857.5	0.0999813000671566	485	satiated	stimuli/non_foods\non-food_inanimate_tulip.jpg	1	4	1	non-food_inanimate_tulip	0	R	12	0	224	0		0	0	131.023538399953	131.123519700021
29895	0.0999774001538754	486	satiated	stimuli/foods\frankfurter_and_provolone_salad.jpg	1	4	1	frankfurter_and_provolone_salad	1	B	0	0	49	0		0	0	131.173533599824	131.273510999978
29932.5	0.0999814998358488	487	satiated	stimuli/non_foods\non-food_animate_skunk.jpg	1	4	1	non-food_animate_skunk	0	J	6	0	147	0		0	0	131.323530999944	131.423512499779
29970	0.0999834001995623	488	satiated	stimuli/foods\red_cabbage.jpg	1	4	1	red_cabbage	1	D	2	0	256	0		0	0	131.473523299675	131.573506699875
30007.5	0.100010199937969	489	satiated	stimuli/non_foods\non-food_animate_clown.jpg	1	4	1	non-food_animate_clown	0	H	5	0	102	0		0	0	131.623516099993	131.723526299931
30045	0.0999578000046313	490	satiated	stimuli/foods\savory_pie.jpg	1	4	1	savory_pie	1	T	14	0	265	0		0	0	131.773529099766	131.873486899771
30082.5	0.0999801000580192	491	satiated	stimuli/non_foods\non-food_animate_parrot.jpg	1	4	1	non-food_animate_parrot	0	J	6	0	133	0		0	0	131.923522999976	132.023503100034
30120	0.0999720999971032	492	satiated	stimuli/non_foods\non-food_inanimate_bucket.jpg	1	4	1	non-food_inanimate_bucket	0	G	4	0	165	0		0	0	132.073514599819	132.173486699816
30157.5	0.100008100271225	493	satiated	stimuli/foods\croissant.jpg	1	4	1	croissant	1	W	16	0	40	0		0	0	132.223497099709	132.32350519998
30195	0.0999827003106475	494	satiated	stimuli/foods\chocolate_chip_cookies.jpg	1	4	1	chocolate_chip_cookies	1	S	13	0	27	0		0	0	132.373517799657	132.473500499967
30232.5	0.09997049998492	495	satiated	stimuli/non_foods\non-food_inanimate_short_sleeved_shirt.jpg	1	4	1	non-food_inanimate_short_sleeved_shirt	0	H	5	0	207	0		0	0	132.523533300031	132.623503800016
30270	0.0999838998541236	496	satiated	stimuli/foods\meatballs.jpg	1	4	1	meatballs	1	G	4	0	81	0		0	0	132.673515699804	132.773499599658
30307.5	0.0999825000762939	497	satiated	stimuli/foods\fruit_flan.jpg	1	4	1	fruit_flan	1	T	14	0	53	0		0	0	132.823516999837	132.923499499913
30345	0.0999868996441364	498	satiated	stimuli/foods\peas.jpg	1	4	1	peas	1	D	2	0	240	0		0	0	132.973510100041	133.073496999685
30382.5	0.0999880000017583	499	satiated	stimuli/non_foods\non-food_animate_killer_whale.jpg	1	4	1	non-food_animate_killer_whale	0	K	7	0	123	0		0	0	133.123506699689	133.22349469969
30420	0.0999853000976145	500	satiated	stimuli/foods\figs.jpg	1	4	1	figs	1	B	0	0	48	0		0	0	133.273507199716	133.373492499813
30457.5	0.0999874002300203	501	satiated	stimuli/non_foods\non-food_animate_alligator.jpg	1	4	1	non-food_animate_alligator	0	K	7	0	90	0		0	0	133.423494199757	133.523481599987
30495	0.0999909001402557	502	satiated	stimuli/foods\pasta_carbonara.jpg	1	4	1	pasta_carbonara	1	B	0	0	236	0		0	0	133.573494599666	133.673485499807
30532.5	0.099995800293982	503	satiated	stimuli/foods\lasagna.jpg	1	4	1	lasagna	1	M	9	0	71	0		0	0	133.723493099678	133.823488899972
30570	0.0999688999727368	504	satiated	stimuli/non_foods\non-food_animate_Asian_man.jpg	1	4	1	non-food_animate_Asian_man	0	G	4	0	88	0		0	0	133.873515599873	133.973484499846
30607.5	0.0999857997521758	505	satiated	stimuli/non_foods\non-food_inanimate_tree.jpg	1	4	1	non-food_inanimate_tree	0	D	2	0	223	0		0	0	134.023496699985	134.123482499737
30645	0.100004300009459	506	satiated	stimuli/non_foods\non-food_animate_horse.jpg	1	4	1	non-food_animate_horse	0	N	10	0	119	0		0	0	134.173467000015	134.273471300025
30682.5	0.0999844996258616	507	satiated	stimuli/foods\ice_cream.jpg	1	4	1	ice_cream	1	S	13	0	68	0		0	0	134.323486600071	134.423471099697
30720	0.0999873001128435	508	satiated	stimuli/foods\chocolate_bar.jpg	1	4	1	chocolate_bar	1	J	6	0	26	0		0	0	134.473483799957	134.57347110007
30757.5	0.0999841000884771	509	satiated	stimuli/foods\pickles.jpg	1	4	1	pickles	1	Z	18	0	242	0		0	0	134.623480899725	134.723464999814
30795	0.099984799977392	510	satiated	stimuli/foods\fried_zucchini.jpg	1	4	1	fried_zucchini	1	G	4	0	51	0		0	0	134.773481300101	134.873466100078
30832.5	0.0999809000641108	511	satiated	stimuli/non_foods\non-food_inanimate_nettle.jpg	1	4	1	non-food_inanimate_nettle	0	W	16	0	197	0		0	0	134.923478899989	135.023459800053
30870	0.0999861001037061	512	satiated	stimuli/non_foods\non-food_inanimate_toilet.jpg	1	4	1	non-food_inanimate_toilet	0	V	15	0	220	0		0	0	135.073476299644	135.173462399747
30907.5	0.0999847003258765	513	satiated	stimuli/foods\egg.jpg	1	4	1	egg	1	R	12	0	45	0		0	0	135.223473599646	135.323458299972
30945	0.0999905997887254	514	satiated	stimuli/foods\blackberry.jpg	1	4	1	blackberry	1	W	16	0	11	0		0	0	135.373473099899	135.473463699687
30982.5	0.0999735002405941	515	satiated	stimuli/non_foods\non-food_inanimate_jeans.jpg	1	4	1	non-food_inanimate_jeans	0	H	5	0	191	0		0	0	135.523489799816	135.623463300057
31020	0.0999839003197849	516	satiated	stimuli/non_foods\non-food_animate_swan.jpg	1	4	1	non-food_animate_swan	0	Z	18	0	152	0		0	0	135.67347669974	135.773460600059
31057.5	0.0999855003319681	517	satiated	stimuli/non_foods\non-food_inanimate_broom.jpg	1	4	1	non-food_inanimate_broom	0	S	13	0	164	0		0	0	135.823477199767	135.923462700099
31095	0.0999810001812875	518	satiated	stimuli/foods\raw_sausage.jpg	1	4	1	raw_sausage	1	H	5	0	254	0		0	0	135.973457699642	136.073438699823
31132.5	0.0999853000976145	519	satiated	stimuli/non_foods\non-food_animate_dachshund.jpg	1	4	1	non-food_animate_dachshund	0	I	21	1	104	0		0	0	136.123472199775	136.223457499873
31170	0.0999837997369468	520	satiated	stimuli/foods\baked_cod_with_carrots_and_green_beans.jpg	1	4	1	baked_cod_with_carrots_and_green_beans	1	F	3	0	7	0		0	0	136.273469700012	136.373453499749
31207.5	0.0999958999454975	521	satiated	stimuli/non_foods\non-food_animate_donkey.jpg	1	4	1	non-food_animate_donkey	0	G	4	0	107	1	a	0.39184179995209	1	136.423460899852	136.523456799798
31245	0.09998709987849	522	satiated	stimuli/foods\raisins.jpg	1	4	1	raisins	1	L	8	0	252	0		0	0	136.573466999922	136.6734540998
31282.5	0.0999862998723984	523	satiated	stimuli/foods\peach.jpg	1	4	1	peach	1	P	11	0	238	0		0	0	136.723465200048	136.82345149992
31320	0.0999756003729999	524	satiated	stimuli/foods\pumpkin.jpg	1	4	1	pumpkin	1	D	2	0	250	0		0	0	136.873462599702	136.973438200075
31357.5	0.0999763002619147	525	satiated	stimuli/foods\cinnamon_sroll.jpg	1	4	1	cinnamon_sroll	1	N	10	0	31	0		0	0	137.023453099653	137.123429399915
31395	0.099981099832803	526	satiated	stimuli/non_foods\non-food_inanimate_briefcase.jpg	1	4	1	non-food_inanimate_briefcase	0	L	8	0	163	0		0	0	137.173454700038	137.273435799871
31432.5	0.0999783002771437	527	satiated	stimuli/non_foods\non-food_inanimate_desk.jpg	1	4	1	non-food_inanimate_desk	0	T	14	0	178	0		0	0	137.323450899683	137.42342919996
31470	0.0999871003441513	528	satiated	stimuli/foods\bagel.jpg	1	4	1	bagel	1	D	2	0	6	0		0	0	137.473455799744	137.573442900088
31507.5	0.0999734997749329	529	satiated	stimuli/foods\brussel_sprouts.jpg	1	4	1	brussel_sprouts	1	G	4	0	15	0		0	0	137.623453299981	137.723426799756
31545	0.099979099817574	530	satiated	stimuli/non_foods\non-food_inanimate_folding_chair.jpg	1	4	1	non-food_inanimate_folding_chair	0	V	15	0	182	0		0	0	137.77344150003	137.873420599848
31582.5	0.0999860996380448	531	satiated	stimuli/non_foods\non-food_inanimate_cupboard.jpg	1	4	1	non-food_inanimate_cupboard	0	L	8	0	177	0		0	0	137.923439600039	138.023425699677
31620	0.0999827003106475	532	satiated	stimuli/foods\tomato.jpg	1	4	1	tomato	1	X	17	0	276	0		0	0	138.073438999709	138.173421700019
31657.5	0.0999839999713004	533	satiated	stimuli/foods\fried_calamari.jpg	1	4	1	fried_calamari	1	C	1	0	50	0		0	0	138.223438399844	138.323422399815
31695	0.09998539974913	534	satiated	stimuli/non_foods\non-food_animate_sea_lion.jpg	1	4	1	non-food_animate_sea_lion	0	G	4	0	143	0		0	0	138.373433799949	138.473419199698
31732.5	0.0999830001965165	535	satiated	stimuli/foods\lentils.jpg	1	4	1	lentils	1	P	11	0	74	0		0	0	138.523432999849	138.623416000046
31770	0.099985699634999	536	satiated	stimuli/foods\cabbage.jpg	1	4	1	cabbage	1	G	4	0	16	0		0	0	138.673431700096	138.773417399731
31807.5	0.0999819003045559	537	satiated	stimuli/non_foods\non-food_inanimate_rope.jpg	1	4	1	non-food_inanimate_rope	0	X	17	0	204	0		0	0	138.823429499753	138.923411400057
31845	0.0999924000352621	538	satiated	stimuli/foods\grapes.jpg	1	4	1	grapes	1	H	5	0	60	0		0	0	138.973423299845	139.073415699881
31882.5	0.0999795999377966	539	satiated	stimuli/foods\green_olives.jpg	1	4	1	green_olives	1	S	13	0	62	0		0	0	139.123426499777	139.223406099714
31920	0.0999854998663068	540	satiated	stimuli/foods\apricot.jpg	1	4	1	apricot	1	N	10	0	2	0		0	0	139.273421599995	139.373407099862
31957.5	0.0999990003183484	541	satiated	stimuli/foods\coconut.jpg	1	4	1	coconut	1	X	17	0	33	0		0	0	139.423405999783	139.523405000102
31995	0.0999720003455877	542	satiated	stimuli/non_foods\non-food_inanimate_canoe.jpg	1	4	1	non-food_inanimate_canoe	0	M	9	0	170	0		0	0	139.57342909975	139.673401100095
32032.5	0.0999631001614034	543	satiated	stimuli/non_foods\non-food_inanimate_fire_extinguisher.jpg	1	4	1	non-food_inanimate_fire_extinguisher	0	X	17	0	181	0		0	0	139.723422899842	139.823386000004
32070	0.0999716999940574	544	satiated	stimuli/non_foods\non-food_animate_hummingbird.jpg	1	4	1	non-food_animate_hummingbird	0	V	15	0	120	0		0	0	139.873415399808	139.973387099802
32107.5	0.0999865001067519	545	satiated	stimuli/non_foods\non-food_inanimate_drum_set.jpg	1	4	1	non-food_inanimate_drum_set	0	N	10	0	179	0		0	0	140.023419799749	140.123406299856
32145	0.0999631001614034	546	satiated	stimuli/non_foods\non-food_animate_baby_sitting.jpg	1	4	1	non-food_animate_baby_sitting	0	D	2	0	93	0		0	0	140.173421199899	140.273384300061
32182.5	0.0999855003319681	547	satiated	stimuli/non_foods\non-food_inanimate_alarm_clock.jpg	1	4	1	non-food_inanimate_alarm_clock	0	G	4	0	158	0		0	0	140.323418699671	140.423404200003
32220	0.0999930999241769	548	satiated	stimuli/foods\stew_with_potatoes_and_carrots.jpg	1	4	1	stew_with_potatoes_and_carrots	1	Z	18	0	271	0		0	0	140.473405799828	140.573398899753
32257.5	0.0999898002482951	549	satiated	stimuli/foods\smoked_ham.jpg	1	4	1	smoked_ham	1	X	17	0	266	0		0	0	140.623404999729	140.723394799978
32295	0.0999854998663068	550	satiated	stimuli/foods\fries.jpg	1	4	1	fries	1	M	9	0	52	0		0	0	140.773405000102	140.873390499968
32332.5	0.0999960000626743	551	satiated	stimuli/foods\beetroots.jpg	1	4	1	beetroots	1	R	12	0	10	0		0	0	140.923400599975	141.023396600038
32370	0.0999578000046313	552	satiated	stimuli/foods\onion.jpg	1	4	1	onion	1	B	0	0	229	0		0	0	141.073409799952	141.173367599957
32407.5	0.0999838998541236	553	satiated	stimuli/non_foods\non-food_inanimate_chair.jpg	1	4	1	non-food_inanimate_chair	0	P	11	0	172	0		0	0	141.223399099894	141.323382999748
32445	0.09998709987849	554	satiated	stimuli/foods\omelette.jpg	1	4	1	omelette	1	V	15	0	228	0		0	0	141.373395199887	141.473382299766
32482.5	0.0999822001904249	555	satiated	stimuli/non_foods\non-food_animate_elephant.jpg	1	4	1	non-food_animate_elephant	0	F	3	0	111	0		0	0	141.523394799791	141.623376999982
32520	0.0999858998693526	556	satiated	stimuli/non_foods\non-food_inanimate_rack.jpg	1	4	1	non-food_inanimate_rack	0	P	11	0	202	0		0	0	141.6733928998	141.773378799669
32557.5	0.099985099863261	557	satiated	stimuli/non_foods\non-food_animate_ladybug.jpg	1	4	1	non-food_animate_ladybug	0	K	7	0	124	0		0	0	141.823392800055	141.923377899919
32595	0.100009300280362	558	satiated	stimuli/foods\oregano.jpg	1	4	1	oregano	1	V	15	0	231	0		0	0	141.973373199813	142.073382500093
32632.5	0.0999853000976145	559	satiated	stimuli/foods\mortadella.jpg	1	4	1	mortadella	1	K	7	0	83	0		0	0	142.123393899761	142.223379199859
33216	0.0999635998159647	560	satiated	stimuli/foods\pumpkin.jpg	1	5	1	pumpkin	1	X	17	0	250	1	a	0	0	144.456689999904	144.55665359972
33253.5	0.0999822001904249	561	satiated	stimuli/foods\spaghetti_with_meat_sauce.jpg	1	5	1	spaghetti_with_meat_sauce	1	V	15	0	267	0		0	0	144.606689899694	144.706672099885
33291	0.0999999004416168	562	satiated	stimuli/foods\rockmelon.jpg	1	5	1	rockmelon	1	D	2	0	262	0		0	0	144.756680399645	144.856680300087
33328.5	0.0999878998845816	563	satiated	stimuli/non_foods\non-food_animate_student_female.jpg	1	5	1	non-food_animate_student_female	0	N	10	0	151	0		0	0	144.906689399853	145.006677299738
33366	0.0999865001067519	564	satiated	stimuli/non_foods\non-food_animate_gorilla.jpg	1	5	1	non-food_animate_gorilla	0	S	13	0	116	0		0	0	145.056689799763	145.15667629987
33403.5	0.099978500045836	565	satiated	stimuli/non_foods\non-food_animate_skunk.jpg	1	5	1	non-food_animate_skunk	0	F	3	0	147	0		0	0	145.206689300016	145.306667800061
33441	0.0999659998342395	566	satiated	stimuli/foods\brussel_sprouts.jpg	1	5	1	brussel_sprouts	1	J	6	0	15	0		0	0	145.356680300087	145.456646299921
33478.5	0.0999686997383833	567	satiated	stimuli/foods\chilli.jpg	1	5	1	chilli	1	S	13	0	25	0		0	0	145.506686999928	145.606655699667
33516	0.10000229999423	568	satiated	stimuli/foods\museli_bars.jpg	1	5	1	museli_bars	1	T	14	0	84	0		0	0	145.656655099709	145.756657399703
33553.5	0.0999865001067519	569	satiated	stimuli/non_foods\non-food_inanimate_shell.jpg	1	5	1	non-food_inanimate_shell	0	F	3	0	206	0		0	0	145.806680299807	145.906666799914
33591	0.0999773000366986	570	satiated	stimuli/foods\grapes.jpg	1	5	1	grapes	1	D	2	0	60	0		0	0	145.956678200047	146.056655500084
33628.5	0.0999737000092864	571	satiated	stimuli/non_foods\non-food_animate_duck.jpg	1	5	1	non-food_animate_duck	0	K	7	0	109	0		0	0	146.106673900038	146.206647600047
33666	0.099950899835676	572	satiated	stimuli/non_foods\non-food_inanimate_bowling_ball.jpg	1	5	1	non-food_inanimate_bowling_ball	0	M	9	0	162	0		0	0	146.256690899841	146.356641799677
33703.5	0.0999914002604783	573	satiated	stimuli/non_foods\non-food_inanimate_socks.jpg	1	5	1	non-food_inanimate_socks	0	P	11	0	211	0		0	0	146.40666659968	146.50665799994
33741	0.0999778001569211	574	satiated	stimuli/foods\lemon_meringue_pie.jpg	1	5	1	lemon_meringue_pie	1	M	9	0	73	0		0	0	146.556661499664	146.656639299821
33778.5	0.100016399752349	575	satiated	stimuli/foods\fennel.jpg	1	5	1	fennel	1	W	16	0	47	0		0	0	146.706649499945	146.806665899698
33816	0.0999509003013372	576	satiated	stimuli/foods\prawn.jpg	1	5	1	prawn	1	V	15	0	249	0		0	0	146.856670799665	146.956621699966
33853.5	0.0999818001873791	577	satiated	stimuli/non_foods\non-food_animate_llama.jpg	1	5	1	non-food_animate_llama	0	N	10	0	127	0		0	0	147.006668199785	147.106649999972
33891	0.100002000108361	578	satiated	stimuli/non_foods\non-food_inanimate_waterlily.jpg	1	5	1	non-food_inanimate_waterlily	0	T	14	0	226	0		0	0	147.156649099663	147.256651099771
33928.5	0.099985699634999	579	satiated	stimuli/foods\pasta_carbonara.jpg	1	5	1	pasta_carbonara	1	H	5	0	236	0		0	0	147.30666500004	147.406650699675
33966	0.100009499583393	580	satiated	stimuli/non_foods\non-food_animate_fox.jpg	1	5	1	non-food_animate_fox	0	L	8	0	112	0		0	0	147.456636900082	147.556646399666
34003.5	0.100001499988139	581	satiated	stimuli/foods\tomato.jpg	1	5	1	tomato	1	K	7	0	276	0		0	0	147.606641700026	147.706643200014
34041	0.100007699802518	582	satiated	stimuli/non_foods\non-food_inanimate_alarm_clock.jpg	1	5	1	non-food_inanimate_alarm_clock	0	P	11	0	158	0		0	0	147.756657300051	147.856664999854
34078.5	0.0999638000503182	583	satiated	stimuli/foods\spinach.jpg	1	5	1	spinach	1	L	8	0	268	0		0	0	147.906661699992	148.006625500042
34116	0.0999540002085268	584	satiated	stimuli/foods\strawberry.jpg	1	5	1	strawberry	1	B	0	0	272	0		0	0	148.056682299823	148.156636300031
34153.5	0.0999613995663822	585	satiated	stimuli/foods\capsicum.jpg	1	5	1	capsicum	1	R	12	0	18	0		0	0	148.206652800087	148.306614199653
34191	0.099961900152266	586	satiated	stimuli/foods\garlic.jpg	1	5	1	garlic	1	T	14	0	56	0		0	0	148.356647199951	148.456609100103
34228.5	0.100017699878663	587	satiated	stimuli/foods\broccoli.jpg	1	5	1	broccoli	1	H	5	0	13	0		0	0	148.506620099768	148.606637799647
34266	0.0999830001965165	588	satiated	stimuli/non_foods\non-food_animate_horse.jpg	1	5	1	non-food_animate_horse	0	K	7	0	119	0		0	0	148.656649599783	148.75663259998
34303.5	0.0999834998510778	589	satiated	stimuli/foods\potato_chips.jpg	1	5	1	potato_chips	1	F	3	0	247	0		0	0	148.806646300014	148.906629799865
34341	0.0999920000322163	590	satiated	stimuli/foods\cherry.jpg	1	5	1	cherry	1	J	6	0	23	0		0	0	148.956641899887	149.05663389992
34378.5	0.0999754997901618	591	satiated	stimuli/foods\chestnut.jpg	1	5	1	chestnut	1	F	3	0	24	0		0	0	149.106639300007	149.206614799798
34416	0.0999969998374581	592	satiated	stimuli/foods\lollies.jpg	1	5	1	lollies	1	K	7	0	78	0		0	0	149.256630300079	149.356627299916
34453.5	0.10000679967925	593	satiated	stimuli/foods\wafer.jpg	1	5	1	wafer	1	M	9	0	277	0		0	0	149.406613700092	149.506620499771
34491	0.0999733000062406	594	satiated	stimuli/foods\pepperoni_pizza.jpg	1	5	1	pepperoni_pizza	1	X	17	0	241	0		0	0	149.556635499932	149.656608799938
34528.5	0.0999835999682546	595	satiated	stimuli/non_foods\non-food_animate_squirrel.jpg	1	5	1	non-food_animate_squirrel	0	E	20	1	150	0		0	0	149.706621699966	149.806605299935
34566	0.100010100286454	596	satiated	stimuli/foods\cinnamon.jpg	1	5	1	cinnamon	1	K	7	0	30	0		0	0	149.85660639964	149.956616499927
34603.5	0.09998539974913	597	satiated	stimuli/non_foods\non-food_inanimate_broom.jpg	1	5	1	non-food_inanimate_broom	0	B	0	0	164	0		0	0	150.00662790006	150.106613299809
34641	0.0999871003441513	598	satiated	stimuli/non_foods\non-food_animate_penguin.jpg	1	5	1	non-food_animate_penguin	0	H	5	0	135	1	a	0.541833399794996	1	150.156628499739	150.256615600083
34678.5	0.100002100225538	599	satiated	stimuli/foods\cooked_prawn.jpg	1	5	1	cooked_prawn	1	N	10	0	36	0		0	0	150.30660109967	150.406603199895
34716	0.0999974003061652	600	satiated	stimuli/non_foods\non-food_animate_ram.jpg	1	5	1	non-food_animate_ram	0	V	15	0	140	0		0	0	150.456614799798	150.556612200104
34753.5	0.0999859999865294	601	satiated	stimuli/non_foods\non-food_animate_dachshund.jpg	1	5	1	non-food_animate_dachshund	0	X	17	0	104	0		0	0	150.606623199768	150.706609199755
34791	0.0999869001097977	602	satiated	stimuli/non_foods\non-food_animate_monkey.jpg	1	5	1	non-food_animate_monkey	0	Z	18	0	130	0		0	0	150.75662169978	150.85660859989
34828.5	0.0999910999089479	603	satiated	stimuli/non_foods\non-food_inanimate_bicycle.jpg	1	5	1	non-food_inanimate_bicycle	0	D	2	0	161	0		0	0	150.906613300089	151.006604399998
34866	0.0999974999576807	604	satiated	stimuli/non_foods\non-food_inanimate_nailpolish.jpg	1	5	1	non-food_inanimate_nailpolish	0	V	15	0	195	0		0	0	151.056593699846	151.156591199804
34903.5	0.0999880000017583	605	satiated	stimuli/non_foods\non-food_animate_green_bug.jpg	1	5	1	non-food_animate_green_bug	0	R	12	0	118	0		0	0	151.206603900064	151.306591900066
34941	0.099995800293982	606	satiated	stimuli/non_foods\non-food_inanimate_horn.jpg	1	5	1	non-food_inanimate_horn	0	J	6	0	190	0		0	0	151.356596599799	151.456592400093
34978.5	0.0999849000945687	607	satiated	stimuli/non_foods\non-food_animate_bee.jpg	1	5	1	non-food_animate_bee	0	X	17	0	95	0		0	0	151.506609699689	151.606594599783
35016	0.0999845997430384	608	satiated	stimuli/foods\savory_pie.jpg	1	5	1	savory_pie	1	C	1	0	265	0		0	0	151.656610500067	151.756595099811
35053.5	0.0999813000671566	609	satiated	stimuli/non_foods\non-food_animate_parrot.jpg	1	5	1	non-food_animate_parrot	0	N	10	0	133	0		0	0	151.806609999854	151.906591299921
35091	0.100004800129682	610	satiated	stimuli/foods\fried_calamari.jpg	1	5	1	fried_calamari	1	C	1	0	50	0		0	0	151.956585899927	152.056590700056
35128.5	0.099989500362426	611	satiated	stimuli/non_foods\non-food_animate_young_girl.jpg	1	5	1	non-food_animate_young_girl	0	L	8	0	157	0		0	0	152.106602499727	152.20659200009
35166	0.0999853000976145	612	satiated	stimuli/non_foods\non-food_animate_snail.jpg	1	5	1	non-food_animate_snail	0	F	3	0	149	0		0	0	152.256601999979	152.356587300077
35203.5	0.0999771002680063	613	satiated	stimuli/non_foods\non-food_animate_ladybug.jpg	1	5	1	non-food_animate_ladybug	0	S	13	0	124	0		0	0	152.406600299757	152.506577400025
35241	0.0999894998967648	614	satiated	stimuli/foods\almonds.jpg	1	5	1	almonds	1	H	5	0	0	0		0	0	152.556591699831	152.656581199728
35278.5	0.0999835999682546	615	satiated	stimuli/foods\green_olives.jpg	1	5	1	green_olives	1	W	16	0	62	0		0	0	152.706592899747	152.806576499715
35316	0.10000369977206	616	satiated	stimuli/foods\onion.jpg	1	5	1	onion	1	B	0	0	229	0		0	0	152.856567400042	152.956571099814
35353.5	0.0999806998297572	617	satiated	stimuli/non_foods\non-food_animate_mouse.jpg	1	5	1	non-food_animate_mouse	0	V	15	0	131	0		0	0	153.006584499963	153.106565199792
35391	0.100001499988139	618	satiated	stimuli/non_foods\non-food_animate_eagle.jpg	1	5	1	non-food_animate_eagle	0	M	9	0	110	0		0	0	153.15658329986	153.256584799848
35428.5	0.0999620999209583	619	satiated	stimuli/non_foods\non-food_inanimate_chair.jpg	1	5	1	non-food_inanimate_chair	0	X	17	0	172	0		0	0	153.306613099761	153.406575199682
35466	0.0999840996228158	620	satiated	stimuli/foods\linguine_with_clams.jpg	1	5	1	linguine_with_clams	1	M	9	0	77	0		0	0	153.456587200053	153.556571299676
35503.5	0.0999596999026835	621	satiated	stimuli/non_foods\non-food_inanimate_cupboard.jpg	1	5	1	non-food_inanimate_cupboard	0	T	14	0	177	0		0	0	153.606585700065	153.706545399968
35541	0.0999794001691043	622	satiated	stimuli/non_foods\non-food_inanimate_teddy_bear.jpg	1	5	1	non-food_inanimate_teddy_bear	0	S	13	0	218	0		0	0	153.756569599733	153.856548999902
35578.5	0.100008700042963	623	satiated	stimuli/non_foods\non-food_inanimate_wrench.jpg	1	5	1	non-food_inanimate_wrench	0	P	11	0	227	0		0	0	153.906556899659	154.006565599702
35616	0.0999920996837318	624	satiated	stimuli/non_foods\non-food_animate_porcupine.jpg	1	5	1	non-food_animate_porcupine	0	B	0	0	138	0		0	0	154.056570400018	154.156562499702
35653.5	0.10000679967925	625	satiated	stimuli/foods\donut.jpg	1	5	1	donut	1	C	1	0	44	0		0	0	154.206556600053	154.306563399732
35691	0.0999843003228307	626	satiated	stimuli/foods\cooked_ham.jpg	1	5	1	cooked_ham	1	X	17	0	35	0		0	0	154.356578699779	154.456563000102
35728.5	0.0999789000488818	627	satiated	stimuli/foods\fried_zucchini.jpg	1	5	1	fried_zucchini	1	Z	18	0	51	0		0	0	154.506577999797	154.606556899846
35766	0.099989099893719	628	satiated	stimuli/non_foods\non-food_animate_mammoth.jpg	1	5	1	non-food_animate_mammoth	0	B	0	0	128	0		0	0	154.656558599789	154.756547699682
35803.5	0.0999841000884771	629	satiated	stimuli/foods\fruit_flan.jpg	1	5	1	fruit_flan	1	H	5	0	53	0		0	0	154.80656279996	154.906546900049
35841	0.0999849997460842	630	satiated	stimuli/non_foods\non-food_inanimate_suitcase.jpg	1	5	1	non-food_inanimate_suitcase	0	C	1	0	215	0		0	0	154.95655969996	155.056544699706
35878.5	0.0999687002040446	631	satiated	stimuli/foods\lamb_chops.jpg	1	5	1	lamb_chops	1	N	10	0	70	0		0	0	155.106574399862	155.206543100066
35916	0.0999819999560714	632	satiated	stimuli/non_foods\non-food_inanimate_speakers.jpg	1	5	1	non-food_inanimate_speakers	0	H	5	0	212	0		0	0	155.25655749999	155.356539499946
35953.5	0.099981099832803	633	satiated	stimuli/non_foods\non-food_animate_dolphin.jpg	1	5	1	non-food_animate_dolphin	0	S	13	0	106	0		0	0	155.406554799993	155.506535899825
35991	0.0999930999241769	634	satiated	stimuli/foods\chocolate_pudding.jpg	1	5	1	chocolate_pudding	1	K	7	0	29	0		0	0	155.556554299779	155.656547399703
36028.5	0.0999851999804378	635	satiated	stimuli/non_foods\non-food_animate_clown.jpg	1	5	1	non-food_animate_clown	0	F	3	0	102	0		0	0	155.706558799837	155.806543999817
36066	0.0999838998541236	636	satiated	stimuli/non_foods\non-food_animate_donkey.jpg	1	5	1	non-food_animate_donkey	0	C	1	0	107	0		0	0	155.856553799938	155.956537699793
36103.5	0.099983399733901	637	satiated	stimuli/non_foods\non-food_animate_cat.jpg	1	5	1	non-food_animate_cat	0	D	2	0	98	0		0	0	156.006555600092	156.106538999826
36141	0.0999836996197701	638	satiated	stimuli/foods\cream_donuts.jpg	1	5	1	cream_donuts	1	W	16	0	39	0		0	0	156.156546100043	156.256529799663
36178.5	0.0999794001691043	639	satiated	stimuli/foods\minestrone_soup.jpg	1	5	1	minestrone_soup	1	V	15	0	82	0		0	0	156.306548399851	156.40652780002
36216	0.09998709987849	640	satiated	stimuli/foods\rice_cake.jpg	1	5	1	rice_cake	1	L	8	0	258	0		0	0	156.45653830003	156.556525399908
