onset	duration	eventnumber	hunger_condition	stimfilename	blockno	trialno	is_faststream	stim	food_idx	letter	letter_idx	istarget	image_number	response	keypressed	rt	correct	time_stimon	time_stimoff
4846.25	0.0999756001401693	0	hunger	stimuli/non_foods\non-food_inanimate_padlock.jpg	1	1	1	non-food_inanimate_padlock	0	V	15	0	199	0		0	0	33.8479034998454	33.9478790999856
4883.75	0.100037899799645	1	hunger	stimuli/foods\chilli.jpg	1	1	1	chilli	1	W	16	0	25	0		0	0	33.9978986000642	34.0979364998639
4921.25	0.0999950999394059	2	hunger	stimuli/non_foods\non-food_animate_Causasian_man.jpg	1	1	1	non-food_animate_Causasian_man	0	X	17	0	89	0		0	0	34.1478937000502	34.2478887999896
4958.75	0.0999788001645356	3	hunger	stimuli/foods\artichoke.jpg	1	1	1	artichoke	1	P	11	0	3	0		0	0	34.2979009998962	34.3978798000608
4996.25	0.0999838002026081	4	hunger	stimuli/foods\cupcake.jpg	1	1	1	cupcake	1	J	6	0	42	0		0	0	34.4478914998472	34.5478753000498
5033.75	0.0999738001264632	5	hunger	stimuli/non_foods\non-food_animate_raccoon.jpg	1	1	1	non-food_animate_raccoon	0	K	7	0	139	0		0	0	34.5979005999397	34.6978744000662
5071.25	0.099967900197953	6	hunger	stimuli/non_foods\non-food_inanimate_bamboo.jpg	1	1	1	non-food_inanimate_bamboo	0	H	5	0	159	0		0	0	34.7479154998437	34.8478834000416
5108.75	0.0999729000031948	7	hunger	stimuli/foods\almonds.jpg	1	1	1	almonds	1	Z	18	0	0	0		0	0	34.8978957000654	34.9978686000686
5146.25	0.0999862998723984	8	hunger	stimuli/foods\egg.jpg	1	1	1	egg	1	B	0	0	45	0		0	0	35.0478839999996	35.147870299872
5183.75	0.0999867999926209	9	hunger	stimuli/foods\mushroom.jpg	1	1	1	mushroom	1	L	8	0	85	0		0	0	35.197882700013	35.2978695000056
5221.25	0.0999869999941438	10	hunger	stimuli/foods\hotdog.jpg	1	1	1	hotdog	1	J	6	0	67	0		0	0	35.3478949998971	35.4478819998913
5258.75	0.0999617001507431	11	hunger	stimuli/non_foods\non-food_animate_bat.jpg	1	1	1	non-food_animate_bat	0	S	13	0	94	0		0	0	35.4979027998634	35.5978645000141
5296.25	0.0999859999865294	12	hunger	stimuli/non_foods\non-food_animate_giraffe.jpg	1	1	1	non-food_animate_giraffe	0	L	8	0	115	0		0	0	35.647877200041	35.7478632000275
5333.75	0.0997460000216961	13	hunger	stimuli/non_foods\non-food_animate_cow.jpg	1	1	1	non-food_animate_cow	0	D	2	0	103	0		0	0	35.798125699861	35.8978716998827
5371.25	0.0999795000534505	14	hunger	stimuli/foods\frankfurter_and_provolone_salad.jpg	1	1	1	frankfurter_and_provolone_salad	1	G	4	0	49	0		0	0	35.9478786999825	36.047858200036
5408.75	0.0999787000473589	15	hunger	stimuli/foods\risotto_with_zucchini.jpg	1	1	1	risotto_with_zucchini	1	W	16	0	260	0		0	0	36.0978731999639	36.1978519000113
5446.25	0.0999904999043792	16	hunger	stimuli/foods\capsicum.jpg	1	1	1	capsicum	1	B	0	0	18	0		0	0	36.2478680999484	36.3478585998528
5483.75	0.099992899922654	17	hunger	stimuli/foods\cauliflower.jpg	1	1	1	cauliflower	1	S	13	0	20	0		0	0	36.3978810000699	36.4978738999926
5521.25	0.0999987998511642	18	hunger	stimuli/foods\baked_lamb_with_potatoes.jpg	1	1	1	baked_lamb_with_potatoes	1	F	3	0	8	0		0	0	36.5478703000117	36.6478690998629
5558.75	0.0999899001326412	19	hunger	stimuli/foods\onion.jpg	1	1	1	onion	1	P	11	0	229	0		0	0	36.697865499882	36.7978554000147
5596.25	0.0999845000915229	20	hunger	stimuli/foods\cracker.jpg	1	1	1	cracker	1	R	12	0	38	0		0	0	36.8478655999061	36.9478500999976
5633.75	0.099992899922654	21	hunger	stimuli/non_foods\non-food_animate_baby_sitting.jpg	1	1	1	non-food_animate_baby_sitting	0	W	16	0	93	0		0	0	36.9978644000366	37.0978572999593
5671.25	0.0999902000185102	22	hunger	stimuli/foods\kiwi.jpg	1	1	1	kiwi	1	V	15	0	69	0		0	0	37.1478635999374	37.2478537999559
5708.75	0.0999835999682546	23	hunger	stimuli/foods\pickles.jpg	1	1	1	pickles	1	W	16	0	242	0		0	0	37.2978673998732	37.3978509998415
5746.25	0.0999826001934707	24	hunger	stimuli/non_foods\non-food_inanimate_teddy_bear.jpg	1	1	1	non-food_inanimate_teddy_bear	0	Z	18	0	218	0		0	0	37.4478646998759	37.5478473000694
5783.75	0.0999894998967648	25	hunger	stimuli/foods\minestrone_soup.jpg	1	1	1	minestrone_soup	1	M	9	0	82	0		0	0	37.5978570999578	37.6978465998545
5821.25	0.0999827000778168	26	hunger	stimuli/foods\gnocchi.jpg	1	1	1	gnocchi	1	G	4	0	58	0		0	0	37.747858799994	37.8478415000718
5858.75	0.0999857999850065	27	hunger	stimuli/non_foods\non-food_inanimate_rope.jpg	1	1	1	non-food_inanimate_rope	0	C	1	0	204	0		0	0	37.8978552999906	37.9978410999756
5896.25	0.0999811000656337	28	hunger	stimuli/foods\fries.jpg	1	1	1	fries	1	P	11	0	52	0		0	0	38.0478523999918	38.1478335000575
5933.75	0.100009500049055	29	hunger	stimuli/foods\strawberry.jpg	1	1	1	strawberry	1	M	9	0	272	0		0	0	38.1978382000234	38.2978477000725
5971.25	0.0999819999560714	30	hunger	stimuli/foods\potatoes.jpg	1	1	1	potatoes	1	R	12	0	248	0		0	0	38.3478532000445	38.4478352000006
6008.75	0.0999867999926209	31	hunger	stimuli/non_foods\non-food_animate_polar_bear.jpg	1	1	1	non-food_animate_polar_bear	0	T	14	0	137	0		0	0	38.4978515000548	38.5978383000474
6046.25	0.0999829000793397	32	hunger	stimuli/foods\pasta_carbonara.jpg	1	1	1	pasta_carbonara	1	P	11	0	236	0		0	0	38.6478490999434	38.7478320000228
6083.75	0.100009299814701	33	hunger	stimuli/non_foods\non-food_inanimate_grass.jpg	1	1	1	non-food_inanimate_grass	0	L	8	0	184	0		0	0	38.7978431000374	38.8978523998521
6121.25	0.0999759000260383	34	hunger	stimuli/non_foods\non-food_inanimate_nailpolish.jpg	1	1	1	non-food_inanimate_nailpolish	0	M	9	0	195	0		0	0	38.9478533999063	39.0478292999323
6158.75	0.099984799977392	35	hunger	stimuli/foods\pancakes.jpg	1	1	1	pancakes	1	C	1	0	234	0		0	0	39.0978433999699	39.1978281999473
6196.25	0.099988300120458	36	hunger	stimuli/foods\brussel_sprouts.jpg	1	1	1	brussel_sprouts	1	K	7	0	15	0		0	0	39.2478403998539	39.3478286999743
6233.75	0.0999823999591172	37	hunger	stimuli/non_foods\non-food_inanimate_tree.jpg	1	1	1	non-food_inanimate_tree	0	Z	18	0	223	0		0	0	39.397845899919	39.4978282998782
6271.25	0.0999910000246018	38	hunger	stimuli/non_foods\non-food_animate_seal.jpg	1	1	1	non-food_animate_seal	0	K	7	0	146	0		0	0	39.547839100007	39.6478301000316
6308.75	0.0999783000443131	39	hunger	stimuli/foods\fruit_flan.jpg	1	1	1	fruit_flan	1	L	8	0	53	0		0	0	39.6978388999123	39.7978171999566
6346.25	0.0999873999971896	40	hunger	stimuli/foods\cucumber.jpg	1	1	1	cucumber	1	G	4	0	41	0		0	0	39.8478275998496	39.9478149998467
6383.75	0.0999873001128435	41	hunger	stimuli/non_foods\non-food_inanimate_skateboard.jpg	1	1	1	non-food_inanimate_skateboard	0	N	10	0	208	0		0	0	39.9978290998843	40.0978163999971
6421.25	0.100000699982047	42	hunger	stimuli/non_foods\non-food_animate_german_shepherd.jpg	1	1	1	non-food_animate_german_shepherd	0	Z	18	0	114	0		0	0	40.1478174000513	40.2478181000333
6458.75	0.0999894000124186	43	hunger	stimuli/non_foods\non-food_animate_tortoise.jpg	1	1	1	non-food_animate_tortoise	0	F	3	0	153	0		0	0	40.2978332999628	40.3978226999752
6496.25	0.0999859001021832	44	hunger	stimuli/foods\oyster.jpg	1	1	1	oyster	1	H	5	0	233	0		0	0	40.4478324998636	40.5478183999658
6533.75	0.0999863999895751	45	hunger	stimuli/non_foods\non-food_animate_frog.jpg	1	1	1	non-food_animate_frog	0	V	15	0	113	0		0	0	40.5978280999698	40.6978144999593
6571.25	0.0999631998129189	46	hunger	stimuli/non_foods\non-food_animate_kangaroo.jpg	1	1	1	non-food_animate_kangaroo	0	W	16	0	122	0		0	0	40.7478501000442	40.8478132998571
6608.75	0.099982799962163	47	hunger	stimuli/foods\broccoli.jpg	1	1	1	broccoli	1	F	3	0	13	0		0	0	40.8978283000179	40.99781109998
6646.25	0.0999849999789149	48	hunger	stimuli/non_foods\non-food_inanimate_waterlily.jpg	1	1	1	non-food_inanimate_waterlily	0	Z	18	0	226	0		0	0	41.047826099908	41.1478110998869
6683.75	0.0999861999880522	49	hunger	stimuli/non_foods\non-food_animate_alligator.jpg	1	1	1	non-food_animate_alligator	0	X	17	0	90	0		0	0	41.1978265000507	41.2978127000388
6721.25	0.09998430009	50	hunger	stimuli/non_foods\non-food_inanimate_scissors.jpg	1	1	1	non-food_inanimate_scissors	0	J	6	0	205	0		0	0	41.3478226999287	41.4478070000187
6758.75	0.099974500015378	51	hunger	stimuli/non_foods\non-food_inanimate_towel.jpg	1	1	1	non-food_inanimate_towel	0	W	16	0	221	0		0	0	41.4978286998812	41.5978031998966
6796.25	0.0999785999301821	52	hunger	stimuli/non_foods\non-food_animate_sea_turtle.jpg	1	1	1	non-food_animate_sea_turtle	0	M	9	0	144	0		0	0	41.6478194999509	41.747798099881
6833.75	0.0999942000489682	53	hunger	stimuli/foods\mortadella.jpg	1	1	1	mortadella	1	F	3	0	83	0		0	0	41.7978135999292	41.8978077999782
6871.25	0.100008900044486	54	hunger	stimuli/foods\grilled_chicken_breast.jpg	1	1	1	grilled_chicken_breast	1	P	11	0	63	0		0	0	41.9477961999364	42.0478050999809
6908.75	0.0999851000960916	55	hunger	stimuli/foods\cherry.jpg	1	1	1	cherry	1	C	1	0	23	0		0	0	42.0978140998632	42.1977991999593
6946.25	0.0999865001067519	56	hunger	stimuli/non_foods\non-food_animate_dolphin.jpg	1	1	1	non-food_animate_dolphin	0	T	14	0	106	0		0	0	42.2478161999024	42.3478027000092
6983.75	0.100003900006413	57	hunger	stimuli/foods\cannoli.jpg	1	1	1	cannoli	1	J	6	0	17	0		0	0	42.3978130999021	42.4978169999085
7021.25	0.0999454001430422	58	hunger	stimuli/non_foods\non-food_inanimate_horn.jpg	1	1	1	non-food_inanimate_horn	0	P	11	0	190	0		0	0	42.5478510998655	42.6477965000086
7058.75	0.0999835999682546	59	hunger	stimuli/non_foods\non-food_animate_clown.jpg	1	1	1	non-food_animate_clown	0	V	15	0	102	0		0	0	42.6978116000537	42.7977952000219
7096.25	0.0999849999789149	60	hunger	stimuli/foods\oregano.jpg	1	1	1	oregano	1	J	6	0	231	0		0	0	42.8478091000579	42.9477941000368
7133.75	0.0999861999880522	61	hunger	stimuli/foods\potato_chips.jpg	1	1	1	potato_chips	1	W	16	0	247	0		0	0	42.9978070000652	43.0977932000533
7171.25	0.0999873999971896	62	hunger	stimuli/foods\red_beans.jpg	1	1	1	red_beans	1	R	12	0	255	0		0	0	43.1478063999675	43.2477937999647
7208.75	0.0999824998434633	63	hunger	stimuli/foods\mandarin.jpg	1	1	1	mandarin	1	V	15	0	79	0		0	0	43.297799800057	43.3977822999004
7246.25	0.0999698999803513	64	hunger	stimuli/non_foods\non-food_animate_duck.jpg	1	1	1	non-food_animate_duck	0	T	14	0	109	0		0	0	43.447807499906	43.5477773998864
7283.75	0.100012799957767	65	hunger	stimuli/non_foods\non-food_inanimate_canoe.jpg	1	1	1	non-food_inanimate_canoe	0	N	10	0	170	0		0	0	43.5977735000197	43.6977862999775
7321.25	0.100008399924263	66	hunger	stimuli/non_foods\non-food_inanimate_cap.jpg	1	1	1	non-food_inanimate_cap	0	P	11	0	171	0		0	0	43.7478034000378	43.8478117999621
7358.75	0.099989099893719	67	hunger	stimuli/foods\grapes.jpg	1	1	1	grapes	1	Z	18	0	60	0		0	0	43.897796300007	43.9977853999007
7396.25	0.0999832998495549	68	hunger	stimuli/non_foods\non-food_inanimate_moss.jpg	1	1	1	non-food_inanimate_moss	0	C	1	0	194	0		0	0	44.0477972000372	44.1477804998867
7433.75	0.0999896000139415	69	hunger	stimuli/non_foods\non-food_animate_millipede.jpg	1	1	1	non-food_animate_millipede	0	J	6	0	129	0		0	0	44.1978046000004	44.2977942000143
7471.25	0.0999882000032812	70	hunger	stimuli/non_foods\non-food_animate_hummingbird.jpg	1	1	1	non-food_animate_hummingbird	0	T	14	0	120	0		0	0	44.3477908999193	44.4477790999226
7508.75	0.0999859999865294	71	hunger	stimuli/non_foods\non-food_inanimate_toy_airplane.jpg	1	1	1	non-food_inanimate_toy_airplane	0	B	0	0	222	0		0	0	44.4977952998597	44.5977812998462
7546.25	0.0999884000048041	72	hunger	stimuli/foods\grapefruits.jpg	1	1	1	grapefruits	1	N	10	0	59	0		0	0	44.6477943998761	44.747782799881
7583.75	0.0999886998906732	73	hunger	stimuli/non_foods\non-food_animate_cheetah.jpg	1	1	1	non-food_animate_cheetah	0	L	8	0	100	0		0	0	44.7977895999793	44.89777829987
7621.25	0.100000699982047	74	hunger	stimuli/foods\swordfish.jpg	1	1	1	swordfish	1	S	13	0	273	0		0	0	44.9477766999044	45.0477773998864
7658.75	0.0999858998693526	75	hunger	stimuli/foods\ginger_root.jpg	1	1	1	ginger_root	1	D	2	0	57	0		0	0	45.0977851999924	45.1977710998617
7696.25	0.0999892000108957	76	hunger	stimuli/non_foods\non-food_animate_young_boy.jpg	1	1	1	non-food_animate_young_boy	0	M	9	0	156	0		0	0	45.2477853999007	45.3477745999116
7733.75	0.0999698999803513	77	hunger	stimuli/foods\red_cabbage.jpg	1	1	1	red_cabbage	1	H	5	0	256	0		0	0	45.3977971998975	45.4977670998778
7771.25	0.0999924000352621	78	hunger	stimuli/foods\pineapple.jpg	1	1	1	pineapple	1	K	7	0	243	0		0	0	45.5477752999868	45.6477677000221
7808.75	0.0999890000093728	79	hunger	stimuli/foods\stew_with_potatoes_and_carrots.jpg	1	1	1	stew_with_potatoes_and_carrots	1	P	11	0	271	0		0	0	45.6977800999302	45.7977690999396
7846.25	0.0999880998861045	80	hunger	stimuli/non_foods\non-food_inanimate_highlighter.jpg	1	1	1	non-food_inanimate_highlighter	0	R	12	0	189	0		0	0	45.847782399971	45.9477704998571
7883.75	0.0999936000443995	81	hunger	stimuli/foods\bagel.jpg	1	1	1	bagel	1	G	4	0	6	0		0	0	45.9977972998749	46.0977908999193
7921.25	0.0999497000593692	82	hunger	stimuli/non_foods\non-food_inanimate_socks.jpg	1	1	1	non-food_inanimate_socks	0	A	19	1	211	0		0	0	46.1478154999204	46.2477651999798
7958.75	0.0999896000139415	83	hunger	stimuli/non_foods\non-food_inanimate_tent.jpg	1	1	1	non-food_inanimate_tent	0	F	3	0	219	0		0	0	46.2977747998666	46.3977643998805
7996.25	0.0999898998998106	84	hunger	stimuli/non_foods\non-food_inanimate_fern.jpg	1	1	1	non-food_inanimate_fern	0	J	6	0	180	0		0	0	46.447771999985	46.5477618998848
8033.75	0.09998709987849	85	hunger	stimuli/non_foods\non-food_inanimate_leaf.jpg	1	1	1	non-food_inanimate_leaf	0	L	8	0	192	1	a	0.541781200096011	1	46.5977723000105	46.697759399889
8071.25	0.0999840998556465	86	hunger	stimuli/foods\lamb_chops.jpg	1	1	1	lamb_chops	1	B	0	0	70	0		0	0	46.7477732000407	46.8477572998963
8108.75	0.0999861999880522	87	hunger	stimuli/non_foods\non-food_animate_dachshund.jpg	1	1	1	non-food_animate_dachshund	0	P	11	0	104	0		0	0	46.8977713999338	46.9977575999219
8146.25	0.0999824998434633	88	hunger	stimuli/non_foods\non-food_inanimate_hammer.jpg	1	1	1	non-food_inanimate_hammer	0	H	5	0	186	0		0	0	47.0477706000675	47.1477530999109
8183.75	0.0999946999363601	89	hunger	stimuli/foods\apricot.jpg	1	1	1	apricot	1	V	15	0	2	0		0	0	47.1977651999332	47.2977598998696
8221.25	0.0999845999758691	90	hunger	stimuli/non_foods\non-food_animate_butterfly.jpg	1	1	1	non-food_animate_butterfly	0	H	5	0	96	0		0	0	47.3477695998736	47.4477541998494
8258.75	0.0999767000321299	91	hunger	stimuli/non_foods\non-food_animate_parrot.jpg	1	1	1	non-food_animate_parrot	0	C	1	0	133	0		0	0	47.49776869989	47.5977453999221
8296.25	0.0999928000383079	92	hunger	stimuli/foods\donut.jpg	1	1	1	donut	1	S	13	0	44	0		0	0	47.6477635998745	47.7477563999128
8333.75	0.0999896998982877	93	hunger	stimuli/non_foods\non-food_animate_eagle.jpg	1	1	1	non-food_animate_eagle	0	W	16	0	110	0		0	0	47.7977732999716	47.8977629998699
8371.25	0.0999771999195218	94	hunger	stimuli/foods\salami.jpg	1	1	1	salami	1	T	14	0	263	0		0	0	47.9477790999226	48.0477562998421
8408.75	0.0999821999575943	95	hunger	stimuli/non_foods\non-food_animate_snail.jpg	1	1	1	non-food_animate_snail	0	W	16	0	149	0		0	0	48.097762899939	48.1977450998966
8446.25	0.0999912999104708	96	hunger	stimuli/foods\fried_zucchini.jpg	1	1	1	fried_zucchini	1	X	17	0	51	0		0	0	48.2477571000345	48.347748399945
8483.75	0.0999743998982012	97	hunger	stimuli/foods\pea_pod.jpg	1	1	1	pea_pod	1	N	10	0	237	0		0	0	48.3977705000434	48.4977448999416
8521.25	0.0999862998723984	98	hunger	stimuli/foods\lasagna.jpg	1	1	1	lasagna	1	R	12	0	71	0		0	0	48.5477579999715	48.6477442998439
8558.75	0.0999882000032812	99	hunger	stimuli/foods\omelette.jpg	1	1	1	omelette	1	V	15	0	228	0		0	0	48.6977548999712	48.7977430999745
8596.25	0.100001299986616	100	hunger	stimuli/non_foods\non-food_animate_grasshopper.jpg	1	1	1	non-food_animate_grasshopper	0	J	6	0	117	0		0	0	48.8477539999876	48.9477552999742
8633.75	0.0999857001006603	101	hunger	stimuli/non_foods\non-food_animate_ram.jpg	1	1	1	non-food_animate_ram	0	Z	18	0	140	0		0	0	48.9977521998808	49.0977378999814
8671.25	0.0999888000078499	102	hunger	stimuli/foods\celery.jpg	1	1	1	celery	1	G	4	0	21	0		0	0	49.1477483999915	49.2477371999994
8708.75	0.0999912000261247	103	hunger	stimuli/non_foods\non-food_inanimate_folding_chair.jpg	1	1	1	non-food_inanimate_folding_chair	0	S	13	0	182	0		0	0	49.2977481998969	49.397739399923
8746.25	0.0999898998998106	104	hunger	stimuli/foods\waffle.jpg	1	1	1	waffle	1	U	23	1	278	0		0	0	49.447747200029	49.5477370999288
8783.75	0.0999612000305206	105	hunger	stimuli/foods\pumpkin.jpg	1	1	1	pumpkin	1	X	17	0	250	0		0	0	49.5977713000029	49.6977325000335
8821.25	0.0999837999697775	106	hunger	stimuli/foods\carrot.jpg	1	1	1	carrot	1	M	9	0	19	0		0	0	49.7477450999431	49.8477288999129
8858.75	0.0999849999789149	107	hunger	stimuli/foods\blackberry.jpg	1	1	1	blackberry	1	F	3	0	11	1	a	0.443237999919802	1	49.8977431999519	49.9977281999309
8896.25	0.0999811999499798	108	hunger	stimuli/foods\chocolate_bar.jpg	1	1	1	chocolate_bar	1	R	12	0	26	0		0	0	50.0477446999867	50.1477258999366
8933.75	0.0999858002178371	109	hunger	stimuli/non_foods\non-food_animate_green_bug.jpg	1	1	1	non-food_animate_green_bug	0	W	16	0	118	0		0	0	50.1977390998509	50.2977249000687
8971.25	0.0999882000032812	110	hunger	stimuli/foods\fruit_salad.jpg	1	1	1	fruit_salad	1	C	1	0	55	0		0	0	50.3477371998597	50.447725399863
9008.75	0.0999835999682546	111	hunger	stimuli/foods\green_beans.jpg	1	1	1	green_beans	1	T	14	0	61	0		0	0	50.4977382998914	50.5977218998596
9046.25	0.10001299995929	112	hunger	stimuli/non_foods\non-food_animate_rhino.jpg	1	1	1	non-food_animate_rhino	0	M	9	0	141	0		0	0	50.6477349000052	50.7477478999645
9083.75	0.0999849000945687	113	hunger	stimuli/foods\tomato.jpg	1	1	1	tomato	1	T	14	0	276	0		0	0	50.7977364999242	50.8977214000188
9121.25	0.0999827000778168	114	hunger	stimuli/foods\fruit_pie.jpg	1	1	1	fruit_pie	1	G	4	0	54	0		0	0	50.9477313999087	51.0477140999865
9158.75	0.0999907001387328	115	hunger	stimuli/non_foods\non-food_animate_mammoth.jpg	1	1	1	non-food_animate_mammoth	0	N	10	0	128	0		0	0	51.0977252998855	51.1977160000242
9196.25	0.0999998000916094	116	hunger	stimuli/non_foods\non-food_animate_peacock.jpg	1	1	1	non-food_animate_peacock	0	V	15	0	134	0		0	0	51.2477283999324	51.347728200024
9233.75	0.0999849999789149	117	hunger	stimuli/foods\coffee_beans.jpg	1	1	1	coffee_beans	1	F	3	0	34	0		0	0	51.397749299882	51.4977342998609
9271.25	0.0999836002010852	118	hunger	stimuli/foods\linguine_with_clams.jpg	1	1	1	linguine_with_clams	1	G	4	0	77	0		0	0	51.5477294998709	51.647713100072
9308.75	0.0999737000092864	119	hunger	stimuli/foods\chestnut.jpg	1	1	1	chestnut	1	S	13	0	24	0		0	0	51.6977261998691	51.7976998998784
9346.25	0.0999823999591172	120	hunger	stimuli/non_foods\non-food_inanimate_nettle.jpg	1	1	1	non-food_inanimate_nettle	0	Z	18	0	197	0		0	0	51.8477201999631	51.9477025999222
9383.75	0.0999761999119073	121	hunger	stimuli/non_foods\non-food_inanimate_skirt.jpg	1	1	1	non-food_inanimate_skirt	0	M	9	0	209	0		0	0	51.9977257000282	52.0977018999401
9421.25	0.0999954000581056	122	hunger	stimuli/non_foods\non-food_animate_Asian_man.jpg	1	1	1	non-food_animate_Asian_man	0	B	0	0	88	0		0	0	52.1477136998437	52.2477090999018
9458.75	0.0999794001691043	123	hunger	stimuli/foods\museli_bars.jpg	1	1	1	museli_bars	1	O	22	1	84	0		0	0	52.2977272998542	52.3977067000233
9496.25	0.0999804998282343	124	hunger	stimuli/foods\steak.jpg	1	1	1	steak	1	C	1	0	270	0		0	0	52.4477158000227	52.5476962998509
9533.75	0.0999801000580192	125	hunger	stimuli/non_foods\non-food_inanimate_lighter.jpg	1	1	1	non-food_inanimate_lighter	0	J	6	0	193	0		0	0	52.597714799922	52.69769489998
9571.25	0.0999944999348372	126	hunger	stimuli/non_foods\non-food_inanimate_sun_flower.jpg	1	1	1	non-food_inanimate_sun_flower	0	C	1	0	216	0		0	0	52.7477086000144	52.8477030999493
9608.75	0.0999867999926209	127	hunger	stimuli/non_foods\non-food_inanimate_table.jpg	1	1	1	non-food_inanimate_table	0	D	2	0	217	0		0	0	52.8977152998559	52.9977020998485
9646.25	0.10002060001716	128	hunger	stimuli/non_foods\non-food_inanimate_bed.jpg	1	1	1	non-food_inanimate_bed	0	V	15	0	160	0		0	0	53.0477145998739	53.147735199891
9683.75	0.0999356999527663	129	hunger	stimuli/non_foods\non-food_animate_caterpillar.jpg	1	1	1	non-food_animate_caterpillar	0	X	17	0	99	0		0	0	53.1977591000032	53.2976947999559
9721.25	0.0999816998373717	130	hunger	stimuli/non_foods\non-food_inanimate_clover.jpg	1	1	1	non-food_inanimate_clover	0	C	1	0	174	0		0	0	53.3477125000209	53.4476941998582
9758.75	0.0999822998419404	131	hunger	stimuli/non_foods\non-food_animate_skunk.jpg	1	1	1	non-food_animate_skunk	0	D	2	0	147	0		0	0	53.4977118000388	53.5976940998808
9796.25	0.099986300105229	132	hunger	stimuli/non_foods\non-food_inanimate_rack.jpg	1	1	1	non-food_inanimate_rack	0	F	3	0	202	0		0	0	53.6477077999152	53.7476941000205
9833.75	0.0999900999013335	133	hunger	stimuli/foods\banana.jpg	1	1	1	banana	1	X	17	0	9	0		0	0	53.797704000026	53.8976940999273
9871.25	0.0999813999515027	134	hunger	stimuli/foods\fried_calamari.jpg	1	1	1	fried_calamari	1	Z	18	0	50	0		0	0	53.9477085999679	54.0476899999194
9908.75	0.0999857999850065	135	hunger	stimuli/non_foods\non-food_animate_baby_crawling.jpg	1	1	1	non-food_animate_baby_crawling	0	S	13	0	92	0		0	0	54.0977012000512	54.1976870000362
9946.25	0.0999644000548869	136	hunger	stimuli/foods\cinnamon.jpg	1	1	1	cinnamon	1	M	9	0	30	0		0	0	54.2477239998989	54.3476883999538
9983.75	0.0999847000930458	137	hunger	stimuli/foods\pork_and_rice.jpg	1	1	1	pork_and_rice	1	J	6	0	245	0		0	0	54.3977003998589	54.4976850999519
10021.25	0.0999880000017583	138	hunger	stimuli/non_foods\non-food_animate_porcupine.jpg	1	1	1	non-food_animate_porcupine	0	S	13	0	138	0		0	0	54.5476981999818	54.6476861999836
10058.75	0.0999823999591172	139	hunger	stimuli/foods\potato_and_green_bean_salad.jpg	1	1	1	potato_and_green_bean_salad	1	J	6	0	246	0		0	0	54.6976995998994	54.7976819998585
10883.75	0.0999781000427902	140	hunger	stimuli/foods\eggplant.jpg	1	2	1	eggplant	1	K	7	0	46	0		0	0	57.9976683999412	58.097646499984
10921.25	0.0999971001874655	141	hunger	stimuli/non_foods\non-food_inanimate_short_sleeved_shirt.jpg	1	2	1	non-food_inanimate_short_sleeved_shirt	0	V	15	0	207	0		0	0	58.1476536998525	58.24765080004
10958.75	0.0999827000778168	142	hunger	stimuli/non_foods\non-food_inanimate_drum_set.jpg	1	2	1	non-food_inanimate_drum_set	0	P	11	0	179	0		0	0	58.297667299863	58.3976499999408
10996.25	0.0999743000138551	143	hunger	stimuli/non_foods\non-food_animate_ant.jpg	1	2	1	non-food_animate_ant	0	B	0	0	91	0		0	0	58.4476657998748	58.5476400998887
11033.75	0.0999890000093728	144	hunger	stimuli/foods\savory_pie.jpg	1	2	1	savory_pie	1	T	14	0	265	0		0	0	58.597651100019	58.6976401000284
11071.25	0.0999845999758691	145	hunger	stimuli/non_foods\non-food_inanimate_pine_cone.jpg	1	2	1	non-food_inanimate_pine_cone	0	S	13	0	200	0		0	0	58.7476558999624	58.8476404999383
11108.75	0.0999871999956667	146	hunger	stimuli/foods\lemon.jpg	1	2	1	lemon	1	J	6	0	72	0		0	0	58.8976505999453	58.997637799941
11146.25	0.0999887001235038	147	hunger	stimuli/non_foods\non-food_inanimate_broom.jpg	1	2	1	non-food_inanimate_broom	0	S	13	0	164	0		0	0	59.0476497998461	59.1476384999696
11183.75	0.0999929998070002	148	hunger	stimuli/foods\hazelnuts.jpg	1	2	1	hazelnuts	1	H	5	0	65	0		0	0	59.197660600068	59.297653599875
11221.25	0.0999849000945687	149	hunger	stimuli/non_foods\non-food_animate_horse.jpg	1	2	1	non-food_animate_horse	0	V	15	0	119	0		0	0	59.3476531999186	59.4476381000131
11258.75	0.0999575001187623	150	hunger	stimuli/non_foods\non-food_inanimate_orchid.jpg	1	2	1	non-food_inanimate_orchid	0	K	7	0	198	0		0	0	59.4976828999352	59.5976404000539
11296.25	0.0999861999880522	151	hunger	stimuli/non_foods\non-food_animate_swan.jpg	1	2	1	non-food_animate_swan	0	L	8	0	152	0		0	0	59.6476507999469	59.7476369999349
11333.75	0.0999818998388946	152	hunger	stimuli/non_foods\non-food_animate_bee.jpg	1	2	1	non-food_animate_bee	0	S	13	0	95	0		0	0	59.7976565000135	59.8976383998524
11371.25	0.0999863999895751	153	hunger	stimuli/foods\papaya.jpg	1	2	1	papaya	1	M	9	0	235	0		0	0	59.9476508998778	60.0476372998673
11408.75	0.0999859999865294	154	hunger	stimuli/non_foods\non-food_inanimate_couch.jpg	1	2	1	non-food_inanimate_couch	0	V	15	0	176	0		0	0	60.097648399882	60.1976343998685
11446.25	0.0999871999956667	155	hunger	stimuli/non_foods\non-food_inanimate_alarm_clock.jpg	1	2	1	non-food_inanimate_alarm_clock	0	K	7	0	158	0		0	0	60.2476476000156	60.3476348000113
11483.75	0.0999857001006603	156	hunger	stimuli/foods\dates.jpg	1	2	1	dates	1	P	11	0	43	0		0	0	60.3976437998936	60.4976294999942
11521.25	0.0999880000017583	157	hunger	stimuli/non_foods\non-food_animate_woman.jpg	1	2	1	non-food_animate_woman	0	W	16	0	154	0		0	0	60.5476422999054	60.6476302999072
11558.75	0.0999831000808626	158	hunger	stimuli/foods\lollies.jpg	1	2	1	lollies	1	M	9	0	78	0		0	0	60.6976449999493	60.7976281000301
11596.25	0.0999892000108957	159	hunger	stimuli/foods\rice.jpg	1	2	1	rice	1	H	5	0	257	0		0	0	60.8476388000418	60.9476280000526
11633.75	0.100024099927396	160	hunger	stimuli/non_foods\non-food_inanimate_headphones.jpg	1	2	1	non-food_inanimate_headphones	0	F	3	0	188	0		0	0	60.9976311000064	61.0976551999338
11671.25	0.0999412999954075	161	hunger	stimuli/non_foods\non-food_animate_owl.jpg	1	2	1	non-food_animate_owl	0	X	17	0	132	0		0	0	61.1476521999575	61.2475934999529
11708.75	0.0999799000564963	162	hunger	stimuli/non_foods\non-food_inanimate_chandelier.jpg	1	2	1	non-food_inanimate_chandelier	0	M	9	0	173	0		0	0	61.2976351999678	61.3976151000243
11746.25	0.100000499980524	163	hunger	stimuli/non_foods\non-food_animate_sea_lion.jpg	1	2	1	non-food_animate_sea_lion	0	C	1	0	143	0		0	0	61.4476209999993	61.5476214999799
11783.75	0.0999868998769671	164	hunger	stimuli/foods\wafer.jpg	1	2	1	wafer	1	G	4	0	277	0		0	0	61.5976311999839	61.6976180998608
11821.25	0.0999812998343259	165	hunger	stimuli/non_foods\non-food_inanimate_jeans.jpg	1	2	1	non-food_inanimate_jeans	0	B	0	0	191	0		0	0	61.7476238000672	61.8476050999016
11858.75	0.0999813000671566	166	hunger	stimuli/non_foods\non-food_inanimate_button.jpg	1	2	1	non-food_inanimate_button	0	G	4	0	168	0		0	0	61.8976334999315	61.9976147999987
11896.25	0.0999859001021832	167	hunger	stimuli/non_foods\non-food_inanimate_protractor.jpg	1	2	1	non-food_inanimate_protractor	0	Z	18	0	201	0		0	0	62.0476309999358	62.147616900038
11933.75	0.0999433000106364	168	hunger	stimuli/foods\meatballs.jpg	1	2	1	meatballs	1	H	5	0	81	0		0	0	62.1976735999342	62.2976168999448
11971.25	0.0999724001158029	169	hunger	stimuli/non_foods\non-food_animate_mouse.jpg	1	2	1	non-food_animate_mouse	0	B	0	0	131	0		0	0	62.3476372999139	62.4476097000297
12008.75	0.0999875999987125	170	hunger	stimuli/non_foods\non-food_inanimate_soccer_ball.jpg	1	2	1	non-food_inanimate_soccer_ball	0	J	6	0	210	0		0	0	62.4976242999546	62.5976118999533
12046.25	0.0999875001143664	171	hunger	stimuli/non_foods\non-food_inanimate_bucket.jpg	1	2	1	non-food_inanimate_bucket	0	M	9	0	165	0		0	0	62.6476248998661	62.7476123999804
12083.75	0.0999919001478702	172	hunger	stimuli/non_foods\non-food_inanimate_hay.jpg	1	2	1	non-food_inanimate_hay	0	B	0	0	187	0		0	0	62.7976229998749	62.8976149000227
12121.25	0.0999651998281479	173	hunger	stimuli/foods\figs.jpg	1	2	1	figs	1	T	14	0	48	0		0	0	62.9476421000436	63.0476072998717
12158.75	0.0999867001082748	174	hunger	stimuli/foods\cinnamon_sroll.jpg	1	2	1	cinnamon_sroll	1	L	8	0	31	0		0	0	63.0976199998986	63.1976067000069
12196.25	0.0999845999758691	175	hunger	stimuli/foods\honey.jpg	1	2	1	honey	1	X	17	0	66	0		0	0	63.2476194000337	63.3476040000096
12233.75	0.0999878000002354	176	hunger	stimuli/non_foods\non-food_animate_ladybug.jpg	1	2	1	non-food_animate_ladybug	0	W	16	0	124	0		0	0	63.3976163999178	63.497604199918
12271.25	0.099986599991098	177	hunger	stimuli/non_foods\non-food_inanimate_stoplight.jpg	1	2	1	non-food_inanimate_stoplight	0	P	11	0	214	0		0	0	63.5476162999403	63.6476028999314
12308.75	0.0999856998678297	178	hunger	stimuli/foods\nectarine.jpg	1	2	1	nectarine	1	D	2	0	87	0		0	0	63.6976145000663	63.7976001999341
12346.25	0.0999835999682546	179	hunger	stimuli/non_foods\non-food_animate_penguin.jpg	1	2	1	non-food_animate_penguin	0	B	0	0	135	0		0	0	63.8476154999807	63.947599099949
12383.75	0.0999782001599669	180	hunger	stimuli/non_foods\non-food_animate_lion.jpg	1	2	1	non-food_animate_lion	0	S	13	0	125	0		0	0	63.997618699912	64.0975969000719
12421.25	0.0999874998815358	181	hunger	stimuli/foods\chocolate_chip_cookies.jpg	1	2	1	chocolate_chip_cookies	1	F	3	0	27	0		0	0	64.1476123000029	64.2475997998845
12458.75	0.0999869999941438	182	hunger	stimuli/non_foods\non-food_animate_runner.jpg	1	2	1	non-food_animate_runner	0	D	2	0	142	0		0	0	64.2976069999859	64.39759399998
12496.25	0.0999857999850065	183	hunger	stimuli/non_foods\non-food_inanimate_suitcase.jpg	1	2	1	non-food_inanimate_suitcase	0	B	0	0	215	0		0	0	64.4476040999871	64.5475898999721
12533.75	0.0999779999256134	184	hunger	stimuli/non_foods\non-food_animate_llama.jpg	1	2	1	non-food_animate_llama	0	P	11	0	127	0		0	0	64.5976066000294	64.697584599955
12571.25	0.0999745998997241	185	hunger	stimuli/non_foods\non-food_animate_iguana.jpg	1	2	1	non-food_animate_iguana	0	T	14	0	121	0		0	0	64.7476075000595	64.8475820999593
12608.75	0.0999786001630127	186	hunger	stimuli/foods\coconut.jpg	1	2	1	coconut	1	M	9	0	33	0		0	0	64.8975962998811	64.9975749000441
12646.25	0.0999848002102226	187	hunger	stimuli/non_foods\non-food_animate_yellow_bug.jpg	1	2	1	non-food_animate_yellow_bug	0	F	3	0	155	0		0	0	65.0476032998413	65.1475881000515
12683.75	0.099986300105229	188	hunger	stimuli/foods\spinach.jpg	1	2	1	spinach	1	T	14	0	268	0		0	0	65.1976004999597	65.2975868000649
12721.25	0.0999898998998106	189	hunger	stimuli/foods\cream_donuts.jpg	1	2	1	cream_donuts	1	M	9	0	39	0		0	0	65.3475973999593	65.4475872998592
12758.75	0.0999819000717252	190	hunger	stimuli/foods\peas.jpg	1	2	1	peas	1	Z	18	0	240	0		0	0	65.4976031999104	65.5975850999821
12796.25	0.099989099893719	191	hunger	stimuli/foods\pear.jpg	1	2	1	pear	1	G	4	0	239	0		0	0	65.6475943999831	65.7475834998768
12833.75	0.0999843999743462	192	hunger	stimuli/foods\pomegranate.jpg	1	2	1	pomegranate	1	L	8	0	244	0		0	0	65.7975957999006	65.8975801998749
12871.25	0.0999787000473589	193	hunger	stimuli/foods\oven-roasted_tomatoes.jpg	1	2	1	oven-roasted_tomatoes	1	W	16	0	232	0		0	0	65.9475954999216	66.0475741999689
12908.75	0.099994600052014	194	hunger	stimuli/foods\chocolate_pudding.jpg	1	2	1	chocolate_pudding	1	T	14	0	29	0		0	0	66.0975854999851	66.1975801000372
12946.25	0.0999841000884771	195	hunger	stimuli/non_foods\non-food_animate_young_girl.jpg	1	2	1	non-food_animate_young_girl	0	V	15	0	157	0		0	0	66.2475920999423	66.3475762000307
12983.75	0.100033200113103	196	hunger	stimuli/foods\radish.jpg	1	2	1	radish	1	N	10	0	251	0		0	0	66.3975930998567	66.4976262999699
13021.25	0.0999517999589443	197	hunger	stimuli/foods\cereal.jpg	1	2	1	cereal	1	L	8	0	22	0		0	0	66.5476224999875	66.6475742999464
13058.75	0.0999843999743462	198	hunger	stimuli/foods\cooked_ham.jpg	1	2	1	cooked_ham	1	D	2	0	35	0		0	0	66.6975865999702	66.7975709999446
13096.25	0.0999863999895751	199	hunger	stimuli/foods\mango.jpg	1	2	1	mango	1	V	15	0	80	0		0	0	66.8475832999684	66.947569699958
13133.75	0.0999867999926209	200	hunger	stimuli/foods\roasted_chicken.jpg	1	2	1	roasted_chicken	1	N	10	0	261	0		0	0	66.9975831999909	67.0975699999835
13171.25	0.0999845000915229	201	hunger	stimuli/non_foods\non-food_inanimate_ring.jpg	1	2	1	non-food_inanimate_ring	0	X	17	0	203	0		0	0	67.1475770999677	67.2475616000593
13208.75	0.0999839000869542	202	hunger	stimuli/non_foods\non-food_inanimate_tulip.jpg	1	2	1	non-food_inanimate_tulip	0	T	14	0	224	0		0	0	67.2975862999447	67.3975702000316
13246.25	0.100006399909034	203	hunger	stimuli/non_foods\non-food_inanimate_shell.jpg	1	2	1	non-food_inanimate_shell	0	R	12	0	206	0		0	0	67.4475815000478	67.5475878999569
13283.75	0.099952699849382	204	hunger	stimuli/non_foods\non-food_animate_pigeon.jpg	1	2	1	non-food_animate_pigeon	0	G	4	0	136	0		0	0	67.5976120000705	67.6975646999199
13321.25	0.100009500049055	205	hunger	stimuli/non_foods\non-food_animate_deer.jpg	1	2	1	non-food_animate_deer	0	M	9	0	105	0		0	0	67.7475532998797	67.8475627999287
13358.75	0.0999878000002354	206	hunger	stimuli/non_foods\non-food_animate_chicken.jpg	1	2	1	non-food_animate_chicken	0	N	10	0	101	0		0	0	67.8975722000469	67.9975600000471
13396.25	0.0999890000093728	207	hunger	stimuli/foods\smoked_ham.jpg	1	2	1	smoked_ham	1	T	14	0	266	0		0	0	68.04757649987	68.1475654998794
13433.75	0.0999838998541236	208	hunger	stimuli/foods\raisins.jpg	1	2	1	raisins	1	Z	18	0	252	0		0	0	68.1975740999915	68.2975579998456
13471.25	0.0999720001127571	209	hunger	stimuli/non_foods\non-food_inanimate_cactus_pot_plant.jpg	1	2	1	non-food_inanimate_cactus_pot_plant	0	C	1	0	169	0		0	0	68.3475869998801	68.4475589999929
13508.75	0.0999914000276476	210	hunger	stimuli/foods\baked_cod_with_carrots_and_green_beans.jpg	1	2	1	baked_cod_with_carrots_and_green_beans	1	T	14	0	7	0		0	0	68.4975691998843	68.597560599912
13546.25	0.099984799977392	211	hunger	stimuli/non_foods\non-food_inanimate_fire_extinguisher.jpg	1	2	1	non-food_inanimate_fire_extinguisher	0	G	4	0	181	0		0	0	68.6475682999007	68.7475530998781
13583.75	0.0999890000093728	212	hunger	stimuli/foods\pepperoni_pizza.jpg	1	2	1	pepperoni_pizza	1	F	3	0	241	0		0	0	68.7975653000176	68.897554300027
13621.25	0.0999848998617381	213	hunger	stimuli/non_foods\non-food_animate_seahorse.jpg	1	2	1	non-food_animate_seahorse	0	H	5	0	145	0		0	0	68.9475650000386	69.0475498999003
13658.75	0.0999836998526007	214	hunger	stimuli/non_foods\non-food_inanimate_briefcase.jpg	1	2	1	non-food_inanimate_briefcase	0	S	13	0	163	0		0	0	69.0975663000718	69.1975499999244
13696.25	0.10000059986487	215	hunger	stimuli/foods\cooked_prawn.jpg	1	2	1	cooked_prawn	1	R	12	0	36	0		0	0	69.2475622000638	69.3475627999287
13733.75	0.0999867001082748	216	hunger	stimuli/foods\raw_ham.jpg	1	2	1	raw_ham	1	X	17	0	253	0		0	0	69.3975622998551	69.4975489999633
13771.25	0.0999884000048041	217	hunger	stimuli/foods\lettuce.jpg	1	2	1	lettuce	1	P	11	0	75	0		0	0	69.5475581998471	69.6475465998519
13808.75	0.099982799962163	218	hunger	stimuli/foods\fennel.jpg	1	2	1	fennel	1	R	12	0	47	0		0	0	69.6975592998788	69.7975420998409
13846.25	0.0999869001097977	219	hunger	stimuli/non_foods\non-food_inanimate_bowling_ball.jpg	1	2	1	non-food_inanimate_bowling_ball	0	T	14	0	162	0		0	0	69.8475557998754	69.9475426999852
13883.75	0.0999690999742597	220	hunger	stimuli/non_foods\non-food_animate_gorilla.jpg	1	2	1	non-food_animate_gorilla	0	W	16	0	116	0		0	0	69.9975721000228	70.0975411999971
13921.25	0.0999857999850065	221	hunger	stimuli/foods\brie.jpg	1	2	1	brie	1	S	13	0	12	0		0	0	70.1475543999113	70.2475401998963
13958.75	0.0999875999987125	222	hunger	stimuli/foods\beetroots.jpg	1	2	1	beetroots	1	N	10	0	10	0		0	0	70.297551699914	70.3975392999128
13996.25	0.0999859999865294	223	hunger	stimuli/non_foods\non-food_animate_dragonfly.jpg	1	2	1	non-food_animate_dragonfly	0	R	12	0	108	0		0	0	70.4475521999411	70.5475381999277
14033.75	0.0999910000246018	224	hunger	stimuli/foods\prawn.jpg	1	2	1	prawn	1	F	3	0	249	0		0	0	70.5975468999241	70.6975378999487
14071.25	0.0999839999713004	225	hunger	stimuli/foods\corncob.jpg	1	2	1	corncob	1	Z	18	0	37	0		0	0	70.7475520998705	70.8475360998418
14108.75	0.099980799946934	226	hunger	stimuli/non_foods\non-food_inanimate_nest.jpg	1	2	1	non-food_inanimate_nest	0	R	12	0	196	0		0	0	70.8975509000011	70.997531699948
14146.25	0.0999863999895751	227	hunger	stimuli/foods\clams.jpg	1	2	1	clams	1	N	10	0	32	0		0	0	71.0475450998638	71.1475314998534
14183.75	0.0999851000960916	228	hunger	stimuli/foods\asparagus.jpg	1	2	1	asparagus	1	K	7	0	4	0		0	0	71.1975469999015	71.2975320999976
14221.25	0.0999858998693526	229	hunger	stimuli/non_foods\non-food_inanimate_speakers.jpg	1	2	1	non-food_inanimate_speakers	0	J	6	0	212	0		0	0	71.3475399999879	71.4475258998573
14258.75	0.0999851000960916	230	hunger	stimuli/foods\salmon.jpg	1	2	1	salmon	1	H	5	0	264	0		0	0	71.4975421999115	71.5975273000076
14296.25	0.0999994000885636	231	hunger	stimuli/non_foods\non-food_inanimate_gloves.jpg	1	2	1	non-food_inanimate_gloves	0	Z	18	0	183	0		0	0	71.6475392999128	71.7475387000013
14333.75	0.099998899968341	232	hunger	stimuli/foods\brownie.jpg	1	2	1	brownie	1	W	16	0	14	0		0	0	71.7975469999947	71.897545899963
14371.25	0.0999930999241769	233	hunger	stimuli/non_foods\non-food_animate_cat.jpg	1	2	1	non-food_animate_cat	0	P	11	0	98	0		0	0	71.947536099935	72.0475291998591
14408.75	0.0999836002010852	234	hunger	stimuli/non_foods\non-food_animate_squirrel.jpg	1	2	1	non-food_animate_squirrel	0	B	0	0	150	0		0	0	72.097537699854	72.1975213000551
14446.25	0.0999875999987125	235	hunger	stimuli/non_foods\non-food_inanimate_toilet.jpg	1	2	1	non-food_inanimate_toilet	0	H	5	0	220	0		0	0	72.2475341998506	72.3475217998493
14483.75	0.0999869999941438	236	hunger	stimuli/foods\orange.jpg	1	2	1	orange	1	K	7	0	230	0		0	0	72.3975340998732	72.4975210998673
14521.25	0.099982799962163	237	hunger	stimuli/non_foods\non-food_inanimate_stapler.jpg	1	2	1	non-food_inanimate_stapler	0	W	16	0	213	0		0	0	72.5475331000052	72.6475158999674
14558.75	0.0999912000261247	238	hunger	stimuli/non_foods\non-food_inanimate_bush.jpg	1	2	1	non-food_inanimate_bush	0	D	2	0	167	0		0	0	72.6975289999973	72.7975202000234
14596.25	0.0999575001187623	239	hunger	stimuli/non_foods\non-food_animate_monkey.jpg	1	2	1	non-food_animate_monkey	0	T	14	0	130	0		0	0	72.8475545998663	72.947512099985
14633.75	0.0999899001326412	240	hunger	stimuli/non_foods\non-food_animate_camel.jpg	1	2	1	non-food_animate_camel	0	N	10	0	97	0		0	0	72.9975250998978	73.0975150000304
14671.25	0.0999960000626743	241	hunger	stimuli/foods\spring_onions.jpg	1	2	1	spring_onions	1	D	2	0	269	0		0	0	73.1475273999386	73.2475234000012
14708.75	0.0999875001143664	242	hunger	stimuli/foods\lemon_meringue_pie.jpg	1	2	1	lemon_meringue_pie	1	X	17	0	73	0		0	0	73.2975234999321	73.3975110000465
14746.25	0.100027600070462	243	hunger	stimuli/non_foods\non-food_animate_fox.jpg	1	2	1	non-food_animate_fox	0	L	8	0	112	0		0	0	73.4475262998603	73.5475538999308
14783.75	0.0999227999709547	244	hunger	stimuli/foods\peach.jpg	1	2	1	peach	1	O	22	1	238	0		0	0	73.597571299877	73.697494099848
14821.25	0.0999859999865294	245	hunger	stimuli/non_foods\non-food_inanimate_construction_helment.jpg	1	2	1	non-food_inanimate_construction_helment	0	X	17	0	175	0		0	0	73.7475133999251	73.8474993999116
14858.75	0.0999901001341641	246	hunger	stimuli/foods\lentils.jpg	1	2	1	lentils	1	N	10	0	74	0		0	0	73.8975112999324	73.9975014000665
14896.25	0.100007300032303	247	hunger	stimuli/non_foods\non-food_inanimate_wrench.jpg	1	2	1	non-food_inanimate_wrench	0	B	0	0	227	1	a	0.443225300172344	1	74.047498599859	74.1475058998913
14933.75	0.0999855000991374	248	hunger	stimuli/foods\ice_cream.jpg	1	2	1	ice_cream	1	Z	18	0	68	0		0	0	74.1975117998663	74.2974972999655
14971.25	0.100001000100747	249	hunger	stimuli/foods\chocolate_pralines.jpg	1	2	1	chocolate_pralines	1	W	16	0	28	0		0	0	74.3475003999192	74.44750140002
15008.75	0.0999875999987125	250	hunger	stimuli/non_foods\non-food_animate_killer_whale.jpg	1	2	1	non-food_animate_killer_whale	0	T	14	0	123	0		0	0	74.4975103000179	74.5974979000166
15046.25	0.0999724001158029	251	hunger	stimuli/foods\spaghetti_with_meat_sauce.jpg	1	2	1	spaghetti_with_meat_sauce	1	R	12	0	267	0		0	0	74.6475277999416	74.7475002000574
15083.75	0.0999847000930458	252	hunger	stimuli/non_foods\non-food_inanimate_guitar.jpg	1	2	1	non-food_inanimate_guitar	0	S	13	0	185	0		0	0	74.7975124998484	74.8974971999414
15121.25	0.0999849999789149	253	hunger	stimuli/non_foods\non-food_inanimate_chair.jpg	1	2	1	non-food_inanimate_chair	0	W	16	0	172	0		0	0	74.9475110999774	75.0474960999563
15158.75	0.0999836002010852	254	hunger	stimuli/foods\cabbage.jpg	1	2	1	cabbage	1	G	4	0	16	0		0	0	75.0975070998538	75.1974907000549
15196.25	0.0999937001615763	255	hunger	stimuli/non_foods\non-food_animate_donkey.jpg	1	2	1	non-food_animate_donkey	0	L	8	0	107	0		0	0	75.247508399887	75.3475021000486
15233.75	0.0999656999483705	256	hunger	stimuli/foods\croissant.jpg	1	2	1	croissant	1	T	14	0	40	0		0	0	75.3975251999218	75.4974908998702
15271.25	0.0999867001082748	257	hunger	stimuli/foods\watermelon.jpg	1	2	1	watermelon	1	S	13	0	279	0		0	0	75.5475059999153	75.6474927000236
15308.75	0.0999821999575943	258	hunger	stimuli/non_foods\non-food_inanimate_cupboard.jpg	1	2	1	non-food_inanimate_cupboard	0	N	10	0	177	0		0	0	75.6975038999226	75.7974860998802
15346.25	0.0999954000581056	259	hunger	stimuli/non_foods\non-food_inanimate_desk.jpg	1	2	1	non-food_inanimate_desk	0	R	12	0	178	0		0	0	75.847494199872	75.9474895999301
15383.75	0.0999817000702024	260	hunger	stimuli/non_foods\non-food_animate_elephant.jpg	1	2	1	non-food_animate_elephant	0	H	5	0	111	1	a	0	0	75.9975024999585	76.0974842000287
15421.25	0.0999878998845816	261	hunger	stimuli/non_foods\non-food_inanimate_watering_can.jpg	1	2	1	non-food_inanimate_watering_can	0	J	6	0	225	0		0	0	76.1474983000662	76.2474861999508
15458.75	0.0999867999926209	262	hunger	stimuli/non_foods\non-food_inanimate_buds.jpg	1	2	1	non-food_inanimate_buds	0	O	22	1	166	0		0	0	76.2974975998513	76.397484399844
15496.25	0.0999853999819607	263	hunger	stimuli/non_foods\non-food_animate_lizard.jpg	1	2	1	non-food_animate_lizard	0	C	1	0	126	0		0	0	76.4474968998693	76.5474822998513
15533.75	0.0999905001372099	264	hunger	stimuli/non_foods\non-food_inanimate_bicycle.jpg	1	2	1	non-food_inanimate_bicycle	0	B	0	0	161	0		0	0	76.5974929998629	76.6974835000001
15571.25	0.100001899991184	265	hunger	stimuli/non_foods\non-food_animate_student_female.jpg	1	2	1	non-food_animate_student_female	0	W	16	0	151	0		0	0	76.747479399899	76.8474812998902
15608.75	0.099986599991098	266	hunger	stimuli/foods\hamburger.jpg	1	2	1	hamburger	1	Z	18	0	64	0		0	0	76.8974903000053	76.9974768999964
15646.25	0.100007399916649	267	hunger	stimuli/foods\avocado.jpg	1	2	1	avocado	1	K	7	0	5	0		0	0	77.047496000072	77.1475033999886
15683.75	0.0999482001643628	268	hunger	stimuli/foods\mussels.jpg	1	2	1	mussels	1	R	12	0	86	0		0	0	77.1975266998634	77.2974749000277
15721.25	0.0999871999956667	269	hunger	stimuli/foods\toasted_bread_with_tomatoes.jpg	1	2	1	toasted_bread_with_tomatoes	1	K	7	0	275	0		0	0	77.34748700005	77.4474742000457
15758.75	0.0999902999028563	270	hunger	stimuli/foods\raw_sausage.jpg	1	2	1	raw_sausage	1	R	12	0	254	0		0	0	77.4974861999508	77.5974764998537
15796.25	0.0999855000991374	271	hunger	stimuli/foods\apple.jpg	1	2	1	apple	1	K	7	0	1	0		0	0	77.647484399844	77.7474698999431
15833.75	0.099989099893719	272	hunger	stimuli/foods\lime.jpg	1	2	1	lime	1	F	3	0	76	0		0	0	77.7974811999593	77.897470299853
15871.25	0.0999821999575943	273	hunger	stimuli/foods\rockmelon.jpg	1	2	1	rockmelon	1	R	12	0	262	0		0	0	77.9474849000107	78.0474670999683
15908.75	0.0999857999850065	274	hunger	stimuli/foods\rice_cake.jpg	1	2	1	rice_cake	1	G	4	0	258	0		0	0	78.0974816000089	78.1974673999939
15946.25	0.0999857999850065	275	hunger	stimuli/foods\taco.jpg	1	2	1	taco	1	Z	18	0	274	0		0	0	78.2474817999173	78.3474675999023
15983.75	0.0999851999804378	276	hunger	stimuli/non_foods\non-food_animate_slug.jpg	1	2	1	non-food_animate_slug	0	B	0	0	148	0		0	0	78.3974780999124	78.4974632998928
16021.25	0.0999825000762939	277	hunger	stimuli/foods\green_olives.jpg	1	2	1	green_olives	1	K	7	0	62	0		0	0	78.5474767999258	78.6474593000021
16058.75	0.0999910999089479	278	hunger	stimuli/foods\risotto_with_peas_and_asparagus_tips.jpg	1	2	1	risotto_with_peas_and_asparagus_tips	1	H	5	0	259	0		0	0	78.6974782999605	78.7974693998694
16096.25	0.0999857001006603	279	hunger	stimuli/foods\garlic.jpg	1	2	1	garlic	1	R	12	0	56	0		0	0	78.8474860999268	78.9474718000274
16517	0.099962400039658	280	hunger	stimuli/non_foods\non-food_inanimate_horn.jpg	1	3	1	non-food_inanimate_horn	0	Z	18	0	190	0		0	0	80.5308024999686	80.6307649000082
16554.5	0.0999841999728233	281	hunger	stimuli/foods\banana.jpg	1	3	1	banana	1	B	0	0	9	0		0	0	80.680791300023	80.7807754999958
16592	0.0999842998571694	282	hunger	stimuli/foods\mandarin.jpg	1	3	1	mandarin	1	Z	18	0	79	0		0	0	80.830791400047	80.9307756999042
16629.5	0.0999783999286592	283	hunger	stimuli/foods\cucumber.jpg	1	3	1	cucumber	1	L	8	0	41	0		0	0	80.9807915000711	81.0807698999997
16667	0.0999967001844198	284	hunger	stimuli/foods\frankfurter_and_provolone_salad.jpg	1	3	1	frankfurter_and_provolone_salad	1	F	3	0	49	0		0	0	81.130779299885	81.2307760000695
16704.5	0.0999709002207965	285	hunger	stimuli/non_foods\non-food_inanimate_drum_set.jpg	1	3	1	non-food_inanimate_drum_set	0	W	16	0	179	0		0	0	81.2808019998483	81.3807729000691
16742	0.0999872998800129	286	hunger	stimuli/non_foods\non-food_animate_dragonfly.jpg	1	3	1	non-food_animate_dragonfly	0	R	12	0	108	0		0	0	81.4307756000198	81.5307628998999
16779.5	0.0999765999149531	287	hunger	stimuli/foods\brussel_sprouts.jpg	1	3	1	brussel_sprouts	1	Z	18	0	15	0		0	0	81.5807775000576	81.6807540999725
16817	0.0999592000152916	288	hunger	stimuli/foods\ice_cream.jpg	1	3	1	ice_cream	1	X	17	0	68	0		0	0	81.7307861999143	81.8307453999296
16854.5	0.0999949001707137	289	hunger	stimuli/non_foods\non-food_animate_mammoth.jpg	1	3	1	non-food_animate_mammoth	0	R	12	0	128	0		0	0	81.88077469985	81.9807696000207
16892	0.100002199877053	290	hunger	stimuli/non_foods\non-food_inanimate_jeans.jpg	1	3	1	non-food_inanimate_jeans	0	C	1	0	191	0		0	0	82.0307642000262	82.1307663999032
16929.5	0.0999724001158029	291	hunger	stimuli/non_foods\non-food_animate_student_female.jpg	1	3	1	non-food_animate_student_female	0	D	2	0	151	0		0	0	82.1807837998495	82.2807561999653
16967	0.100019000004977	292	hunger	stimuli/foods\cannoli.jpg	1	3	1	cannoli	1	K	7	0	17	1	a	0	0	82.3307804998476	82.4307994998526
17004.5	0.0999853000976145	293	hunger	stimuli/non_foods\non-food_inanimate_short_sleeved_shirt.jpg	1	3	1	non-food_inanimate_short_sleeved_shirt	0	H	5	0	207	0		0	0	82.4807767998427	82.5807620999403
17042	0.0999845999758691	294	hunger	stimuli/non_foods\non-food_animate_horse.jpg	1	3	1	non-food_animate_horse	0	C	1	0	119	0		0	0	82.6307737999596	82.7307583999354
17079.5	0.0999915997963399	295	hunger	stimuli/foods\risotto_with_zucchini.jpg	1	3	1	risotto_with_zucchini	1	S	13	0	260	0		0	0	82.7807680000551	82.8807595998514
17117	0.099990300135687	296	hunger	stimuli/non_foods\non-food_animate_baby_sitting.jpg	1	3	1	non-food_animate_baby_sitting	0	D	2	0	93	0		0	0	82.9307706998661	83.0307610000018
17154.5	0.0999670999590307	297	hunger	stimuli/foods\meatballs.jpg	1	3	1	meatballs	1	Z	18	0	81	0		0	0	83.0807894999161	83.1807565998752
17192	0.0999877001158893	298	hunger	stimuli/foods\asparagus.jpg	1	3	1	asparagus	1	V	15	0	4	0		0	0	83.230768899899	83.3307566000149
17229.5	0.0999878998845816	299	hunger	stimuli/non_foods\non-food_inanimate_sun_flower.jpg	1	3	1	non-food_inanimate_sun_flower	0	D	2	0	216	0		0	0	83.3807655000128	83.4807533998974
17267	0.0999879001174122	300	hunger	stimuli/foods\lemon.jpg	1	3	1	lemon	1	S	13	0	72	0		0	0	83.5307622998953	83.6307502000127
17304.5	0.0999839000869542	301	hunger	stimuli/non_foods\non-food_inanimate_nettle.jpg	1	3	1	non-food_inanimate_nettle	0	X	17	0	197	0		0	0	83.6807633999269	83.7807473000139
17342	0.0999834001995623	302	hunger	stimuli/non_foods\non-food_inanimate_soccer_ball.jpg	1	3	1	non-food_inanimate_soccer_ball	0	Z	18	0	210	0		0	0	83.8307655998506	83.9307490000501
17379.5	0.099986599991098	303	hunger	stimuli/non_foods\non-food_animate_lizard.jpg	1	3	1	non-food_animate_lizard	0	T	14	0	126	0		0	0	83.9807621999644	84.0807487999555
17417	0.0999882000032812	304	hunger	stimuli/non_foods\non-food_inanimate_teddy_bear.jpg	1	3	1	non-food_inanimate_teddy_bear	0	X	17	0	218	0		0	0	84.1307564000599	84.2307446000632
17454.5	0.0999718999955803	305	hunger	stimuli/foods\chilli.jpg	1	3	1	chilli	1	V	15	0	25	0		0	0	84.280772499973	84.3807443999685
17492	0.099984799977392	306	hunger	stimuli/foods\almonds.jpg	1	3	1	almonds	1	C	1	0	0	0		0	0	84.4307565998752	84.5307413998526
17529.5	0.0999861999880522	307	hunger	stimuli/foods\spring_onions.jpg	1	3	1	spring_onions	1	T	14	0	269	0		0	0	84.5807560998946	84.6807422998827
17567	0.100003500003368	308	hunger	stimuli/non_foods\non-food_animate_runner.jpg	1	3	1	non-food_animate_runner	0	P	11	0	142	0		0	0	84.7307545000222	84.8307580000255
17604.5	0.0999436001293361	309	hunger	stimuli/non_foods\non-food_inanimate_bush.jpg	1	3	1	non-food_inanimate_bush	0	B	0	0	167	0		0	0	84.8807939998806	84.9807376000099
17642	0.0999797000549734	310	hunger	stimuli/non_foods\non-food_inanimate_toy_airplane.jpg	1	3	1	non-food_inanimate_toy_airplane	0	S	13	0	222	0		0	0	85.0307596998755	85.1307393999305
17679.5	0.0999940999317914	311	hunger	stimuli/foods\chestnut.jpg	1	3	1	chestnut	1	P	11	0	24	0		0	0	85.1807494000532	85.280743499985
17717	0.099980799946934	312	hunger	stimuli/foods\coffee_beans.jpg	1	3	1	coffee_beans	1	T	14	0	34	0		0	0	85.3307529999875	85.4307337999344
17754.5	0.0999855999834836	313	hunger	stimuli/non_foods\non-food_inanimate_desk.jpg	1	3	1	non-food_inanimate_desk	0	N	10	0	178	0		0	0	85.4807476999704	85.5807332999539
17792	0.0999850002117455	314	hunger	stimuli/foods\cinnamon_sroll.jpg	1	3	1	cinnamon_sroll	1	W	16	0	31	0		0	0	85.6307450998574	85.7307301000692
17829.5	0.099980799946934	315	hunger	stimuli/foods\baked_lamb_with_potatoes.jpg	1	3	1	baked_lamb_with_potatoes	1	B	0	0	8	0		0	0	85.7807420999743	85.8807228999212
17867	0.0999706999864429	316	hunger	stimuli/non_foods\non-food_inanimate_bicycle.jpg	1	3	1	non-food_inanimate_bicycle	0	S	13	0	161	0		0	0	85.9307631000411	86.0307338000275
17904.5	0.0999815000686795	317	hunger	stimuli/non_foods\non-food_animate_snail.jpg	1	3	1	non-food_animate_snail	0	R	12	0	149	0		0	0	86.0807469999418	86.1807285000104
17942	0.0999817999545485	318	hunger	stimuli/non_foods\non-food_animate_raccoon.jpg	1	3	1	non-food_animate_raccoon	0	W	16	0	139	0		0	0	86.2307432000525	86.3307250000071
17979.5	0.0999861999880522	319	hunger	stimuli/non_foods\non-food_inanimate_tree.jpg	1	3	1	non-food_inanimate_tree	0	Z	18	0	223	0		0	0	86.3807361000217	86.4807223000098
18017	0.100008400157094	320	hunger	stimuli/foods\coconut.jpg	1	3	1	coconut	1	L	8	0	33	0		0	0	86.5307401998434	86.6307486000005
18054.5	0.0999686999712139	321	hunger	stimuli/foods\cooked_prawn.jpg	1	3	1	cooked_prawn	1	W	16	0	36	0		0	0	86.6807546999771	86.7807233999483
18092	0.0999890000093728	322	hunger	stimuli/non_foods\non-food_inanimate_hammer.jpg	1	3	1	non-food_inanimate_hammer	0	Z	18	0	186	0		0	0	86.8307316000573	86.9307206000667
18129.5	0.0999888000078499	323	hunger	stimuli/non_foods\non-food_animate_llama.jpg	1	3	1	non-food_animate_llama	0	B	0	0	127	0		0	0	86.9807322998531	87.080721099861
18167	0.0999890000093728	324	hunger	stimuli/non_foods\non-food_animate_young_boy.jpg	1	3	1	non-food_animate_young_boy	0	G	4	0	156	0		0	0	87.1307295998558	87.2307185998652
18204.5	0.0999881001189351	325	hunger	stimuli/foods\cereal.jpg	1	3	1	cereal	1	H	5	0	22	0		0	0	87.2807302998845	87.3807184000034
18242	0.0999855999834836	326	hunger	stimuli/non_foods\non-food_inanimate_fern.jpg	1	3	1	non-food_inanimate_fern	0	R	12	0	180	0		0	0	87.4307315999176	87.5307171999011
18279.5	0.0999900000169873	327	hunger	stimuli/foods\cupcake.jpg	1	3	1	cupcake	1	D	2	0	42	0		0	0	87.580724200001	87.680714200018
18317	0.0999869999941438	328	hunger	stimuli/foods\chocolate_chip_cookies.jpg	1	3	1	chocolate_chip_cookies	1	F	3	0	27	0		0	0	87.7307265000418	87.8307135000359
18354.5	0.099984799977392	329	hunger	stimuli/non_foods\non-food_inanimate_toilet.jpg	1	3	1	non-food_inanimate_toilet	0	W	16	0	220	0		0	0	87.8807246000506	87.980709400028
18392	0.0999738001264632	330	hunger	stimuli/non_foods\non-food_animate_giraffe.jpg	1	3	1	non-food_animate_giraffe	0	M	9	0	115	0		0	0	88.0307324999012	88.1307063000277
18429.5	0.0999837000854313	331	hunger	stimuli/foods\carrot.jpg	1	3	1	carrot	1	W	16	0	19	0		0	0	88.1807222999632	88.2807060000487
18467	0.100002000108361	332	hunger	stimuli/non_foods\non-food_animate_seal.jpg	1	3	1	non-food_animate_seal	0	J	6	0	146	0		0	0	88.3307242998853	88.4307262999937
18504.5	0.0999513999558985	333	hunger	stimuli/foods\steak.jpg	1	3	1	steak	1	H	5	0	270	0		0	0	88.4807549000252	88.5807062999811
18542	0.0999942000489682	334	hunger	stimuli/non_foods\non-food_animate_bee.jpg	1	3	1	non-food_animate_bee	0	C	1	0	95	0		0	0	88.6307182000019	88.7307124000508
18579.5	0.0999911001417786	335	hunger	stimuli/foods\savory_pie.jpg	1	3	1	savory_pie	1	Z	18	0	265	0		0	0	88.7807169998996	88.8807081000414
18617	0.0999889001250267	336	hunger	stimuli/non_foods\non-food_inanimate_cap.jpg	1	3	1	non-food_inanimate_cap	0	R	12	0	171	0		0	0	88.930716099916	89.0307050000411
18654.5	0.0999983998481184	337	hunger	stimuli/non_foods\non-food_inanimate_socks.jpg	1	3	1	non-food_inanimate_socks	0	W	16	0	211	0		0	0	89.0806990000419	89.1806973998901
18692	0.099989099893719	338	hunger	stimuli/non_foods\non-food_inanimate_headphones.jpg	1	3	1	non-food_inanimate_headphones	0	D	2	0	188	0		0	0	89.2307122000493	89.330701299943
18729.5	0.09998709987849	339	hunger	stimuli/foods\spaghetti_with_meat_sauce.jpg	1	3	1	spaghetti_with_meat_sauce	1	W	16	0	267	0		0	0	89.3807115000673	89.4806985999458
18767	0.0999875001143664	340	hunger	stimuli/foods\pepperoni_pizza.jpg	1	3	1	pepperoni_pizza	1	Z	18	0	241	0		0	0	89.5307078999467	89.6306954000611
18804.5	0.0999884998891503	341	hunger	stimuli/foods\capsicum.jpg	1	3	1	capsicum	1	K	7	0	18	0		0	0	89.6807051000651	89.7806935999542
18842	0.0999814998358488	342	hunger	stimuli/non_foods\non-food_animate_sea_lion.jpg	1	3	1	non-food_animate_sea_lion	0	F	3	0	143	0		0	0	89.8307111000177	89.9306925998535
18879.5	0.0999881001189351	343	hunger	stimuli/foods\honey.jpg	1	3	1	honey	1	W	16	0	66	0		0	0	89.9807040998712	90.0806921999902
18917	0.0999745998997241	344	hunger	stimuli/non_foods\non-food_inanimate_folding_chair.jpg	1	3	1	non-food_inanimate_folding_chair	0	D	2	0	182	0		0	0	90.1307328999974	90.2307074998971
18954.5	0.0999644000548869	345	hunger	stimuli/non_foods\non-food_animate_young_girl.jpg	1	3	1	non-food_animate_young_girl	0	G	4	0	157	0		0	0	90.2807239999529	90.3806884000078
18992	0.0999887001235038	346	hunger	stimuli/foods\pomegranate.jpg	1	3	1	pomegranate	1	X	17	0	244	0		0	0	90.4306989999022	90.5306877000257
19029.5	0.0999871999956667	347	hunger	stimuli/foods\prawn.jpg	1	3	1	prawn	1	S	13	0	249	0		0	0	90.5807006999385	90.6806878999341
19067	0.09998430009	348	hunger	stimuli/non_foods\non-food_animate_peacock.jpg	1	3	1	non-food_animate_peacock	0	G	4	0	134	0		0	0	90.7306991999503	90.8306835000403
19104.5	0.0999881001189351	349	hunger	stimuli/non_foods\non-food_animate_tortoise.jpg	1	3	1	non-food_animate_tortoise	0	M	9	0	153	0		0	0	90.8806942999363	90.9806824000552
19142	0.0999801999423653	350	hunger	stimuli/foods\strawberry.jpg	1	3	1	strawberry	1	X	17	0	272	0		0	0	91.0307022000197	91.1306823999621
19179.5	0.0999983001966029	351	hunger	stimuli/foods\swordfish.jpg	1	3	1	swordfish	1	D	2	0	273	0		0	0	91.1806941998657	91.2806925000623
19217	0.0999671998433769	352	hunger	stimuli/non_foods\non-food_animate_yellow_bug.jpg	1	3	1	non-food_animate_yellow_bug	0	Z	18	0	155	0		0	0	91.330695600016	91.4306627998594
19254.5	0.0999871001113206	353	hunger	stimuli/foods\rockmelon.jpg	1	3	1	rockmelon	1	T	14	0	262	0		0	0	91.480692199897	91.5806793000083
19292	0.099990300135687	354	hunger	stimuli/foods\peach.jpg	1	3	1	peach	1	C	1	0	238	0		0	0	91.6306870998815	91.7306774000172
19329.5	0.0999932999256998	355	hunger	stimuli/non_foods\non-food_inanimate_button.jpg	1	3	1	non-food_inanimate_button	0	T	14	0	168	0		0	0	91.7806901999284	91.8806834998541
19367	0.0999651998281479	356	hunger	stimuli/non_foods\non-food_inanimate_rope.jpg	1	3	1	non-food_inanimate_rope	0	U	23	1	204	0		0	0	91.930719200056	92.0306843998842
19404.5	0.0999763000290841	357	hunger	stimuli/non_foods\non-food_animate_dolphin.jpg	1	3	1	non-food_animate_dolphin	0	P	11	0	106	0		0	0	92.0806964000221	92.1806727000512
19442	0.0999789000488818	358	hunger	stimuli/non_foods\non-food_animate_rhino.jpg	1	3	1	non-food_animate_rhino	0	L	8	0	141	0		0	0	92.2306896999944	92.3306686000433
19479.5	0.0999884000048041	359	hunger	stimuli/foods\cherry.jpg	1	3	1	cherry	1	G	4	0	23	0		0	0	92.3806801999453	92.4806685999501
19517	0.0999868998769671	360	hunger	stimuli/foods\wafer.jpg	1	3	1	wafer	1	L	8	0	277	0		0	0	92.5306814999785	92.6306683998555
19554.5	0.0999906999059021	361	hunger	stimuli/non_foods\non-food_inanimate_lighter.jpg	1	3	1	non-food_inanimate_lighter	0	T	14	0	193	1	a	0.752542299916968	1	92.6806755999569	92.7806662998628
19592	0.09998709987849	362	hunger	stimuli/foods\lime.jpg	1	3	1	lime	1	X	17	0	76	0		0	0	92.8306787000038	92.9306657998823
19629.5	0.0999876998830587	363	hunger	stimuli/non_foods\non-food_animate_cow.jpg	1	3	1	non-food_animate_cow	0	P	11	0	103	0		0	0	92.9806784000248	93.0806660999078
19667	0.0999919001478702	364	hunger	stimuli/foods\fruit_pie.jpg	1	3	1	fruit_pie	1	F	3	0	54	0		0	0	93.1306761999149	93.2306681000628
19704.5	0.0999842998571694	365	hunger	stimuli/non_foods\non-food_inanimate_couch.jpg	1	3	1	non-food_inanimate_couch	0	G	4	0	176	0		0	0	93.2806784000713	93.3806626999285
19742	0.0999869999941438	366	hunger	stimuli/foods\toasted_bread_with_tomatoes.jpg	1	3	1	toasted_bread_with_tomatoes	1	F	3	0	275	0		0	0	93.4306723000482	93.5306593000423
19779.5	0.100010300055146	367	hunger	stimuli/non_foods\non-food_animate_Asian_man.jpg	1	3	1	non-food_animate_Asian_man	0	T	14	0	88	0		0	0	93.5806690999307	93.6806793999858
19817	0.0999781000427902	368	hunger	stimuli/foods\pancakes.jpg	1	3	1	pancakes	1	F	3	0	234	0		0	0	93.7306792999152	93.830657399958
19854.5	0.0999882998876274	369	hunger	stimuli/non_foods\non-food_inanimate_tulip.jpg	1	3	1	non-food_inanimate_tulip	0	X	17	0	224	0		0	0	93.8806692999788	93.9806575998664
19892	0.0999838998541236	370	hunger	stimuli/foods\pear.jpg	1	3	1	pear	1	D	2	0	239	0		0	0	94.0306726000272	94.1306564998813
19929.5	0.0999851000960916	371	hunger	stimuli/foods\clams.jpg	1	3	1	clams	1	V	15	0	32	0		0	0	94.1806671998929	94.280652299989
19967	0.0999900000169873	372	hunger	stimuli/foods\rice_cake.jpg	1	3	1	rice_cake	1	N	10	0	258	0		0	0	94.3306632000022	94.4306532000192
20004.5	0.0999904000200331	373	hunger	stimuli/non_foods\non-food_inanimate_chair.jpg	1	3	1	non-food_inanimate_chair	0	L	8	0	172	0		0	0	94.4806641999166	94.5806545999367
20042	0.09997220011428	374	hunger	stimuli/non_foods\non-food_animate_cat.jpg	1	3	1	non-food_animate_cat	0	G	4	0	98	0		0	0	94.6306665998418	94.7306387999561
20079.5	0.100000400096178	375	hunger	stimuli/foods\oyster.jpg	1	3	1	oyster	1	V	15	0	233	0		0	0	94.7806496999692	94.8806501000654
20117	0.0999923998024315	376	hunger	stimuli/foods\pickles.jpg	1	3	1	pickles	1	K	7	0	242	0		0	0	94.9306574000511	95.0306497998536
20154.5	0.0999880998861045	377	hunger	stimuli/foods\potatoes.jpg	1	3	1	potatoes	1	C	1	0	248	0		0	0	95.0806561000645	95.1806441999506
20192	0.0999836998526007	378	hunger	stimuli/non_foods\non-food_inanimate_buds.jpg	1	3	1	non-food_inanimate_buds	0	P	11	0	166	0		0	0	95.2306584999897	95.3306421998423
20229.5	0.100004399893805	379	hunger	stimuli/non_foods\non-food_animate_mouse.jpg	1	3	1	non-food_animate_mouse	0	V	15	0	131	0		0	0	95.3806541999802	95.480658599874
20267	0.0999465000350028	380	hunger	stimuli/non_foods\non-food_animate_ram.jpg	1	3	1	non-food_animate_ram	0	N	10	0	140	0		0	0	95.5306881000288	95.6306346000638
20304.5	0.0999859999865294	381	hunger	stimuli/foods\nectarine.jpg	1	3	1	nectarine	1	T	14	0	87	0		0	0	95.6806522000115	95.7806381999981
20342	0.0999861001037061	382	hunger	stimuli/non_foods\non-food_animate_pigeon.jpg	1	3	1	non-food_animate_pigeon	0	R	12	0	136	0		0	0	95.8306511999108	95.9306373000145
20379.5	0.0999869001097977	383	hunger	stimuli/non_foods\non-food_inanimate_leaf.jpg	1	3	1	non-food_inanimate_leaf	0	H	5	0	192	0		0	0	95.9806504999287	96.0806374000385
20417	0.099988300120458	384	hunger	stimuli/non_foods\non-food_animate_caterpillar.jpg	1	3	1	non-food_animate_caterpillar	0	R	12	0	99	0		0	0	96.1306469999254	96.2306353000458
20454.5	0.0999862002208829	385	hunger	stimuli/foods\fried_calamari.jpg	1	3	1	fried_calamari	1	H	5	0	50	0		0	0	96.2806481998414	96.3806344000623
20492	0.0999849000945687	386	hunger	stimuli/foods\cabbage.jpg	1	3	1	cabbage	1	R	12	0	16	0		0	0	96.4306454998441	96.5306303999387
20529.5	0.099990600021556	387	hunger	stimuli/foods\rice.jpg	1	3	1	rice	1	N	10	0	257	0		0	0	96.5806658999063	96.6806564999279
20567	0.0999884998891503	388	hunger	stimuli/non_foods\non-food_animate_dachshund.jpg	1	3	1	non-food_animate_dachshund	0	K	7	0	104	0		0	0	96.7306441999972	96.8306326998863
20604.5	0.0999890000093728	389	hunger	stimuli/non_foods\non-food_animate_skunk.jpg	1	3	1	non-food_animate_skunk	0	L	8	0	147	0		0	0	96.880639199866	96.9806281998754
20642	0.0999864998739213	390	hunger	stimuli/foods\red_beans.jpg	1	3	1	red_beans	1	Z	18	0	255	0		0	0	97.0306430000346	97.1306294999085
20679.5	0.099998899968341	391	hunger	stimuli/foods\potato_and_green_bean_salad.jpg	1	3	1	potato_and_green_bean_salad	1	X	17	0	246	0		0	0	97.1806413999293	97.2806402998976
20717	0.0999481999315321	392	hunger	stimuli/foods\cracker.jpg	1	3	1	cracker	1	S	13	0	38	0		0	0	97.3306750999764	97.4306232999079
20754.5	0.0999900999013335	393	hunger	stimuli/non_foods\non-food_animate_iguana.jpg	1	3	1	non-food_animate_iguana	0	P	11	0	121	0		0	0	97.4806351000443	97.5806251999456
20792	0.0999882000032812	394	hunger	stimuli/foods\fennel.jpg	1	3	1	fennel	1	F	3	0	47	0		0	0	97.6306320999283	97.7306202999316
20829.5	0.0999902000185102	395	hunger	stimuli/non_foods\non-food_animate_owl.jpg	1	3	1	non-food_animate_owl	0	Z	18	0	132	0		0	0	97.7806329999585	97.880623199977
20867	0.0999861999880522	396	hunger	stimuli/foods\corncob.jpg	1	3	1	corncob	1	V	15	0	37	0		0	0	97.9306324999779	98.030618699966
20904.5	0.0999859999865294	397	hunger	stimuli/foods\papaya.jpg	1	3	1	papaya	1	C	1	0	235	0		0	0	98.0806302998681	98.1806162998546
20942	0.0999916999135166	398	hunger	stimuli/foods\beetroots.jpg	1	3	1	beetroots	1	J	6	0	10	0		0	0	98.2306270999834	98.3306187998969
20979.5	0.0999743000138551	399	hunger	stimuli/foods\cream_donuts.jpg	1	3	1	cream_donuts	1	N	10	0	39	0		0	0	98.380638099974	98.4806123999879
21017	0.0999888000078499	400	hunger	stimuli/foods\fries.jpg	1	3	1	fries	1	K	7	0	52	0		0	0	98.5306261999067	98.6306149999145
21054.5	0.0999859999865294	401	hunger	stimuli/foods\blackberry.jpg	1	3	1	blackberry	1	M	9	0	11	0		0	0	98.6806274000555	98.7806134000421
21092	0.0999849000945687	402	hunger	stimuli/non_foods\non-food_inanimate_nailpolish.jpg	1	3	1	non-food_inanimate_nailpolish	0	P	11	0	195	0		0	0	98.8306231999304	98.930608100025
21129.5	0.0999975001905113	403	hunger	stimuli/foods\celery.jpg	1	3	1	celery	1	Z	18	0	21	0		0	0	98.9806261998601	99.0806237000506
21167	0.0999668000731617	404	hunger	stimuli/non_foods\non-food_inanimate_stoplight.jpg	1	3	1	non-food_inanimate_stoplight	0	C	1	0	214	0		0	0	99.1306397998706	99.2306065999437
21204.5	0.0999894000124186	405	hunger	stimuli/non_foods\non-food_animate_alligator.jpg	1	3	1	non-food_animate_alligator	0	N	10	0	90	0		0	0	99.2806191998534	99.3806085998658
21242	0.0999904000200331	406	hunger	stimuli/foods\salmon.jpg	1	3	1	salmon	1	K	7	0	264	0		0	0	99.4306169999763	99.5306073999964
21279.5	0.0999790001660585	407	hunger	stimuli/foods\risotto_with_peas_and_asparagus_tips.jpg	1	3	1	risotto_with_peas_and_asparagus_tips	1	P	11	0	259	0		0	0	99.5806270998437	99.6806061000098
21317	0.100008099805564	408	hunger	stimuli/non_foods\non-food_animate_chicken.jpg	1	3	1	non-food_animate_chicken	0	K	7	0	101	0		0	0	99.7305892000441	99.8305972998496
21354.5	0.0999951001722366	409	hunger	stimuli/non_foods\non-food_inanimate_skateboard.jpg	1	3	1	non-food_inanimate_skateboard	0	O	22	1	208	0		0	0	99.8806063998491	99.9806015000213
21392	0.0999796001706272	410	hunger	stimuli/foods\brie.jpg	1	3	1	brie	1	X	17	0	12	0		0	0	100.030617599841	100.130597200012
21429.5	0.0999888000078499	411	hunger	stimuli/non_foods\non-food_inanimate_tent.jpg	1	3	1	non-food_inanimate_tent	0	Z	18	0	219	0		0	0	100.180610799929	100.280599599937
21467	0.0999901001341641	412	hunger	stimuli/foods\roasted_chicken.jpg	1	3	1	roasted_chicken	1	D	2	0	261	0		0	0	100.330608499935	100.430598600069
21504.5	0.0999813000671566	413	hunger	stimuli/foods\egg.jpg	1	3	1	egg	1	W	16	0	45	0		0	0	100.480612999992	100.58059430006
21542	0.099990300135687	414	hunger	stimuli/non_foods\non-food_inanimate_gloves.jpg	1	3	1	non-food_inanimate_gloves	0	S	13	0	183	1	a	0.743198900017887	1	100.630606399849	100.730596699985
21579.5	0.0999781999271363	415	hunger	stimuli/non_foods\non-food_animate_camel.jpg	1	3	1	non-food_animate_camel	0	K	7	0	97	0		0	0	100.780630100053	100.88060829998
21617	0.0999636000487953	416	hunger	stimuli/non_foods\non-food_inanimate_speakers.jpg	1	3	1	non-food_inanimate_speakers	0	J	6	0	212	0		0	0	100.930633199867	101.030596799916
21654.5	0.0999880000017583	417	hunger	stimuli/non_foods\non-food_animate_grasshopper.jpg	1	3	1	non-food_animate_grasshopper	0	X	17	0	117	0		0	0	101.080602600006	101.180590600008
21692	0.0999871999956667	418	hunger	stimuli/non_foods\non-food_animate_fox.jpg	1	3	1	non-food_animate_fox	0	G	4	0	112	0		0	0	101.230604300043	101.330591500038
21729.5	0.0999839999713004	419	hunger	stimuli/foods\lettuce.jpg	1	3	1	lettuce	1	R	12	0	75	0		0	0	101.380602400051	101.480586400023
22646.25	0.0999779000412673	420	hunger	stimuli/foods\watermelon.jpg	1	4	1	watermelon	1	S	13	0	279	0		0	0	105.047242200002	105.147220100043
22683.75	0.100003799889237	421	hunger	stimuli/non_foods\non-food_inanimate_chandelier.jpg	1	4	1	non-food_inanimate_chandelier	0	D	2	0	173	0		0	0	105.197234099964	105.297237899853
22721.25	0.0999994999729097	422	hunger	stimuli/foods\peas.jpg	1	4	1	peas	1	N	10	0	240	0		0	0	105.347234199988	105.447233699961
22758.75	0.0999668000731617	423	hunger	stimuli/non_foods\non-food_animate_eagle.jpg	1	4	1	non-food_animate_eagle	0	T	14	0	110	0		0	0	105.497224299936	105.597191100009
22796.25	0.099989099893719	424	hunger	stimuli/foods\hotdog.jpg	1	4	1	hotdog	1	M	9	0	67	0		0	0	105.647226999979	105.747216099873
22833.75	0.0999904000200331	425	hunger	stimuli/non_foods\non-food_animate_sea_turtle.jpg	1	4	1	non-food_animate_sea_turtle	0	Z	18	0	144	0		0	0	105.797226599883	105.897216999903
22871.25	0.0999972999561578	426	hunger	stimuli/non_foods\non-food_animate_parrot.jpg	1	4	1	non-food_animate_parrot	0	V	15	0	133	0		0	0	105.947215300053	106.04721260001
22908.75	0.0999849000945687	427	hunger	stimuli/non_foods\non-food_animate_ant.jpg	1	4	1	non-food_animate_ant	0	M	9	0	91	0		0	0	106.097223199904	106.197208099999
22946.25	0.0999886998906732	428	hunger	stimuli/non_foods\non-food_inanimate_guitar.jpg	1	4	1	non-food_inanimate_guitar	0	V	15	0	185	0		0	0	106.247223600047	106.347212299937
22983.75	0.100001300219446	429	hunger	stimuli/foods\cinnamon.jpg	1	4	1	cinnamon	1	H	5	0	30	0		0	0	106.397225699853	106.497227000073
23021.25	0.0999638999346644	430	hunger	stimuli/foods\orange.jpg	1	4	1	orange	1	R	12	0	230	0		0	0	106.547233500052	106.647197399987
23058.75	0.0999731000047177	431	hunger	stimuli/foods\chocolate_pudding.jpg	1	4	1	chocolate_pudding	1	G	4	0	29	0		0	0	106.697212399915	106.79718549992
23096.25	0.0999856998678297	432	hunger	stimuli/foods\pineapple.jpg	1	4	1	pineapple	1	C	1	0	243	0		0	0	106.84722450003	106.947210199898
23133.75	0.0999636000487953	433	hunger	stimuli/non_foods\non-food_animate_kangaroo.jpg	1	4	1	non-food_animate_kangaroo	0	W	16	0	122	0		0	0	106.997218899895	107.097182499943
23171.25	0.0999629001598805	434	hunger	stimuli/foods\red_cabbage.jpg	1	4	1	red_cabbage	1	C	1	0	256	0		0	0	107.147239799844	107.247202700004
23208.75	0.0999694000929594	435	hunger	stimuli/foods\oven-roasted_tomatoes.jpg	1	4	1	oven-roasted_tomatoes	1	H	5	0	232	0		0	0	107.297228599899	107.397197999991
23246.25	0.0999869001097977	436	hunger	stimuli/foods\eggplant.jpg	1	4	1	eggplant	1	M	9	0	46	0		0	0	107.447213399922	107.547200300032
23283.75	0.0999841000884771	437	hunger	stimuli/non_foods\non-food_inanimate_broom.jpg	1	4	1	non-food_inanimate_broom	0	F	3	0	164	0		0	0	107.597214299953	107.697198400041
23321.25	0.0999886998906732	438	hunger	stimuli/foods\mortadella.jpg	1	4	1	mortadella	1	H	5	0	83	0		0	0	107.747207700042	107.847196399933
23358.75	0.099980000173673	439	hunger	stimuli/foods\grapefruits.jpg	1	4	1	grapefruits	1	T	14	0	59	0		0	0	107.897214399884	107.997194400057
23396.25	0.0999815999530256	440	hunger	stimuli/foods\bagel.jpg	1	4	1	bagel	1	W	16	0	6	0		0	0	108.047209599987	108.14719119994
23433.75	0.09998430009	441	hunger	stimuli/foods\radish.jpg	1	4	1	radish	1	B	0	0	251	0		0	0	108.197206399869	108.297190699959
23471.25	0.0999828998465091	442	hunger	stimuli/non_foods\non-food_inanimate_bucket.jpg	1	4	1	non-food_inanimate_bucket	0	Z	18	0	165	0		0	0	108.347209600033	108.44719249988
23508.75	0.0999816998373717	443	hunger	stimuli/foods\ginger_root.jpg	1	4	1	ginger_root	1	T	14	0	57	0		0	0	108.497204500018	108.597186199855
23546.25	0.099992899922654	444	hunger	stimuli/non_foods\non-food_inanimate_table.jpg	1	4	1	non-food_inanimate_table	0	M	9	0	217	0		0	0	108.647197399987	108.74719029991
23583.75	0.0999925001524389	445	hunger	stimuli/non_foods\non-food_inanimate_protractor.jpg	1	4	1	non-food_inanimate_protractor	0	H	5	0	201	0		0	0	108.797199799912	108.897192300064
23621.25	0.0999612999148667	446	hunger	stimuli/non_foods\non-food_inanimate_towel.jpg	1	4	1	non-food_inanimate_towel	0	Z	18	0	221	0		0	0	108.94724150002	109.047202799935
23658.75	0.0999767000321299	447	hunger	stimuli/non_foods\non-food_inanimate_rack.jpg	1	4	1	non-food_inanimate_rack	0	S	13	0	202	0		0	0	109.097200799966	109.197177499998
23696.25	0.0999853999819607	448	hunger	stimuli/foods\raisins.jpg	1	4	1	raisins	1	N	10	0	252	0		0	0	109.2471890999	109.347174499882
23733.75	0.0999872998800129	449	hunger	stimuli/non_foods\non-food_inanimate_ring.jpg	1	4	1	non-food_inanimate_ring	0	K	7	0	203	0		0	0	109.397189500043	109.497176799923
23771.25	0.09998430009	450	hunger	stimuli/non_foods\non-food_animate_millipede.jpg	1	4	1	non-food_animate_millipede	0	W	16	0	129	0		0	0	109.547186699929	109.647171000019
23808.75	0.0999814998358488	451	hunger	stimuli/foods\mushroom.jpg	1	4	1	mushroom	1	P	11	0	85	0		0	0	109.697185500059	109.797166999895
23846.25	0.0999894000124186	452	hunger	stimuli/non_foods\non-food_inanimate_orchid.jpg	1	4	1	non-food_inanimate_orchid	0	J	6	0	198	0		0	0	109.847182899946	109.947172299959
23883.75	0.0999941001646221	453	hunger	stimuli/non_foods\non-food_animate_duck.jpg	1	4	1	non-food_animate_duck	0	P	11	0	109	0		0	0	109.997181899846	110.09717600001
23921.25	0.100009200163186	454	hunger	stimuli/foods\pea_pod.jpg	1	4	1	pea_pod	1	X	17	0	237	0		0	0	110.147166899871	110.247176100034
23958.75	0.0999837999697775	455	hunger	stimuli/non_foods\non-food_inanimate_nest.jpg	1	4	1	non-food_inanimate_nest	0	R	12	0	196	0		0	0	110.297189800069	110.397173600039
23996.25	0.099982799962163	456	hunger	stimuli/non_foods\non-food_inanimate_cupboard.jpg	1	4	1	non-food_inanimate_cupboard	0	P	11	0	177	0		0	0	110.447180700023	110.547163499985
24033.75	0.0999727000016719	457	hunger	stimuli/foods\apple.jpg	1	4	1	apple	1	L	8	0	1	0		0	0	110.597177299904	110.697149999905
24071.25	0.0999629001598805	458	hunger	stimuli/foods\chocolate_bar.jpg	1	4	1	chocolate_bar	1	W	16	0	26	0		0	0	110.747198999859	110.847161900019
24108.75	0.0999869999941438	459	hunger	stimuli/foods\pasta_carbonara.jpg	1	4	1	pasta_carbonara	1	D	2	0	236	0		0	0	110.897175499937	110.997162499931
24146.25	0.0999950999394059	460	hunger	stimuli/foods\grilled_chicken_breast.jpg	1	4	1	grilled_chicken_breast	1	C	1	0	63	0		0	0	111.047172199935	111.147167299874
24183.75	0.0999860998708755	461	hunger	stimuli/foods\broccoli.jpg	1	4	1	broccoli	1	F	3	0	13	0		0	0	111.197175899986	111.297161999857
24221.25	0.0999894000124186	462	hunger	stimuli/foods\figs.jpg	1	4	1	figs	1	D	2	0	48	0		0	0	111.34717600001	111.447165400023
24258.75	0.0999857999850065	463	hunger	stimuli/foods\pumpkin.jpg	1	4	1	pumpkin	1	W	16	0	250	0		0	0	111.497175399913	111.597161199898
24296.25	0.0999859999865294	464	hunger	stimuli/foods\hazelnuts.jpg	1	4	1	hazelnuts	1	D	2	0	65	0		0	0	111.647172200028	111.747158200014
24333.75	0.099968200083822	465	hunger	stimuli/non_foods\non-food_inanimate_construction_helment.jpg	1	4	1	non-food_inanimate_construction_helment	0	N	10	0	175	0		0	0	111.79719349998	111.897161700064
24371.25	0.0999860998708755	466	hunger	stimuli/non_foods\non-food_animate_elephant.jpg	1	4	1	non-food_animate_elephant	0	Z	18	0	111	0		0	0	111.94717160007	112.047157699941
24408.75	0.0999885001219809	467	hunger	stimuli/non_foods\non-food_inanimate_moss.jpg	1	4	1	non-food_inanimate_moss	0	G	4	0	194	0		0	0	112.097169299843	112.197157799965
24446.25	0.099988600006327	468	hunger	stimuli/foods\oregano.jpg	1	4	1	oregano	1	M	9	0	231	0		0	0	112.247168399859	112.347156999866
24483.75	0.0999869999941438	469	hunger	stimuli/non_foods\non-food_animate_squirrel.jpg	1	4	1	non-food_animate_squirrel	0	J	6	0	150	0		0	0	112.397175000049	112.497162000043
24521.25	0.0999555999878794	470	hunger	stimuli/foods\pork_and_rice.jpg	1	4	1	pork_and_rice	1	S	13	0	245	0		0	0	112.547196599888	112.647152199876
24558.75	0.0999877001158893	471	hunger	stimuli/non_foods\non-food_inanimate_padlock.jpg	1	4	1	non-food_inanimate_padlock	0	T	14	0	199	0		0	0	112.697162499884	112.7971502
24596.25	0.0999904000200331	472	hunger	stimuli/foods\cooked_ham.jpg	1	4	1	cooked_ham	1	N	10	0	35	0		0	0	112.847162100021	112.947152500041
24633.75	0.0999845000915229	473	hunger	stimuli/non_foods\non-food_inanimate_pine_cone.jpg	1	4	1	non-food_inanimate_pine_cone	0	M	9	0	200	0		0	0	112.997162699932	113.097147200024
24671.25	0.0999880000017583	474	hunger	stimuli/non_foods\non-food_inanimate_grass.jpg	1	4	1	non-food_inanimate_grass	0	H	5	0	184	0		0	0	113.147159599932	113.247147599934
24708.75	0.0999888998921961	475	hunger	stimuli/foods\chocolate_pralines.jpg	1	4	1	chocolate_pralines	1	Z	18	0	28	0		0	0	113.297158200061	113.397147099953
24746.25	0.0999868998769671	476	hunger	stimuli/foods\green_olives.jpg	1	4	1	green_olives	1	M	9	0	62	0		0	0	113.447158399969	113.547145299846
24783.75	0.0999795999377966	477	hunger	stimuli/foods\smoked_ham.jpg	1	4	1	smoked_ham	1	N	10	0	266	0		0	0	113.597164700041	113.697144299978
24821.25	0.0999853000976145	478	hunger	stimuli/foods\waffle.jpg	1	4	1	waffle	1	T	14	0	278	0		0	0	113.747154299868	113.847139599966
24858.75	0.0999826998449862	479	hunger	stimuli/foods\fruit_salad.jpg	1	4	1	fruit_salad	1	V	15	0	55	0		0	0	113.897156700026	113.997139399871
24896.25	0.0999858998693526	480	hunger	stimuli/non_foods\non-food_animate_baby_crawling.jpg	1	4	1	non-food_animate_baby_crawling	0	N	10	0	92	0		0	0	114.047151600011	114.14713749988
24933.75	0.0999920000322163	481	hunger	stimuli/non_foods\non-food_inanimate_stapler.jpg	1	4	1	non-food_inanimate_stapler	0	G	4	0	213	0		0	0	114.197147399886	114.297139399918
24971.25	0.0999761999119073	482	hunger	stimuli/foods\hamburger.jpg	1	4	1	hamburger	1	N	10	0	64	0		0	0	114.347161100013	114.447137299925
25008.75	0.0999839999713004	483	hunger	stimuli/non_foods\non-food_inanimate_clover.jpg	1	4	1	non-food_inanimate_clover	0	X	17	0	174	0		0	0	114.497149300063	114.597133300034
25046.25	0.0999880000017583	484	hunger	stimuli/foods\fruit_flan.jpg	1	4	1	fruit_flan	1	V	15	0	53	0		0	0	114.647144400049	114.747132400051
25083.75	0.0999918999150395	485	hunger	stimuli/non_foods\non-food_animate_killer_whale.jpg	1	4	1	non-food_animate_killer_whale	0	G	4	0	123	0		0	0	114.797143199947	114.897135099862
25121.25	0.0999815000686795	486	hunger	stimuli/non_foods\non-food_inanimate_highlighter.jpg	1	4	1	non-food_inanimate_highlighter	0	W	16	0	189	0		0	0	114.947146699997	115.047128200065
25158.75	0.0999900999013335	487	hunger	stimuli/foods\minestrone_soup.jpg	1	4	1	minestrone_soup	1	S	13	0	82	0		0	0	115.09714019997	115.197130299872
25196.25	0.0999860998708755	488	hunger	stimuli/foods\onion.jpg	1	4	1	onion	1	C	1	0	229	0		0	0	115.247142500011	115.347128599882
25233.75	0.0999940000474453	489	hunger	stimuli/non_foods\non-food_animate_swan.jpg	1	4	1	non-food_animate_swan	0	E	20	1	152	0		0	0	115.397151299985	115.497145300033
25271.25	0.099980799946934	490	hunger	stimuli/foods\spinach.jpg	1	4	1	spinach	1	W	16	0	268	0		0	0	115.547132699983	115.64711349993
25308.75	0.0999801000580192	491	hunger	stimuli/foods\mango.jpg	1	4	1	mango	1	G	4	0	80	0		0	0	115.69713059999	115.797110700049
25346.25	0.0999904999043792	492	hunger	stimuli/non_foods\non-food_animate_green_bug.jpg	1	4	1	non-food_animate_green_bug	0	Z	18	0	118	0		0	0	115.847127299989	115.947117799893
25383.75	0.0999578000046313	493	hunger	stimuli/non_foods\non-food_animate_cheetah.jpg	1	4	1	non-food_animate_cheetah	0	T	14	0	100	0		0	0	115.99718249985	116.097140299855
25421.25	0.0999598999042064	494	hunger	stimuli/non_foods\non-food_animate_seahorse.jpg	1	4	1	non-food_animate_seahorse	0	L	8	0	145	0		0	0	116.147160300054	116.247120199958
25458.75	0.0999871999956667	495	hunger	stimuli/foods\linguine_with_clams.jpg	1	4	1	linguine_with_clams	1	C	1	0	77	0		0	0	116.297129999846	116.397117199842
25496.25	0.0999859999865294	496	hunger	stimuli/non_foods\non-food_inanimate_bowling_ball.jpg	1	4	1	non-food_inanimate_bowling_ball	0	H	5	0	162	0		0	0	116.447132299887	116.547118299874
25533.75	0.0999848998617381	497	hunger	stimuli/non_foods\non-food_animate_monkey.jpg	1	4	1	non-food_animate_monkey	0	T	14	0	130	0		0	0	116.597129100002	116.697113999864
25571.25	0.0999882000032812	498	hunger	stimuli/foods\baked_cod_with_carrots_and_green_beans.jpg	1	4	1	baked_cod_with_carrots_and_green_beans	1	X	17	0	7	0		0	0	116.747127200011	116.847115400014
25608.75	0.0999805999454111	499	hunger	stimuli/foods\museli_bars.jpg	1	4	1	museli_bars	1	H	5	0	84	0		0	0	116.897129700053	116.997110299999
25646.25	0.100007700035349	500	hunger	stimuli/foods\omelette.jpg	1	4	1	omelette	1	G	4	0	228	0		0	0	117.047123000026	117.147130700061
25683.75	0.0999693002086133	501	hunger	stimuli/non_foods\non-food_inanimate_waterlily.jpg	1	4	1	non-food_inanimate_waterlily	0	D	2	0	226	0		0	0	117.197141999844	117.297111300053
25721.25	0.0999910000246018	502	hunger	stimuli/non_foods\non-food_animate_donkey.jpg	1	4	1	non-food_animate_donkey	0	V	15	0	107	0		0	0	117.347117299912	117.447108299937
25758.75	0.0999892000108957	503	hunger	stimuli/non_foods\non-food_inanimate_watering_can.jpg	1	4	1	non-food_inanimate_watering_can	0	Z	18	0	225	0		0	0	117.497118199943	117.597107399954
25796.25	0.0999901001341641	504	hunger	stimuli/foods\cauliflower.jpg	1	4	1	cauliflower	1	K	7	0	20	0		0	0	117.647118999856	117.74710909999
25833.75	0.0999914999119937	505	hunger	stimuli/non_foods\non-food_animate_slug.jpg	1	4	1	non-food_animate_slug	0	L	8	0	148	0		0	0	117.797113999957	117.897105499869
25871.25	0.0999672000762075	506	hunger	stimuli/foods\apricot.jpg	1	4	1	apricot	1	W	16	0	2	0		0	0	117.947135099908	118.047102299985
25908.75	0.099986599991098	507	hunger	stimuli/non_foods\non-food_animate_lion.jpg	1	4	1	non-food_animate_lion	0	K	7	0	125	0		0	0	118.097113600001	118.197100199992
25946.25	0.0999879001174122	508	hunger	stimuli/non_foods\non-food_animate_porcupine.jpg	1	4	1	non-food_animate_porcupine	0	W	16	0	138	0		0	0	118.247111999895	118.347099900013
25983.75	0.0999847000930458	509	hunger	stimuli/non_foods\non-food_animate_clown.jpg	1	4	1	non-food_animate_clown	0	D	2	0	102	0		0	0	118.397114499938	118.497099200031
26021.25	0.0999861999880522	510	hunger	stimuli/non_foods\non-food_animate_bat.jpg	1	4	1	non-food_animate_bat	0	W	16	0	94	0		0	0	118.547108999919	118.647095199907
26058.75	0.0999884000048041	511	hunger	stimuli/foods\fried_zucchini.jpg	1	4	1	fried_zucchini	1	T	14	0	51	0		0	0	118.697111999849	118.797100399854
26096.25	0.0999964999500662	512	hunger	stimuli/foods\avocado.jpg	1	4	1	avocado	1	B	0	0	5	0		0	0	118.84710819996	118.94710469991
26133.75	0.0999839000869542	513	hunger	stimuli/foods\raw_ham.jpg	1	4	1	raw_ham	1	C	1	0	253	0		0	0	118.997107299976	119.097091200063
26171.25	0.0999873001128435	514	hunger	stimuli/foods\lamb_chops.jpg	1	4	1	lamb_chops	1	P	11	0	70	0		0	0	119.147106099874	119.247093399987
26208.75	0.0999853999819607	515	hunger	stimuli/non_foods\non-food_animate_Causasian_man.jpg	1	4	1	non-food_animate_Causasian_man	0	N	10	0	89	0		0	0	119.297104799887	119.397090199869
26246.25	0.100037100026384	516	hunger	stimuli/foods\potato_chips.jpg	1	4	1	potato_chips	1	G	4	0	247	0		0	0	119.447103200015	119.547140300041
26283.75	0.0999664000701159	517	hunger	stimuli/foods\lentils.jpg	1	4	1	lentils	1	M	9	0	74	0		0	0	119.597113499884	119.697079899954
26321.25	0.0999839000869542	518	hunger	stimuli/non_foods\non-food_animate_ladybug.jpg	1	4	1	non-food_animate_ladybug	0	G	4	0	124	0		0	0	119.74709119997	119.847075100057
26358.75	0.100013100076467	519	hunger	stimuli/foods\artichoke.jpg	1	4	1	artichoke	1	X	17	0	3	0		0	0	119.897074499866	119.997087599942
26396.25	0.0999871999956667	520	hunger	stimuli/foods\lasagna.jpg	1	4	1	lasagna	1	T	14	0	71	0		0	0	120.047097499948	120.147084699944
26433.75	0.0999880000017583	521	hunger	stimuli/non_foods\non-food_inanimate_shell.jpg	1	4	1	non-food_inanimate_shell	0	O	22	1	206	0		0	0	120.197095100069	120.297083100071
26471.25	0.0999880000017583	522	hunger	stimuli/non_foods\non-food_animate_german_shepherd.jpg	1	4	1	non-food_animate_german_shepherd	0	D	2	0	114	0		0	0	120.347094399855	120.447082399856
26508.75	0.0999846998602152	523	hunger	stimuli/non_foods\non-food_animate_hummingbird.jpg	1	4	1	non-food_animate_hummingbird	0	X	17	0	120	0		0	0	120.497095600003	120.597080299864
26546.25	0.0999891001265496	524	hunger	stimuli/non_foods\non-food_inanimate_briefcase.jpg	1	4	1	non-food_inanimate_briefcase	0	N	10	0	163	0		0	0	120.647089399863	120.74707849999
26583.75	0.099990600021556	525	hunger	stimuli/non_foods\non-food_inanimate_hay.jpg	1	4	1	non-food_inanimate_hay	0	G	4	0	187	0		0	0	120.797090299893	120.897080899915
26621.25	0.0999902000185102	526	hunger	stimuli/non_foods\non-food_animate_gorilla.jpg	1	4	1	non-food_animate_gorilla	0	F	3	0	116	0		0	0	120.947086300002	121.047076500021
26658.75	0.0999898000154644	527	hunger	stimuli/foods\garlic.jpg	1	4	1	garlic	1	H	5	0	56	0		0	0	121.097086400026	121.197076200042
26696.25	0.0999849999789149	528	hunger	stimuli/foods\donut.jpg	1	4	1	donut	1	L	8	0	44	0		0	0	121.247088300064	121.347073300043
26733.75	0.0999409998767078	529	hunger	stimuli/foods\lollies.jpg	1	4	1	lollies	1	X	17	0	78	0		0	0	121.397128300043	121.49706929992
26771.25	0.0999869001097977	530	hunger	stimuli/non_foods\non-food_animate_woman.jpg	1	4	1	non-food_animate_woman	0	Z	18	0	154	0		0	0	121.547083599959	121.647070500068
26808.75	0.0999872998800129	531	hunger	stimuli/non_foods\non-food_animate_frog.jpg	1	4	1	non-food_animate_frog	0	B	0	0	113	0		0	0	121.697082299972	121.797069599852
26846.25	0.0999896998982877	532	hunger	stimuli/foods\salami.jpg	1	4	1	salami	1	X	17	0	263	0		0	0	121.847079999978	121.947069699876
26883.75	0.0999829999636859	533	hunger	stimuli/non_foods\non-food_inanimate_skirt.jpg	1	4	1	non-food_inanimate_skirt	0	T	14	0	209	0		0	0	121.997080700006	122.09706369997
26921.25	0.0999934000428766	534	hunger	stimuli/non_foods\non-food_animate_deer.jpg	1	4	1	non-food_animate_deer	0	L	8	0	105	0		0	0	122.14707109984	122.247064499883
26958.75	0.0999942000489682	535	hunger	stimuli/non_foods\non-food_inanimate_bed.jpg	1	4	1	non-food_inanimate_bed	0	P	11	0	160	0		0	0	122.297078399919	122.397072599968
26996.25	0.0999604999087751	536	hunger	stimuli/foods\lemon_meringue_pie.jpg	1	4	1	lemon_meringue_pie	1	M	9	0	73	0		0	0	122.447092999937	122.547053499846
27033.75	0.0999867999926209	537	hunger	stimuli/non_foods\non-food_inanimate_wrench.jpg	1	4	1	non-food_inanimate_wrench	0	H	5	0	227	0		0	0	122.597074300051	122.697061100043
27071.25	0.0999932999256998	538	hunger	stimuli/non_foods\non-food_inanimate_fire_extinguisher.jpg	1	4	1	non-food_inanimate_fire_extinguisher	0	V	15	0	181	0		0	0	122.747072200058	122.847065499984
27108.75	0.0999875999987125	539	hunger	stimuli/foods\mussels.jpg	1	4	1	mussels	1	H	5	0	86	0		0	0	122.897060499992	122.997048099991
27146.25	0.0999931001570076	540	hunger	stimuli/foods\stew_with_potatoes_and_carrots.jpg	1	4	1	stew_with_potatoes_and_carrots	1	N	10	0	271	0		0	0	123.047060499899	123.147053600056
27183.75	0.0999653998296708	541	hunger	stimuli/foods\raw_sausage.jpg	1	4	1	raw_sausage	1	S	13	0	254	0		0	0	123.197080000071	123.297045399901
27221.25	0.0999896998982877	542	hunger	stimuli/non_foods\non-food_animate_polar_bear.jpg	1	4	1	non-food_animate_polar_bear	0	J	6	0	137	0		0	0	123.347056200029	123.447045899928
27258.75	0.099988600006327	543	hunger	stimuli/non_foods\non-food_animate_penguin.jpg	1	4	1	non-food_animate_penguin	0	N	10	0	135	0		0	0	123.497058399953	123.597046999959
27296.25	0.0999851000960916	544	hunger	stimuli/foods\brownie.jpg	1	4	1	brownie	1	X	17	0	14	0		0	0	123.647056699963	123.747041800059
27333.75	0.0999841999728233	545	hunger	stimuli/non_foods\non-food_inanimate_canoe.jpg	1	4	1	non-food_inanimate_canoe	0	S	13	0	170	0		0	0	123.797050799942	123.897034999914
27371.25	0.100004900014028	546	hunger	stimuli/foods\kiwi.jpg	1	4	1	kiwi	1	V	15	0	69	0		0	0	123.947042400017	124.047047300031
27408.75	0.0999851999804378	547	hunger	stimuli/foods\dates.jpg	1	4	1	dates	1	L	8	0	43	0		0	0	124.097059200052	124.197044400033
27446.25	0.0999729000031948	548	hunger	stimuli/foods\grapes.jpg	1	4	1	grapes	1	Z	18	0	60	0		0	0	124.247073400067	124.34704630007
27483.75	0.0999806998297572	549	hunger	stimuli/non_foods\non-food_animate_butterfly.jpg	1	4	1	non-food_animate_butterfly	0	D	2	0	96	0		0	0	124.397063900018	124.497044599848
27521.25	0.100015599979088	550	hunger	stimuli/foods\tomato.jpg	1	4	1	tomato	1	G	4	0	276	0		0	0	124.547026799992	124.647042399971
27558.75	0.099988600006327	551	hunger	stimuli/foods\gnocchi.jpg	1	4	1	gnocchi	1	L	8	0	58	0		0	0	124.697054399876	124.797042999882
27596.25	0.100020200014114	552	hunger	stimuli/foods\croissant.jpg	1	4	1	croissant	1	G	4	0	40	0		0	0	124.847065399867	124.947085599881
27633.75	0.0999656999483705	553	hunger	stimuli/non_foods\non-food_inanimate_cactus_pot_plant.jpg	1	4	1	non-food_inanimate_cactus_pot_plant	0	P	11	0	169	0		0	0	124.997073499952	125.0970391999
27671.25	0.0999855999834836	554	hunger	stimuli/non_foods\non-food_inanimate_bamboo.jpg	1	4	1	non-food_inanimate_bamboo	0	R	12	0	159	0		0	0	125.147051899927	125.24703749991
27708.75	0.0999872998800129	555	hunger	stimuli/non_foods\non-food_inanimate_alarm_clock.jpg	1	4	1	non-food_inanimate_alarm_clock	0	L	8	0	158	0		0	0	125.297048100038	125.397035399918
27746.25	0.0999909001402557	556	hunger	stimuli/foods\green_beans.jpg	1	4	1	green_beans	1	P	11	0	61	0		0	0	125.447046299931	125.547037200071
27783.75	0.0999821000732481	557	hunger	stimuli/foods\taco.jpg	1	4	1	taco	1	D	2	0	274	0		0	0	125.597047799965	125.697029900039
27821.25	0.0999905001372099	558	hunger	stimuli/non_foods\non-food_inanimate_suitcase.jpg	1	4	1	non-food_inanimate_suitcase	0	M	9	0	215	0		0	0	125.747044999851	125.847035499988
27858.75	0.099984799977392	559	hunger	stimuli/non_foods\non-food_inanimate_scissors.jpg	1	4	1	non-food_inanimate_scissors	0	R	12	0	205	0		0	0	125.897046299884	125.997031099861
28321.25	0.0999793000519276	560	hunger	stimuli/non_foods\non-food_inanimate_wrench.jpg	1	5	1	non-food_inanimate_wrench	0	B	0	0	227	0		0	0	127.74703660002	127.847015900072
28358.75	0.0999861001037061	561	hunger	stimuli/foods\oyster.jpg	1	5	1	oyster	1	D	2	0	233	0		0	0	127.897027199855	127.997013299959
28396.25	0.100000499980524	562	hunger	stimuli/foods\eggplant.jpg	1	5	1	eggplant	1	K	7	0	46	0		0	0	128.047033000039	128.147033500019
28433.75	0.0999652000609785	563	hunger	stimuli/non_foods\non-food_inanimate_orchid.jpg	1	5	1	non-food_inanimate_orchid	0	X	17	0	198	0		0	0	128.19704489992	128.297010099981
28471.25	0.0999854998663068	564	hunger	stimuli/foods\fried_calamari.jpg	1	5	1	fried_calamari	1	B	0	0	50	0		0	0	128.347022600006	128.447008099873
28508.75	0.0999898000154644	565	hunger	stimuli/foods\chestnut.jpg	1	5	1	chestnut	1	L	8	0	24	0		0	0	128.497015299974	128.597005099989
28546.25	0.099986300105229	566	hunger	stimuli/foods\salmon.jpg	1	5	1	salmon	1	J	6	0	264	0		0	0	128.647019699914	128.74700600002
28583.75	0.0999892000108957	567	hunger	stimuli/foods\artichoke.jpg	1	5	1	artichoke	1	V	15	0	3	0		0	0	128.797020599945	128.897009799955
28621.25	0.0999916999135166	568	hunger	stimuli/foods\cream_donuts.jpg	1	5	1	cream_donuts	1	L	8	0	39	0		0	0	128.947016600054	129.047008299967
28658.75	0.0999911001417786	569	hunger	stimuli/non_foods\non-food_inanimate_hammer.jpg	1	5	1	non-food_inanimate_hammer	0	B	0	0	186	0		0	0	129.096991499886	129.196982600028
28696.25	0.100006300024688	570	hunger	stimuli/non_foods\non-food_animate_baby_sitting.jpg	1	5	1	non-food_animate_baby_sitting	0	N	10	0	93	0		0	0	129.246990799904	129.346997099929
28733.75	0.0999885001219809	571	hunger	stimuli/non_foods\non-food_animate_peacock.jpg	1	5	1	non-food_animate_peacock	0	L	8	0	134	0		0	0	129.397010299843	129.496998799965
28771.25	0.0999748997855932	572	hunger	stimuli/foods\cupcake.jpg	1	5	1	cupcake	1	S	13	0	42	0		0	0	129.547021300066	129.646996199852
28808.75	0.0999853999819607	573	hunger	stimuli/non_foods\non-food_inanimate_bucket.jpg	1	5	1	non-food_inanimate_bucket	0	H	5	0	165	0		0	0	129.697008699877	129.796994099859
28846.25	0.100024800049141	574	hunger	stimuli/foods\cucumber.jpg	1	5	1	cucumber	1	C	1	0	41	0		0	0	129.847016399959	129.947041200008
28883.75	0.0999519999604672	575	hunger	stimuli/non_foods\non-food_animate_ladybug.jpg	1	5	1	non-food_animate_ladybug	0	D	2	0	124	0		0	0	129.99704320007	130.096995200031
28921.25	0.0999839000869542	576	hunger	stimuli/foods\mandarin.jpg	1	5	1	mandarin	1	Z	18	0	79	0		0	0	130.147006799933	130.24699070002
28958.75	0.0999802998267114	577	hunger	stimuli/non_foods\non-food_animate_alligator.jpg	1	5	1	non-food_animate_alligator	0	B	0	0	90	0		0	0	130.297005800065	130.396986099891
28996.25	0.0999865001067519	578	hunger	stimuli/foods\pork_and_rice.jpg	1	5	1	pork_and_rice	1	P	11	0	245	0		0	0	130.447000599932	130.546987100039
29033.75	0.0999886998906732	579	hunger	stimuli/foods\peas.jpg	1	5	1	peas	1	L	8	0	240	0		0	0	130.597000699956	130.696989399847
29071.25	0.0999914000276476	580	hunger	stimuli/non_foods\non-food_inanimate_folding_chair.jpg	1	5	1	non-food_inanimate_folding_chair	0	S	13	0	182	0		0	0	130.746999599971	130.846990999999
29108.75	0.0999848998617381	581	hunger	stimuli/non_foods\non-food_inanimate_clover.jpg	1	5	1	non-food_inanimate_clover	0	R	12	0	174	0		0	0	130.89699909999	130.996983999852
29146.25	0.0999861999880522	582	hunger	stimuli/foods\hazelnuts.jpg	1	5	1	hazelnuts	1	G	4	0	65	0		0	0	131.046998000005	131.146984199993
29183.75	0.0999847000930458	583	hunger	stimuli/foods\raw_sausage.jpg	1	5	1	raw_sausage	1	T	14	0	254	0		0	0	131.1969963999	131.296981099993
29221.25	0.0999825999606401	584	hunger	stimuli/foods\capsicum.jpg	1	5	1	capsicum	1	G	4	0	18	0		0	0	131.346992200008	131.446974799968
29258.75	0.100009699817747	585	hunger	stimuli/foods\hotdog.jpg	1	5	1	hotdog	1	J	6	0	67	0		0	0	131.496977600036	131.596987299854
29296.25	0.0999956999439746	586	hunger	stimuli/non_foods\non-food_inanimate_chair.jpg	1	5	1	non-food_inanimate_chair	0	K	7	0	172	0		0	0	131.647003199905	131.746998899849
29333.75	0.0999674000777304	587	hunger	stimuli/foods\orange.jpg	1	5	1	orange	1	V	15	0	230	0		0	0	131.797012199881	131.896979599958
29371.25	0.099986300105229	588	hunger	stimuli/foods\papaya.jpg	1	5	1	papaya	1	S	13	0	235	0		0	0	131.946989299962	132.046975600068
29408.75	0.0999907997902483	589	hunger	stimuli/foods\grapes.jpg	1	5	1	grapes	1	N	10	0	60	0		0	0	132.09698510007	132.19697589986
29446.25	0.0999857999850065	590	hunger	stimuli/non_foods\non-food_inanimate_leaf.jpg	1	5	1	non-food_inanimate_leaf	0	B	0	0	192	0		0	0	132.246986199869	132.346971999854
29483.75	0.0999853999819607	591	hunger	stimuli/foods\mussels.jpg	1	5	1	mussels	1	K	7	0	86	0		0	0	132.396984399995	132.496969799977
29521.25	0.0999824998434633	592	hunger	stimuli/non_foods\non-food_inanimate_canoe.jpg	1	5	1	non-food_inanimate_canoe	0	R	12	0	170	0		0	0	132.546986300033	132.646968799876
29558.75	0.0999994999729097	593	hunger	stimuli/non_foods\non-food_animate_owl.jpg	1	5	1	non-food_animate_owl	0	S	13	0	132	0		0	0	132.696982400026	132.796981899999
29596.25	0.0999822998419404	594	hunger	stimuli/non_foods\non-food_inanimate_bamboo.jpg	1	5	1	non-food_inanimate_bamboo	0	A	19	1	159	0		0	0	132.846982300049	132.946964599891
29633.75	0.0999880000017583	595	hunger	stimuli/non_foods\non-food_animate_green_bug.jpg	1	5	1	non-food_animate_green_bug	0	B	0	0	118	0		0	0	132.996978299925	133.096966299927
29671.25	0.0999854998663068	596	hunger	stimuli/foods\steak.jpg	1	5	1	steak	1	C	1	0	270	0		0	0	133.146978300065	133.246963799931
29708.75	0.0999906999059021	597	hunger	stimuli/foods\smoked_ham.jpg	1	5	1	smoked_ham	1	F	3	0	266	0		0	0	133.296977099963	133.396967799868
29746.25	0.099980799946934	598	hunger	stimuli/non_foods\non-food_inanimate_couch.jpg	1	5	1	non-food_inanimate_couch	0	M	9	0	176	1	a	0.691822899971157	1	133.446983200032	133.546963999979
29783.75	0.0999849999789149	599	hunger	stimuli/foods\risotto_with_zucchini.jpg	1	5	1	risotto_with_zucchini	1	V	15	0	260	0		0	0	133.596965099918	133.696950099897
29821.25	0.100009399931878	600	hunger	stimuli/non_foods\non-food_inanimate_jeans.jpg	1	5	1	non-food_inanimate_jeans	0	W	16	0	191	0		0	0	133.746965199942	133.846974599874
29858.75	0.0999855000991374	601	hunger	stimuli/foods\museli_bars.jpg	1	5	1	museli_bars	1	G	4	0	84	0		0	0	133.896964599844	133.996950099943
29896.25	0.0999895001295954	602	hunger	stimuli/non_foods\non-food_inanimate_shell.jpg	1	5	1	non-food_inanimate_shell	0	X	17	0	206	0		0	0	134.046961299842	134.146950799972
29933.75	0.0999843999743462	603	hunger	stimuli/foods\pear.jpg	1	5	1	pear	1	Z	18	0	239	0		0	0	134.196961999871	134.296946399845
29971.25	0.0999882998876274	604	hunger	stimuli/non_foods\non-food_inanimate_briefcase.jpg	1	5	1	non-food_inanimate_briefcase	0	W	16	0	163	0		0	0	134.346956999972	134.44694529986
30008.75	0.0999892998952419	605	hunger	stimuli/foods\tomato.jpg	1	5	1	tomato	1	G	4	0	276	0		0	0	134.496957299998	134.596946599893
30046.25	0.100003300001845	606	hunger	stimuli/foods\peach.jpg	1	5	1	peach	1	N	10	0	238	0		0	0	134.64695009985	134.746953399852
30083.75	0.0999853000976145	607	hunger	stimuli/foods\lamb_chops.jpg	1	5	1	lamb_chops	1	P	11	0	70	0		0	0	134.796962999972	134.896948300069
30121.25	0.0999875001143664	608	hunger	stimuli/non_foods\non-food_animate_seal.jpg	1	5	1	non-food_animate_seal	0	N	10	0	146	0		0	0	134.946960199857	135.046947699971
30158.75	0.100010700058192	609	hunger	stimuli/foods\chocolate_pralines.jpg	1	5	1	chocolate_pralines	1	Z	18	0	28	0		0	0	135.096955699846	135.196966399904
30196.25	0.0999765999149531	610	hunger	stimuli/foods\chilli.jpg	1	5	1	chilli	1	S	13	0	25	0		0	0	135.246958300006	135.346934899921
30233.75	0.0999771000351757	611	hunger	stimuli/foods\salami.jpg	1	5	1	salami	1	K	7	0	263	0		0	0	135.396948899841	135.496925999876
30271.25	0.100007799919695	612	hunger	stimuli/foods\pumpkin.jpg	1	5	1	pumpkin	1	P	11	0	250	0		0	0	135.546934199985	135.646941999905
30308.75	0.0999779999256134	613	hunger	stimuli/foods\spaghetti_with_meat_sauce.jpg	1	5	1	spaghetti_with_meat_sauce	1	H	5	0	267	0		0	0	135.696953899926	135.796931899851
30346.25	0.0999840998556465	614	hunger	stimuli/foods\cabbage.jpg	1	5	1	cabbage	1	N	10	0	16	0		0	0	135.846947700018	135.946931799874
30383.75	0.0999882998876274	615	hunger	stimuli/non_foods\non-food_animate_frog.jpg	1	5	1	non-food_animate_frog	0	V	15	0	113	0		0	0	135.996943200007	136.096931499895
30421.25	0.0999888998921961	616	hunger	stimuli/non_foods\non-food_inanimate_tulip.jpg	1	5	1	non-food_inanimate_tulip	0	Z	18	0	224	0		0	0	136.146942500025	136.246931399917
30458.75	0.099988600006327	617	hunger	stimuli/non_foods\non-food_inanimate_stoplight.jpg	1	5	1	non-food_inanimate_stoplight	0	P	11	0	214	0		0	0	136.296942200046	136.396930800052
30496.25	0.0999900999013335	618	hunger	stimuli/foods\fennel.jpg	1	5	1	fennel	1	T	14	0	47	0		0	0	136.446941199945	136.546931299847
30533.75	0.100004500010982	619	hunger	stimuli/non_foods\non-food_inanimate_moss.jpg	1	5	1	non-food_inanimate_moss	0	Z	18	0	194	0		0	0	136.596933200024	136.696937700035
30571.25	0.0999808001797646	620	hunger	stimuli/non_foods\non-food_animate_squirrel.jpg	1	5	1	non-food_animate_squirrel	0	H	5	0	150	0		0	0	136.746941299876	136.846922100056
30608.75	0.0999759000260383	621	hunger	stimuli/non_foods\non-food_animate_woman.jpg	1	5	1	non-food_animate_woman	0	O	22	1	154	0		0	0	136.89693789999	136.996913800016
30646.25	0.100017500109971	622	hunger	stimuli/non_foods\non-food_animate_german_shepherd.jpg	1	5	1	non-food_animate_german_shepherd	0	S	13	0	114	0		0	0	137.046912699938	137.146930200048
30683.75	0.0999835999682546	623	hunger	stimuli/foods\green_beans.jpg	1	5	1	green_beans	1	L	8	0	61	0		0	0	137.196940500056	137.296924100025
30721.25	0.0999860998708755	624	hunger	stimuli/foods\waffle.jpg	1	5	1	waffle	1	T	14	0	278	0		0	0	137.346939000068	137.446925099939
30758.75	0.0999817000702024	625	hunger	stimuli/foods\kiwi.jpg	1	5	1	kiwi	1	D	2	0	69	0		0	0	137.496940199984	137.596921900054
30796.25	0.0999871001113206	626	hunger	stimuli/foods\radish.jpg	1	5	1	radish	1	V	15	0	251	0		0	0	137.646938199876	137.746925299987
30833.75	0.0999853999819607	627	hunger	stimuli/foods\rockmelon.jpg	1	5	1	rockmelon	1	R	12	0	262	0		0	0	137.796940099914	137.896925499896
30871.25	0.0999873999971896	628	hunger	stimuli/foods\lentils.jpg	1	5	1	lentils	1	D	2	0	74	0		0	0	137.946931299986	138.046918699984
30908.75	0.0999672999605536	629	hunger	stimuli/foods\pineapple.jpg	1	5	1	pineapple	1	V	15	0	243	0		0	0	138.096951999934	138.196919299895
30946.25	0.0999847000930458	630	hunger	stimuli/foods\frankfurter_and_provolone_salad.jpg	1	5	1	frankfurter_and_provolone_salad	1	N	10	0	49	0		0	0	138.246932199923	138.346916900016
30983.75	0.0999892998952419	631	hunger	stimuli/non_foods\non-food_inanimate_teddy_bear.jpg	1	5	1	non-food_inanimate_teddy_bear	0	M	9	0	218	0		0	0	138.396930200048	138.496919499943
31021.25	0.0999839999713004	632	hunger	stimuli/non_foods\non-food_inanimate_nettle.jpg	1	5	1	non-food_inanimate_nettle	0	P	11	0	197	0		0	0	138.546932599973	138.646916599944
31058.75	0.100009199930355	633	hunger	stimuli/non_foods\non-food_animate_student_female.jpg	1	5	1	non-food_animate_student_female	0	Z	18	0	151	0		0	0	138.696920200018	138.796929399949
31096.25	0.0999622999224812	634	hunger	stimuli/non_foods\non-food_inanimate_tent.jpg	1	5	1	non-food_inanimate_tent	0	D	2	0	219	0		0	0	138.846952599939	138.946914899861
31133.75	0.0999831999652088	635	hunger	stimuli/foods\lime.jpg	1	5	1	lime	1	T	14	0	76	0		0	0	138.996927100001	139.096910299966
31171.25	0.0999867999926209	636	hunger	stimuli/foods\strawberry.jpg	1	5	1	strawberry	1	K	7	0	272	0		0	0	139.146922299871	139.246909099864
31208.75	0.0999874998815358	637	hunger	stimuli/foods\meatballs.jpg	1	5	1	meatballs	1	Z	18	0	81	0		0	0	139.296925700037	139.396913199918
31246.25	0.0999888000078499	638	hunger	stimuli/foods\linguine_with_clams.jpg	1	5	1	linguine_with_clams	1	X	17	0	77	0		0	0	139.446918099886	139.546906899894
31283.75	0.0999858998693526	639	hunger	stimuli/foods\pancakes.jpg	1	5	1	pancakes	1	B	0	0	234	0		0	0	139.596919300035	139.696905199904
31321.25	0.0999866998754442	640	hunger	stimuli/non_foods\non-food_animate_dolphin.jpg	1	5	1	non-food_animate_dolphin	0	F	3	0	106	0		0	0	139.746917400043	139.846904099919
31358.75	0.0999864998739213	641	hunger	stimuli/foods\pea_pod.jpg	1	5	1	pea_pod	1	T	14	0	237	0		0	0	139.896915100049	139.996901599923
31396.25	0.0999811999499798	642	hunger	stimuli/non_foods\non-food_animate_polar_bear.jpg	1	5	1	non-food_animate_polar_bear	0	S	13	0	137	0		0	0	140.046918899985	140.146900099935
31433.75	0.0999839000869542	643	hunger	stimuli/foods\oven-roasted_tomatoes.jpg	1	5	1	oven-roasted_tomatoes	1	Z	18	0	232	0		0	0	140.196914899861	140.296898799948
31471.25	0.099990300135687	644	hunger	stimuli/foods\chocolate_pudding.jpg	1	5	1	chocolate_pudding	1	B	0	0	29	0		0	0	140.346911999863	140.446902299998
31508.75	0.10000850004144	645	hunger	stimuli/non_foods\non-food_inanimate_fire_extinguisher.jpg	1	5	1	non-food_inanimate_fire_extinguisher	0	L	8	0	181	0		0	0	140.496917499928	140.596925999969
31546.25	0.0999696000944823	646	hunger	stimuli/foods\lemon_meringue_pie.jpg	1	5	1	lemon_meringue_pie	1	K	7	0	73	0		0	0	140.646920899861	140.746890499955
31583.75	0.0999874998815358	647	hunger	stimuli/non_foods\non-food_inanimate_protractor.jpg	1	5	1	non-food_inanimate_protractor	0	V	15	0	201	0		0	0	140.796908800025	140.896896299906
