onset	duration	eventnumber	hunger_condition	stimfilename	blockno	trialno	is_faststream	stim	food_idx	letter	letter_idx	istarget	image_number	response	keypressed	rt	correct	time_stimon	time_stimoff
11789.25	0.099975799996173	0	satiated	stimuli/foods\rice.jpg	1	1	1	rice	1	G	4	0	257	0		0	0	98.003012000001	98.1029877999972
11826.75	0.100035200011916	1	satiated	stimuli/foods\grapes.jpg	1	1	1	grapes	1	C	1	0	60	0		0	0	98.1530026999972	98.2530379000091
11864.25	0.09998440000345	2	satiated	stimuli/foods\meatballs.jpg	1	1	1	meatballs	1	R	12	0	81	0		0	0	98.3030014999968	98.4029859000002
11901.75	0.0999907999939751	3	satiated	stimuli/non_foods\non-food_inanimate_speakers.jpg	1	1	1	non-food_inanimate_speakers	0	D	2	0	212	0		0	0	98.4529955000035	98.5529862999974
11939.25	0.0999817999982042	4	satiated	stimuli/foods\potato_chips.jpg	1	1	1	potato_chips	1	T	14	0	247	0		0	0	98.6029949000076	98.7029767000058
11976.75	0.0999876000132645	5	satiated	stimuli/non_foods\non-food_inanimate_hammer.jpg	1	1	1	non-food_inanimate_hammer	0	D	2	0	186	0		0	0	98.7529922999965	98.8529799000098
12014.25	0.0999630000005709	6	satiated	stimuli/non_foods\non-food_inanimate_rack.jpg	1	1	1	non-food_inanimate_rack	0	N	10	0	202	0		0	0	98.9030018000049	99.0029648000054
12051.75	0.0999867000064114	7	satiated	stimuli/foods\risotto_with_peas_and_asparagus_tips.jpg	1	1	1	risotto_with_peas_and_asparagus_tips	1	R	12	0	259	0		0	0	99.0529902999988	99.1529770000052
12089.25	0.0999831999943126	8	satiated	stimuli/foods\croissant.jpg	1	1	1	croissant	1	L	8	0	40	0		0	0	99.2029885000084	99.3029717000027
12126.75	0.0999780999991344	9	satiated	stimuli/non_foods\non-food_inanimate_tulip.jpg	1	1	1	non-food_inanimate_tulip	0	D	2	0	224	0		0	0	99.352985400008	99.4529635000072
12164.25	0.100001999991946	10	satiated	stimuli/non_foods\non-food_animate_baby_crawling.jpg	1	1	1	non-food_animate_baby_crawling	0	K	7	0	92	0		0	0	99.5029802000063	99.6029821999982
12201.75	0.0999577000038698	11	satiated	stimuli/foods\smoked_ham.jpg	1	1	1	smoked_ham	1	R	12	0	266	0		0	0	99.6530111000029	99.7529688000068
12239.25	0.0999761999992188	12	satiated	stimuli/foods\asparagus.jpg	1	1	1	asparagus	1	K	7	0	4	0		0	0	99.8029816000053	99.9029578000045
12277	0.0997570000035921	13	satiated	stimuli/foods\apricot.jpg	1	1	1	apricot	1	X	17	0	2	0		0	0	99.9532134000037	100.052970400007
12314.25	0.0999481000035303	14	satiated	stimuli/foods\lime.jpg	1	1	1	lime	1	V	15	0	76	0		0	0	100.1029843	100.202932400003
12351.75	0.0999865000048885	15	satiated	stimuli/non_foods\non-food_animate_ladybug.jpg	1	1	1	non-food_animate_ladybug	0	N	10	0	124	0		0	0	100.2529756	100.352962100005
12389.25	0.0999829999927897	16	satiated	stimuli/non_foods\non-food_animate_swan.jpg	1	1	1	non-food_animate_swan	0	H	5	0	152	0		0	0	100.402978700004	100.502961699996
12426.75	0.0999795999960043	17	satiated	stimuli/non_foods\non-food_animate_cow.jpg	1	1	1	non-food_animate_cow	0	W	16	0	103	0		0	0	100.552978100008	100.652957700004
12464.25	0.0999884000048041	18	satiated	stimuli/non_foods\non-food_inanimate_bed.jpg	1	1	1	non-food_inanimate_bed	0	M	9	0	160	0		0	0	100.702971799998	100.802960200002
12501.75	0.0999889999948209	19	satiated	stimuli/non_foods\non-food_animate_woman.jpg	1	1	1	non-food_animate_woman	0	D	2	0	154	0		0	0	100.852970000007	100.952959000002
12539.25	0.0999644999974407	20	satiated	stimuli/non_foods\non-food_inanimate_protractor.jpg	1	1	1	non-food_inanimate_protractor	0	N	10	0	201	0		0	0	101.002989900007	101.102954400005
12576.75	0.0999841000011656	21	satiated	stimuli/foods\spinach.jpg	1	1	1	spinach	1	H	5	0	268	0		0	0	101.152969200004	101.252953300005
12614.25	0.0999888999940595	22	satiated	stimuli/foods\red_beans.jpg	1	1	1	red_beans	1	T	14	0	255	0		0	0	101.302965100011	101.402954000005
12651.75	0.0999859000003198	23	satiated	stimuli/foods\lemon.jpg	1	1	1	lemon	1	G	4	0	72	0		0	0	101.452965100005	101.552951000005
12689.25	0.0999868000071729	24	satiated	stimuli/foods\broccoli.jpg	1	1	1	broccoli	1	T	14	0	13	0		0	0	101.602963600002	101.702950400009
12726.75	0.0999855999980355	25	satiated	stimuli/non_foods\non-food_inanimate_cap.jpg	1	1	1	non-food_inanimate_cap	0	S	13	0	171	0		0	0	101.752962300001	101.852947899999
12764.25	0.0999757000099635	26	satiated	stimuli/foods\cooked_prawn.jpg	1	1	1	cooked_prawn	1	B	0	0	36	0		0	0	101.902962799999	102.002938500009
12801.75	0.0999834000103874	27	satiated	stimuli/foods\risotto_with_zucchini.jpg	1	1	1	risotto_with_zucchini	1	M	9	0	260	0		0	0	102.052953899998	102.152937300008
12839.25	0.0999864999903366	28	satiated	stimuli/non_foods\non-food_animate_fox.jpg	1	1	1	non-food_animate_fox	0	Z	18	0	112	0		0	0	102.202950300009	102.302936799999
12876.75	0.0999874999979511	29	satiated	stimuli/non_foods\non-food_animate_mouse.jpg	1	1	1	non-food_animate_mouse	0	L	8	0	131	0		0	0	102.352947899999	102.452935399997
12914.25	0.0999870000086958	30	satiated	stimuli/non_foods\non-food_animate_butterfly.jpg	1	1	1	non-food_animate_butterfly	0	J	6	0	96	0		0	0	102.502945	102.602932000009
12951.75	0.100001900005736	31	satiated	stimuli/foods\green_beans.jpg	1	1	1	green_beans	1	S	13	0	61	0		0	0	102.652939899999	102.752941800005
12989.25	0.0999565999954939	32	satiated	stimuli/foods\taco.jpg	1	1	1	taco	1	R	12	0	274	0		0	0	102.802979500004	102.902936099999
13026.75	0.0999699999956647	33	satiated	stimuli/foods\cannoli.jpg	1	1	1	cannoli	1	Z	18	0	17	0		0	0	102.952945500001	103.052915499997
13064.25	0.0999859000003198	34	satiated	stimuli/non_foods\non-food_animate_deer.jpg	1	1	1	non-food_animate_deer	0	T	14	0	105	0		0	0	103.102946700004	103.202932600005
13101.75	0.0999847000057343	35	satiated	stimuli/foods\ginger_root.jpg	1	1	1	ginger_root	1	H	5	0	57	0		0	0	103.252947200002	103.352931900008
13139.25	0.0999843000026885	36	satiated	stimuli/non_foods\non-food_animate_bat.jpg	1	1	1	non-food_animate_bat	0	L	8	0	94	0		0	0	103.4029477	103.502932000003
13176.75	0.0999551999993855	37	satiated	stimuli/foods\fried_zucchini.jpg	1	1	1	fried_zucchini	1	D	2	0	51	0		0	0	103.552950400001	103.6529056
13214.25	0.0999889999948209	38	satiated	stimuli/foods\grilled_chicken_breast.jpg	1	1	1	grilled_chicken_breast	1	V	15	0	63	0		0	0	103.702940300005	103.8029293
13251.75	0.0999687000003178	39	satiated	stimuli/foods\cinnamon.jpg	1	1	1	cinnamon	1	T	14	0	30	0		0	0	103.852959199998	103.952927899998
13289.25	0.0999897000001511	40	satiated	stimuli/non_foods\non-food_animate_parrot.jpg	1	1	1	non-food_animate_parrot	0	P	11	0	133	0		0	0	104.002939099999	104.102928799999
13326.75	0.0999698000086937	41	satiated	stimuli/foods\raisins.jpg	1	1	1	raisins	1	V	15	0	252	0		0	0	104.152946000002	104.252915800011
13364.25	0.0999628999998095	42	satiated	stimuli/foods\mussels.jpg	1	1	1	mussels	1	F	3	0	86	0		0	0	104.302960100002	104.402923000001
13401.75	0.100015199990594	43	satiated	stimuli/non_foods\non-food_inanimate_pine_cone.jpg	1	1	1	non-food_inanimate_pine_cone	0	N	10	0	200	0		0	0	104.45290650001	104.5529217
13439.25	0.0999768000037875	44	satiated	stimuli/non_foods\non-food_animate_frog.jpg	1	1	1	non-food_animate_frog	0	F	3	0	113	0		0	0	104.602945100007	104.702921900011
13476.75	0.0999853999965126	45	satiated	stimuli/non_foods\non-food_animate_penguin.jpg	1	1	1	non-food_animate_penguin	0	M	9	0	135	0		0	0	104.752931700001	104.852917099997
13514.25	0.0999864999903366	46	satiated	stimuli/non_foods\non-food_animate_young_boy.jpg	1	1	1	non-food_animate_young_boy	0	J	6	0	156	0		0	0	104.902929600008	105.002916099998
13551.75	0.09998440000345	47	satiated	stimuli/foods\tomato.jpg	1	1	1	tomato	1	K	7	0	276	0		0	0	105.0529293	105.152913700003
13589.25	0.0999818999989657	48	satiated	stimuli/non_foods\non-food_inanimate_horn.jpg	1	1	1	non-food_inanimate_horn	0	F	3	0	190	0		0	0	105.202923999997	105.302905899996
13626.75	0.0999791000067489	49	satiated	stimuli/non_foods\non-food_inanimate_waterlily.jpg	1	1	1	non-food_inanimate_waterlily	0	D	2	0	226	0		0	0	105.352917199998	105.452896300005
13664.25	0.100006299995584	50	satiated	stimuli/non_foods\non-food_animate_Asian_man.jpg	1	1	1	non-food_animate_Asian_man	0	L	8	0	88	0		0	0	105.502901800006	105.602908100002
13701.75	0.0999810000066645	51	satiated	stimuli/foods\fennel.jpg	1	1	1	fennel	1	B	0	0	47	0		0	0	105.6529496	105.752930600007
13739.25	0.0999819999997271	52	satiated	stimuli/non_foods\non-food_animate_dolphin.jpg	1	1	1	non-food_animate_dolphin	0	P	11	0	106	0		0	0	105.802928800011	105.90291080001
13776.75	0.0999792999937199	53	satiated	stimuli/foods\chilli.jpg	1	1	1	chilli	1	C	1	0	25	0		0	0	105.952926900005	106.052906199999
13814.25	0.0999892999971053	54	satiated	stimuli/foods\cereal.jpg	1	1	1	cereal	1	V	15	0	22	0		0	0	106.1029174	106.202906699997
13851.75	0.099975799996173	55	satiated	stimuli/foods\salami.jpg	1	1	1	salami	1	F	3	0	263	0		0	0	106.252922900007	106.352898700003
13889.25	0.0999855000118259	56	satiated	stimuli/non_foods\non-food_inanimate_tent.jpg	1	1	1	non-food_inanimate_tent	0	Z	18	0	219	0		0	0	106.402926299997	106.502911800009
13926.75	0.0999945999938063	57	satiated	stimuli/non_foods\non-food_inanimate_rope.jpg	1	1	1	non-food_inanimate_rope	0	N	10	0	204	0		0	0	106.55290770001	106.652902300004
13964.25	0.0999878000002354	58	satiated	stimuli/non_foods\non-food_inanimate_headphones.jpg	1	1	1	non-food_inanimate_headphones	0	X	17	0	188	0		0	0	106.702912100009	106.802899900009
14001.75	0.0999880999879679	59	satiated	stimuli/foods\raw_ham.jpg	1	1	1	raw_ham	1	W	16	0	253	0		0	0	106.852911000009	106.952899099997
14039.25	0.0999881000025198	60	satiated	stimuli/foods\chocolate_bar.jpg	1	1	1	chocolate_bar	1	X	17	0	26	0		0	0	107.002903800007	107.102891900009
14076.75	0.0999870999949053	61	satiated	stimuli/foods\pineapple.jpg	1	1	1	pineapple	1	F	3	0	243	0		0	0	107.152908700009	107.252895800004
14114.25	0.0999779000121634	62	satiated	stimuli/non_foods\non-food_inanimate_towel.jpg	1	1	1	non-food_inanimate_towel	0	K	7	0	221	0		0	0	107.302908099999	107.402886000011
14151.75	0.0999894999986282	63	satiated	stimuli/non_foods\non-food_animate_duck.jpg	1	1	1	non-food_animate_duck	0	N	10	0	109	0		0	0	107.452908200008	107.552897700007
14189.25	0.100018100012676	64	satiated	stimuli/foods\mushroom.jpg	1	1	1	mushroom	1	V	15	0	85	0		0	0	107.602876899997	107.702895000009
14226.75	0.099988600006327	65	satiated	stimuli/non_foods\non-food_animate_raccoon.jpg	1	1	1	non-food_animate_raccoon	0	B	0	0	139	0		0	0	107.752902599997	107.852891200004
14264.25	0.0999971999990521	66	satiated	stimuli/non_foods\non-food_animate_mammoth.jpg	1	1	1	non-food_animate_mammoth	0	R	12	0	128	0		0	0	107.902892700004	108.002889900003
14301.75	0.09998220000125	67	satiated	stimuli/non_foods\non-food_inanimate_teddy_bear.jpg	1	1	1	non-food_inanimate_teddy_bear	0	V	15	0	218	0		0	0	108.052906099998	108.152888299999
14339.25	0.0999811999936355	68	satiated	stimuli/foods\potatoes.jpg	1	1	1	potatoes	1	G	4	0	248	0		0	0	108.202900900011	108.302882100004
14376.75	0.0999868999933824	69	satiated	stimuli/non_foods\non-food_inanimate_buds.jpg	1	1	1	non-food_inanimate_buds	0	T	14	0	166	0		0	0	108.352896900004	108.452883799997
14414.25	0.0999862999888137	70	satiated	stimuli/non_foods\non-food_animate_donkey.jpg	1	1	1	non-food_animate_donkey	0	B	0	0	107	0		0	0	108.50289470001	108.602880999999
14451.75	0.0999835999973584	71	satiated	stimuli/non_foods\non-food_inanimate_gloves.jpg	1	1	1	non-food_inanimate_gloves	0	L	8	0	183	0		0	0	108.652893999999	108.752877599996
14489.25	0.0999803000013344	72	satiated	stimuli/foods\salmon.jpg	1	1	1	salmon	1	X	17	0	264	0		0	0	108.802892300009	108.902872600011
14526.75	0.0999835000111489	73	satiated	stimuli/foods\eggplant.jpg	1	1	1	eggplant	1	W	16	0	46	0		0	0	108.952895499999	109.05287900001
14564.25	0.100024899991695	74	satiated	stimuli/non_foods\non-food_animate_clown.jpg	1	1	1	non-food_animate_clown	0	T	14	0	102	0		0	0	109.102888100009	109.202913000001
14601.75	0.0999866999918595	75	satiated	stimuli/non_foods\non-food_inanimate_nailpolish.jpg	1	1	1	non-food_inanimate_nailpolish	0	O	22	1	195	0		0	0	109.252888700008	109.3528754
14639.25	0.0999838000134332	76	satiated	stimuli/non_foods\non-food_inanimate_chair.jpg	1	1	1	non-food_inanimate_chair	0	V	15	0	172	0		0	0	109.402887999997	109.50287180001
14676.75	0.0999977000028593	77	satiated	stimuli/non_foods\non-food_animate_elephant.jpg	1	1	1	non-food_animate_elephant	0	G	4	0	111	0		0	0	109.552884200006	109.652881900009
14714.25	0.0999826000042958	78	satiated	stimuli/foods\baked_lamb_with_potatoes.jpg	1	1	1	baked_lamb_with_potatoes	1	M	9	0	8	1	a	0.443288099995698	1	109.702882900005	109.802865500009
14751.75	0.0999965999944834	79	satiated	stimuli/non_foods\non-food_animate_lion.jpg	1	1	1	non-food_animate_lion	0	J	6	0	125	0		0	0	109.852872200005	109.952868799999
14789.25	0.0999880000017583	80	satiated	stimuli/foods\capsicum.jpg	1	1	1	capsicum	1	G	4	0	18	0		0	0	110.002881100008	110.10286910001
14826.75	0.0999862000026042	81	satiated	stimuli/foods\honey.jpg	1	1	1	honey	1	L	8	0	66	0		0	0	110.1528788	110.252865000002
14864.25	0.0999805000028573	82	satiated	stimuli/foods\cream_donuts.jpg	1	1	1	cream_donuts	1	G	4	0	39	0		0	0	110.302876000002	110.402856500004
14901.75	0.100000599995838	83	satiated	stimuli/foods\artichoke.jpg	1	1	1	artichoke	1	H	5	0	3	0		0	0	110.452862400009	110.552863000004
14939.25	0.099988600006327	84	satiated	stimuli/non_foods\non-food_animate_yellow_bug.jpg	1	1	1	non-food_animate_yellow_bug	0	N	10	0	155	0		0	0	110.602873700002	110.702862300008
14976.75	0.0999878000002354	85	satiated	stimuli/non_foods\non-food_inanimate_bamboo.jpg	1	1	1	non-food_inanimate_bamboo	0	R	12	0	159	0		0	0	110.752874800004	110.852862600004
15014.25	0.0999811999936355	86	satiated	stimuli/foods\brussel_sprouts.jpg	1	1	1	brussel_sprouts	1	H	5	0	15	0		0	0	110.902874000007	111.0028552
15051.75	0.0999977000028593	87	satiated	stimuli/foods\lamb_chops.jpg	1	1	1	lamb_chops	1	S	13	0	70	0		0	0	111.052868800005	111.152866500008
15089.25	0.099983299995074	88	satiated	stimuli/foods\celery.jpg	1	1	1	celery	1	X	17	0	21	0		0	0	111.202871600006	111.302854900001
15126.75	0.0999801000143634	89	satiated	stimuli/non_foods\non-food_animate_skunk.jpg	1	1	1	non-food_animate_skunk	0	V	15	0	147	0		0	0	111.352867299996	111.452847400011
15164.25	0.0999869000079343	90	satiated	stimuli/non_foods\non-food_animate_caterpillar.jpg	1	1	1	non-food_animate_caterpillar	0	B	0	0	99	0		0	0	111.502866399998	111.602853300006
15201.75	0.0999625999975251	91	satiated	stimuli/foods\potato_and_green_bean_salad.jpg	1	1	1	potato_and_green_bean_salad	1	Z	18	0	246	0		0	0	111.652887500008	111.752850100005
15239.25	0.0999918000015896	92	satiated	stimuli/non_foods\non-food_inanimate_guitar.jpg	1	1	1	non-food_inanimate_guitar	0	F	3	0	185	0		0	0	111.802860099997	111.902851899998
15276.75	0.0999824999889825	93	satiated	stimuli/non_foods\non-food_animate_young_girl.jpg	1	1	1	non-food_animate_young_girl	0	L	8	0	157	0		0	0	111.952866500011	112.052849
15314.25	0.099983299995074	94	satiated	stimuli/non_foods\non-food_animate_alligator.jpg	1	1	1	non-food_animate_alligator	0	T	14	0	90	0		0	0	112.102860400002	112.202843699997
15351.75	0.0999885999917751	95	satiated	stimuli/foods\garlic.jpg	1	1	1	garlic	1	D	2	0	56	0		0	0	112.252860100009	112.3528487
15389.25	0.0999821000004886	96	satiated	stimuli/non_foods\non-food_inanimate_jeans.jpg	1	1	1	non-food_inanimate_jeans	0	V	15	0	191	0		0	0	112.402858000001	112.502840100002
15426.75	0.0999818999989657	97	satiated	stimuli/non_foods\non-food_inanimate_shell.jpg	1	1	1	non-food_inanimate_shell	0	F	3	0	206	0		0	0	112.552859800009	112.652841700008
15464.25	0.099991900002351	98	satiated	stimuli/foods\pear.jpg	1	1	1	pear	1	R	12	0	239	0		0	0	112.702849399997	112.802841299999
15501.75	0.0999855000118259	99	satiated	stimuli/non_foods\non-food_animate_cheetah.jpg	1	1	1	non-food_animate_cheetah	0	H	5	0	100	0		0	0	112.852852299999	112.95283780001
15539.25	0.0999851999949897	100	satiated	stimuli/non_foods\non-food_animate_horse.jpg	1	1	1	non-food_animate_horse	0	R	12	0	119	0		0	0	113.002844900009	113.102830100004
15576.75	0.0999844999896595	101	satiated	stimuli/non_foods\non-food_animate_baby_sitting.jpg	1	1	1	non-food_animate_baby_sitting	0	V	15	0	93	0		0	0	113.152849200007	113.252833699997
15614.25	0.100016199998208	102	satiated	stimuli/foods\oregano.jpg	1	1	1	oregano	1	K	7	0	231	0		0	0	113.302840400007	113.402856600005
15651.75	0.0999621999944793	103	satiated	stimuli/foods\gnocchi.jpg	1	1	1	gnocchi	1	X	17	0	58	0		0	0	113.452871500005	113.5528337
15689.25	0.0999848000064958	104	satiated	stimuli/foods\wafer.jpg	1	1	1	wafer	1	V	15	0	277	0		0	0	113.602845000001	113.702829800008
15726.75	0.0999914999993052	105	satiated	stimuli/foods\mandarin.jpg	1	1	1	mandarin	1	H	5	0	79	0		0	0	113.752840200003	113.852831700002
15764.25	0.0999785000021802	106	satiated	stimuli/non_foods\non-food_animate_tortoise.jpg	1	1	1	non-food_animate_tortoise	0	F	3	0	153	0		0	0	113.902839800008	114.00281830001
15801.75	0.0999918000015896	107	satiated	stimuli/non_foods\non-food_animate_sea_lion.jpg	1	1	1	non-food_animate_sea_lion	0	R	12	0	143	0		0	0	114.052836700008	114.152828500009
15839.25	0.099983299995074	108	satiated	stimuli/non_foods\non-food_animate_runner.jpg	1	1	1	non-food_animate_runner	0	C	1	0	142	0		0	0	114.202842700004	114.302825999999
15876.75	0.0999836999981198	109	satiated	stimuli/foods\fruit_salad.jpg	1	1	1	fruit_salad	1	D	2	0	55	0		0	0	114.352839800005	114.452823500003
15914.25	0.099958599996171	110	satiated	stimuli/non_foods\non-food_inanimate_fire_extinguisher.jpg	1	1	1	non-food_inanimate_fire_extinguisher	0	S	13	0	181	0		0	0	114.502865800008	114.602824400004
15951.75	0.0999755999946501	111	satiated	stimuli/non_foods\non-food_animate_kangaroo.jpg	1	1	1	non-food_animate_kangaroo	0	B	0	0	122	0		0	0	114.652837600006	114.752813200001
15989.25	0.0999800999998115	112	satiated	stimuli/non_foods\non-food_animate_seal.jpg	1	1	1	non-food_animate_seal	0	X	17	0	146	0		0	0	114.802833299997	114.902813399996
16026.75	0.100001200000406	113	satiated	stimuli/non_foods\non-food_animate_cat.jpg	1	1	1	non-food_animate_cat	0	G	4	0	98	0		0	0	114.952820999999	115.052822199999
16064.25	0.0999944000068353	114	satiated	stimuli/foods\cracker.jpg	1	1	1	cracker	1	B	0	0	38	0		0	0	115.102829199997	115.202823600004
16101.75	0.0999447000067448	115	satiated	stimuli/non_foods\non-food_inanimate_bowling_ball.jpg	1	1	1	non-food_inanimate_bowling_ball	0	J	6	0	162	0		0	0	115.252868199997	115.352812900004
16139.25	0.100044699996943	116	satiated	stimuli/foods\avocado.jpg	1	1	1	avocado	1	N	10	0	5	0		0	0	115.402821700001	115.502866399998
16176.75	0.0999714999925345	117	satiated	stimuli/foods\savory_pie.jpg	1	1	1	savory_pie	1	L	8	0	265	0		0	0	115.552819600009	115.652791100001
16214.25	0.0999905999924522	118	satiated	stimuli/non_foods\non-food_inanimate_watering_can.jpg	1	1	1	non-food_inanimate_watering_can	0	N	10	0	225	0		0	0	115.702820100007	115.802810699999
16251.75	0.0999884999910137	119	satiated	stimuli/non_foods\non-food_inanimate_nest.jpg	1	1	1	non-food_inanimate_nest	0	P	11	0	196	0		0	0	115.852821200009	115.9528097
16289.25	0.09998440000345	120	satiated	stimuli/non_foods\non-food_inanimate_table.jpg	1	1	1	non-food_inanimate_table	0	Z	18	0	217	0		0	0	116.002822199996	116.1028066
16326.75	0.0999762999999803	121	satiated	stimuli/foods\rockmelon.jpg	1	1	1	rockmelon	1	G	4	0	262	0		0	0	116.152823900004	116.252800200004
16364.25	0.0999661999958334	122	satiated	stimuli/non_foods\non-food_inanimate_construction_helment.jpg	1	1	1	non-food_inanimate_construction_helment	0	L	8	0	175	0		0	0	116.302836700008	116.402802900004
16401.75	0.0999873999971896	123	satiated	stimuli/foods\frankfurter_and_provolone_salad.jpg	1	1	1	frankfurter_and_provolone_salad	1	Z	18	0	49	0		0	0	116.45281860001	116.552806000007
16439.25	0.0999856999987969	124	satiated	stimuli/foods\swordfish.jpg	1	1	1	swordfish	1	L	8	0	273	0		0	0	116.602816400002	116.702802100001
16476.75	0.0999883999902522	125	satiated	stimuli/foods\oyster.jpg	1	1	1	oyster	1	P	11	0	233	0		0	0	116.752814200008	116.852802599999
16514.25	0.099990999995498	126	satiated	stimuli/foods\chocolate_chip_cookies.jpg	1	1	1	chocolate_chip_cookies	1	O	22	1	27	0		0	0	116.902814400004	117.002805399999
16551.75	0.0999719999963418	127	satiated	stimuli/foods\waffle.jpg	1	1	1	waffle	1	X	17	0	278	0		0	0	117.052827100008	117.152799100004
16589.25	0.0999888999940595	128	satiated	stimuli/foods\hamburger.jpg	1	1	1	hamburger	1	B	0	0	64	0		0	0	117.202808100003	117.302796999997
16626.75	0.099985300010303	129	satiated	stimuli/non_foods\non-food_inanimate_suitcase.jpg	1	1	1	non-food_inanimate_suitcase	0	R	12	0	215	1	a	0.443294600001536	1	117.352808099997	117.452793400007
16664.25	0.0999898000009125	130	satiated	stimuli/foods\lollies.jpg	1	1	1	lollies	1	B	0	0	78	0		0	0	117.502803199997	117.602792999998
16701.75	0.0999861000018427	131	satiated	stimuli/foods\watermelon.jpg	1	1	1	watermelon	1	T	14	0	279	0		0	0	117.652807100007	117.752793200008
16739.25	0.0999771000060719	132	satiated	stimuli/foods\chestnut.jpg	1	1	1	chestnut	1	V	15	0	24	0		0	0	117.802802799997	117.902779900003
16776.75	0.0999802000005729	133	satiated	stimuli/foods\fried_calamari.jpg	1	1	1	fried_calamari	1	P	11	0	50	0		0	0	117.952794800003	118.052775000004
16814.25	0.0999847999919439	134	satiated	stimuli/foods\dates.jpg	1	1	1	dates	1	F	3	0	43	0		0	0	118.102795800005	118.202780599997
16851.75	0.0999851999949897	135	satiated	stimuli/foods\minestrone_soup.jpg	1	1	1	minestrone_soup	1	X	17	0	82	0		0	0	118.252793200008	118.352778400003
16889.25	0.0999941999907605	136	satiated	stimuli/foods\clams.jpg	1	1	1	clams	1	M	9	0	32	0		0	0	118.402794100009	118.5027883
16926.75	0.100001999991946	137	satiated	stimuli/non_foods\non-food_inanimate_orchid.jpg	1	1	1	non-food_inanimate_orchid	0	F	3	0	198	0		0	0	118.552771300005	118.652773299997
16964.25	0.0999792000075104	138	satiated	stimuli/non_foods\non-food_inanimate_soccer_ball.jpg	1	1	1	non-food_inanimate_soccer_ball	0	P	11	0	210	0		0	0	118.702804100001	118.802783300009
17001.75	0.0999511999980314	139	satiated	stimuli/foods\donut.jpg	1	1	1	donut	1	N	10	0	44	0		0	0	118.8528105	118.952761699999
20197.75	0.0999765000015032	140	satiated	stimuli/non_foods\non-food_inanimate_clover.jpg	1	2	1	non-food_inanimate_clover	0	M	9	0	174	0		0	0	131.636011800001	131.735988300003
20235.25	0.100002799998038	141	satiated	stimuli/foods\beetroots.jpg	1	2	1	beetroots	1	S	13	0	10	0		0	0	131.786003300003	131.886006100001
20272.75	0.0999759999976959	142	satiated	stimuli/non_foods\non-food_inanimate_bicycle.jpg	1	2	1	non-food_inanimate_bicycle	0	K	7	0	161	0		0	0	131.936011199999	132.035987199997
20310.25	0.0999878000002354	143	satiated	stimuli/foods\spring_onions.jpg	1	2	1	spring_onions	1	D	2	0	269	0		0	0	132.085997500006	132.185985300006
20347.75	0.0999844999896595	144	satiated	stimuli/non_foods\non-food_inanimate_button.jpg	1	2	1	non-food_inanimate_button	0	F	3	0	168	0		0	0	132.236000600009	132.335985099999
20385.25	0.0999851999949897	145	satiated	stimuli/non_foods\non-food_inanimate_bush.jpg	1	2	1	non-food_inanimate_bush	0	L	8	0	167	0		0	0	132.385998900005	132.4859841
20422.75	0.0999867999926209	146	satiated	stimuli/non_foods\non-food_inanimate_highlighter.jpg	1	2	1	non-food_inanimate_highlighter	0	B	0	0	189	0		0	0	132.536019100007	132.6360059
20460.25	0.0999832000088645	147	satiated	stimuli/foods\blackberry.jpg	1	2	1	blackberry	1	C	1	0	11	0		0	0	132.685999399997	132.785982600006
20497.75	0.0999821000004886	148	satiated	stimuli/foods\nectarine.jpg	1	2	1	nectarine	1	H	5	0	87	0		0	0	132.835995800007	132.935977900008
20535.25	0.0999863999895751	149	satiated	stimuli/foods\almonds.jpg	1	2	1	almonds	1	D	2	0	0	0		0	0	132.985991000009	133.085977399998
20572.75	0.099989900001674	150	satiated	stimuli/non_foods\non-food_animate_chicken.jpg	1	2	1	non-food_animate_chicken	0	C	1	0	101	0		0	0	133.135987900008	133.23597780001
20610.25	0.09998220000125	151	satiated	stimuli/non_foods\non-food_animate_gorilla.jpg	1	2	1	non-food_animate_gorilla	0	W	16	0	116	0		0	0	133.285990700009	133.385972900011
20647.75	0.0999889000086114	152	satiated	stimuli/non_foods\non-food_animate_polar_bear.jpg	1	2	1	non-food_animate_polar_bear	0	T	14	0	137	0		0	0	133.435984199998	133.535973100006
20685.25	0.0999816999974428	153	satiated	stimuli/foods\cucumber.jpg	1	2	1	cucumber	1	M	9	0	41	0		0	0	133.585987400002	133.685969099999
20722.75	0.0999778999976115	154	satiated	stimuli/foods\fries.jpg	1	2	1	fries	1	S	13	0	52	0		0	0	133.735983600011	133.835961500008
20760.25	0.0999859000003198	155	satiated	stimuli/foods\orange.jpg	1	2	1	orange	1	T	14	0	230	0		0	0	133.885983100001	133.985969000001
20797.75	0.0999859000003198	156	satiated	stimuli/foods\omelette.jpg	1	2	1	omelette	1	R	12	0	228	0		0	0	134.035979699998	134.135965599999
20835.25	0.0999944000068353	157	satiated	stimuli/foods\toasted_bread_with_tomatoes.jpg	1	2	1	toasted_bread_with_tomatoes	1	T	14	0	275	0		0	0	134.185976499997	134.285970900004
20872.75	0.0999374999955762	158	satiated	stimuli/foods\coffee_beans.jpg	1	2	1	coffee_beans	1	H	5	0	34	0		0	0	134.336023600001	134.435961099996
20910.25	0.0999908999947365	159	satiated	stimuli/non_foods\non-food_animate_killer_whale.jpg	1	2	1	non-food_animate_killer_whale	0	G	4	0	123	0		0	0	134.485975700009	134.585966600003
20947.75	0.0999838999996427	160	satiated	stimuli/foods\hotdog.jpg	1	2	1	hotdog	1	F	3	0	67	0		0	0	134.635978100006	134.735962000006
20985.25	0.0999852999957511	161	satiated	stimuli/foods\mango.jpg	1	2	1	mango	1	K	7	0	80	0		0	0	134.78597360001	134.885958900006
21022.75	0.0999916000000667	162	satiated	stimuli/non_foods\non-food_inanimate_hay.jpg	1	2	1	non-food_inanimate_hay	0	Z	18	0	187	0		0	0	134.935967500001	135.035959100001
21060.25	0.0999859000003198	163	satiated	stimuli/non_foods\non-food_inanimate_stapler.jpg	1	2	1	non-food_inanimate_stapler	0	D	2	0	213	0		0	0	135.08597	135.1859559
21097.75	0.0999893000116572	164	satiated	stimuli/foods\hazelnuts.jpg	1	2	1	hazelnuts	1	L	8	0	65	0		0	0	135.235966799999	135.335956100011
21135.25	0.100021799997194	165	satiated	stimuli/foods\pomegranate.jpg	1	2	1	pomegranate	1	W	16	0	244	0		0	0	135.385970100004	135.485991900001
21172.75	0.100010699999984	166	satiated	stimuli/non_foods\non-food_inanimate_tree.jpg	1	2	1	non-food_inanimate_tree	0	P	11	0	223	0		0	0	135.535942100003	135.635952800003
21210.25	0.100028799992288	167	satiated	stimuli/foods\onion.jpg	1	2	1	onion	1	K	7	0	229	0		0	0	135.685964200005	135.785992999998
21247.75	0.0999852999957511	168	satiated	stimuli/foods\lasagna.jpg	1	2	1	lasagna	1	L	8	0	71	0		0	0	135.835963000005	135.935948300001
21285.25	0.100012199996854	169	satiated	stimuli/foods\chocolate_pudding.jpg	1	2	1	chocolate_pudding	1	D	2	0	29	0		0	0	135.985958200006	136.085970400003
21322.75	0.0999339999980293	170	satiated	stimuli/non_foods\non-food_animate_Causasian_man.jpg	1	2	1	non-food_animate_Causasian_man	0	C	1	0	89	0		0	0	136.136012200004	136.235946200002
21360.25	0.0999879000009969	171	satiated	stimuli/foods\peas.jpg	1	2	1	peas	1	F	3	0	240	0		0	0	136.285954999999	136.3859429
21397.75	0.0999831999943126	172	satiated	stimuli/foods\pork_and_rice.jpg	1	2	1	pork_and_rice	1	T	14	0	245	0		0	0	136.435958800008	136.535942000002
21435.25	0.0999864000041271	173	satiated	stimuli/foods\lentils.jpg	1	2	1	lentils	1	K	7	0	74	0		0	0	136.585955500006	136.68594190001
21472.75	0.0999920000031125	174	satiated	stimuli/foods\raw_sausage.jpg	1	2	1	raw_sausage	1	S	13	0	254	0		0	0	136.735947900001	136.835939900004
21510.25	0.0999841999873752	175	satiated	stimuli/non_foods\non-food_animate_snail.jpg	1	2	1	non-food_animate_snail	0	R	12	0	149	0		0	0	136.885953800011	136.985937999998
21547.75	0.0999864000041271	176	satiated	stimuli/non_foods\non-food_inanimate_leaf.jpg	1	2	1	non-food_inanimate_leaf	0	B	0	0	192	0		0	0	137.035952999999	137.135939400003
21585.25	0.0999689000018407	177	satiated	stimuli/non_foods\non-food_animate_camel.jpg	1	2	1	non-food_animate_camel	0	L	8	0	97	0		0	0	137.185970100007	137.285939000009
21622.75	0.0999582000076771	178	satiated	stimuli/foods\steak.jpg	1	2	1	steak	1	P	11	0	270	0		0	0	137.335953100002	137.43591130001
21660.25	0.099975799996173	179	satiated	stimuli/foods\egg.jpg	1	2	1	egg	1	X	17	0	45	0		0	0	137.485949200011	137.585925000007
21697.75	0.0999867999926209	180	satiated	stimuli/non_foods\non-food_animate_peacock.jpg	1	2	1	non-food_animate_peacock	0	S	13	0	134	0		0	0	137.635945900009	137.735932700001
21735.25	0.0999936000007438	181	satiated	stimuli/non_foods\non-food_inanimate_folding_chair.jpg	1	2	1	non-food_inanimate_folding_chair	0	G	4	0	182	0		0	0	137.785938800007	137.885932400008
21772.75	0.0999630000005709	182	satiated	stimuli/non_foods\non-food_animate_eagle.jpg	1	2	1	non-food_animate_eagle	0	H	5	0	110	0		0	0	137.935945000005	138.035908000005
21810.25	0.099969200004125	183	satiated	stimuli/foods\carrot.jpg	1	2	1	carrot	1	Z	18	0	19	0		0	0	138.085928200002	138.185897400006
21847.75	0.0999786999891512	184	satiated	stimuli/non_foods\non-food_animate_rhino.jpg	1	2	1	non-food_animate_rhino	0	D	2	0	141	0		0	0	138.235941400009	138.335920099998
21885.25	0.09998220000125	185	satiated	stimuli/foods\roasted_chicken.jpg	1	2	1	roasted_chicken	1	V	15	0	261	0		0	0	138.385930999997	138.485913199998
21922.75	0.0999917000008281	186	satiated	stimuli/foods\chocolate_pralines.jpg	1	2	1	chocolate_pralines	1	S	13	0	28	0		0	0	138.535923200005	138.635914900005
21960.25	0.099971400006325	187	satiated	stimuli/foods\red_cabbage.jpg	1	2	1	red_cabbage	1	K	7	0	256	0		0	0	138.685927600003	138.78589900001
21997.75	0.0999872999964282	188	satiated	stimuli/non_foods\non-food_inanimate_briefcase.jpg	1	2	1	non-food_inanimate_briefcase	0	B	0	0	163	0		0	0	138.835932900009	138.935920200005
22035.25	0.0999772999930428	189	satiated	stimuli/foods\cherry.jpg	1	2	1	cherry	1	Z	18	0	23	0		0	0	138.985943000007	139.0859203
22072.75	0.0999834000103874	190	satiated	stimuli/foods\apple.jpg	1	2	1	apple	1	G	4	0	1	0		0	0	139.135936699997	139.235920100007
22110.25	0.09997489998932	191	satiated	stimuli/non_foods\non-food_animate_monkey.jpg	1	2	1	non-food_animate_monkey	0	F	3	0	130	0		0	0	139.285929400008	139.385904299997
22147.75	0.0999834999965969	192	satiated	stimuli/foods\cooked_ham.jpg	1	2	1	cooked_ham	1	G	4	0	35	0		0	0	139.435920600008	139.535904100005
22185.25	0.100041900004726	193	satiated	stimuli/foods\brie.jpg	1	2	1	brie	1	W	16	0	12	0		0	0	139.585906799999	139.685948700004
22222.75	0.0999633000028552	194	satiated	stimuli/foods\peach.jpg	1	2	1	peach	1	T	14	0	238	0		0	0	139.735939899998	139.835903200001
22260.25	0.100005899992539	195	satiated	stimuli/foods\strawberry.jpg	1	2	1	strawberry	1	D	2	0	272	0		0	0	139.885907500007	139.9859134
22297.75	0.0999888999940595	196	satiated	stimuli/foods\coconut.jpg	1	2	1	coconut	1	F	3	0	33	0		0	0	140.035919800008	140.135908700002
22335.25	0.0999862000026042	197	satiated	stimuli/foods\lettuce.jpg	1	2	1	lettuce	1	W	16	0	75	0		0	0	140.185919900003	140.285906100005
22372.75	0.099980199986021	198	satiated	stimuli/non_foods\non-food_inanimate_wrench.jpg	1	2	1	non-food_inanimate_wrench	0	C	1	0	227	0		0	0	140.335921700011	140.435901899997
22410.25	0.100022500002524	199	satiated	stimuli/non_foods\non-food_inanimate_fern.jpg	1	2	1	non-food_inanimate_fern	0	V	15	0	180	0		0	0	140.485915900004	140.585938400007
22447.75	0.0999848999927053	200	satiated	stimuli/foods\pumpkin.jpg	1	2	1	pumpkin	1	B	0	0	250	0		0	0	140.635918900007	140.7359038
22485.25	0.0999688000010792	201	satiated	stimuli/non_foods\non-food_animate_giraffe.jpg	1	2	1	non-food_animate_giraffe	0	M	9	0	115	0		0	0	140.785931100007	140.885899900008
22522.75	0.0999815999966813	202	satiated	stimuli/non_foods\non-food_inanimate_cupboard.jpg	1	2	1	non-food_inanimate_cupboard	0	H	5	0	177	0		0	0	140.935917700001	141.035899299997
22560.25	0.0999862999888137	203	satiated	stimuli/non_foods\non-food_inanimate_cactus_pot_plant.jpg	1	2	1	non-food_inanimate_cactus_pot_plant	0	F	3	0	169	0		0	0	141.085913900009	141.185900199998
22597.75	0.099990999995498	204	satiated	stimuli/foods\stew_with_potatoes_and_carrots.jpg	1	2	1	stew_with_potatoes_and_carrots	1	L	8	0	271	0		0	0	141.235910000003	141.335900999999
22635.25	0.0999948999960907	205	satiated	stimuli/non_foods\non-food_animate_green_bug.jpg	1	2	1	non-food_animate_green_bug	0	G	4	0	118	0		0	0	141.385921900001	141.485916799997
22672.75	0.099947599999723	206	satiated	stimuli/non_foods\non-food_animate_llama.jpg	1	2	1	non-food_animate_llama	0	F	3	0	127	0		0	0	141.535944000003	141.635891600003
22710.25	0.0999871999956667	207	satiated	stimuli/non_foods\non-food_inanimate_nettle.jpg	1	2	1	non-food_inanimate_nettle	0	X	17	0	197	0		0	0	141.685904900005	141.785892100001
22747.75	0.0999837999988813	208	satiated	stimuli/non_foods\non-food_inanimate_socks.jpg	1	2	1	non-food_inanimate_socks	0	I	21	1	211	0		0	0	141.835907900007	141.935891700006
22785.25	0.0999789999914356	209	satiated	stimuli/foods\figs.jpg	1	2	1	figs	1	N	10	0	48	0		0	0	141.985908800008	142.0858878
22822.75	0.0999869999941438	210	satiated	stimuli/foods\pasta_carbonara.jpg	1	2	1	pasta_carbonara	1	X	17	0	236	0		0	0	142.135900100009	142.235887100003
22860.25	0.09998220000125	211	satiated	stimuli/non_foods\non-food_inanimate_padlock.jpg	1	2	1	non-food_inanimate_padlock	0	V	15	0	199	1	a	0.556901699994341	1	142.285905600002	142.385887800003
22897.75	0.0999841000011656	212	satiated	stimuli/foods\fruit_flan.jpg	1	2	1	fruit_flan	1	K	7	0	53	0		0	0	142.435898900003	142.535883000004
22935.25	0.0999672999896575	213	satiated	stimuli/non_foods\non-food_inanimate_stoplight.jpg	1	2	1	non-food_inanimate_stoplight	0	L	8	0	214	0		0	0	142.585919500008	142.685886799998
22972.75	0.099983299995074	214	satiated	stimuli/foods\cinnamon_sroll.jpg	1	2	1	cinnamon_sroll	1	D	2	0	31	0		0	0	142.735899000007	142.835882300002
23010.25	0.0999813999951584	215	satiated	stimuli/non_foods\non-food_animate_squirrel.jpg	1	2	1	non-food_animate_squirrel	0	B	0	0	150	0		0	0	142.885897400003	142.985878799998
23047.75	0.099990999995498	216	satiated	stimuli/foods\grapefruits.jpg	1	2	1	grapefruits	1	T	14	0	59	0		0	0	143.035893200009	143.135884200005
23085.25	0.100004599997192	217	satiated	stimuli/non_foods\non-food_animate_porcupine.jpg	1	2	1	non-food_animate_porcupine	0	M	9	0	138	0		0	0	143.185887800006	143.285892400003
23122.75	0.0999906999932136	218	satiated	stimuli/non_foods\non-food_animate_sea_turtle.jpg	1	2	1	non-food_animate_sea_turtle	0	W	16	0	144	0		0	0	143.335888500005	143.435879199998
23160.25	0.0999859999865294	219	satiated	stimuli/non_foods\non-food_animate_dachshund.jpg	1	2	1	non-food_animate_dachshund	0	V	15	0	104	0		0	0	143.48588800001	143.585873999997
23197.75	0.0999898000009125	220	satiated	stimuli/non_foods\non-food_animate_student_female.jpg	1	2	1	non-food_animate_student_female	0	T	14	0	151	0		0	0	143.635880200003	143.735870000004
23235.25	0.099989900001674	221	satiated	stimuli/foods\fruit_pie.jpg	1	2	1	fruit_pie	1	Z	18	0	54	0		0	0	143.785885000005	143.885874900006
23272.75	0.0999835999973584	222	satiated	stimuli/foods\ice_cream.jpg	1	2	1	ice_cream	1	J	6	0	68	0		0	0	143.935886200008	144.035869800005
23310.25	0.0999841000011656	223	satiated	stimuli/foods\kiwi.jpg	1	2	1	kiwi	1	R	12	0	69	0		0	0	144.085887000008	144.18587110001
23347.75	0.100009899993893	224	satiated	stimuli/non_foods\non-food_animate_bee.jpg	1	2	1	non-food_animate_bee	0	N	10	0	95	0		0	0	144.235882000008	144.335891900002
23385.25	0.099974700002349	225	satiated	stimuli/non_foods\non-food_animate_dragonfly.jpg	1	2	1	non-food_animate_dragonfly	0	L	8	0	108	0		0	0	144.3858913	144.485866000003
23422.75	0.0999913999985438	226	satiated	stimuli/foods\baked_cod_with_carrots_and_green_beans.jpg	1	2	1	baked_cod_with_carrots_and_green_beans	1	W	16	0	7	0		0	0	144.53587610001	144.635867500008
23460.25	0.0999985000089509	227	satiated	stimuli/foods\pepperoni_pizza.jpg	1	2	1	pepperoni_pizza	1	N	10	0	241	0		0	0	144.685865899999	144.785864400008
23497.75	0.09998660000565	228	satiated	stimuli/non_foods\non-food_inanimate_grass.jpg	1	2	1	non-food_inanimate_grass	0	A	19	1	184	0		0	0	144.835866299996	144.935852900002
23535.25	0.0999663999973563	229	satiated	stimuli/foods\cupcake.jpg	1	2	1	cupcake	1	V	15	0	42	0		0	0	144.985892299999	145.085858699997
23572.75	0.0999815999966813	230	satiated	stimuli/non_foods\non-food_animate_slug.jpg	1	2	1	non-food_animate_slug	0	C	1	0	148	0		0	0	145.135876200002	145.235857799998
23610.25	0.0999857999995584	231	satiated	stimuli/non_foods\non-food_inanimate_alarm_clock.jpg	1	2	1	non-food_inanimate_alarm_clock	0	H	5	0	158	1	a	0.541827000008198	1	145.2858729	145.3858587
23647.75	0.0999746000015875	232	satiated	stimuli/non_foods\non-food_inanimate_skateboard.jpg	1	2	1	non-food_inanimate_skateboard	0	K	7	0	208	0		0	0	145.435872100003	145.535846700004
23685.25	0.0999924999923678	233	satiated	stimuli/non_foods\non-food_inanimate_short_sleeved_shirt.jpg	1	2	1	non-food_inanimate_short_sleeved_shirt	0	P	11	0	207	0		0	0	145.585856500009	145.685849000001
23722.75	0.0999898000009125	234	satiated	stimuli/non_foods\non-food_inanimate_toilet.jpg	1	2	1	non-food_inanimate_toilet	0	Z	18	0	220	0		0	0	145.735858	145.835847800001
23760.25	0.099997400000575	235	satiated	stimuli/foods\linguine_with_clams.jpg	1	2	1	linguine_with_clams	1	D	2	0	77	0		0	0	145.885846000005	145.985843400005
23797.75	0.0999611000006553	236	satiated	stimuli/non_foods\non-food_animate_owl.jpg	1	2	1	non-food_animate_owl	0	P	11	0	132	0		0	0	146.035877500006	146.135838600007
23835.25	0.0999810999928741	237	satiated	stimuli/foods\green_olives.jpg	1	2	1	green_olives	1	M	9	0	62	0		0	0	146.185857500008	146.285838600001
23872.75	0.0999904000054812	238	satiated	stimuli/foods\brownie.jpg	1	2	1	brownie	1	H	5	0	14	0		0	0	146.335851399999	146.435841800005
23910.25	0.0999860000010813	239	satiated	stimuli/non_foods\non-food_inanimate_chandelier.jpg	1	2	1	non-food_inanimate_chandelier	0	S	13	0	173	0		0	0	146.485849400007	146.585835400008
23947.75	0.0999922999908449	240	satiated	stimuli/foods\cauliflower.jpg	1	2	1	cauliflower	1	M	9	0	20	0		0	0	146.63584480001	146.735837100001
23985.25	0.0999859000003198	241	satiated	stimuli/non_foods\non-food_inanimate_toy_airplane.jpg	1	2	1	non-food_inanimate_toy_airplane	0	X	17	0	222	0		0	0	146.785846400002	146.885832300002
24022.75	0.0999930999969365	242	satiated	stimuli/non_foods\non-food_inanimate_moss.jpg	1	2	1	non-food_inanimate_moss	0	Z	18	0	194	0		0	0	146.935829000009	147.035822100006
24060.25	0.100011499991524	243	satiated	stimuli/non_foods\non-food_animate_lizard.jpg	1	2	1	non-food_animate_lizard	0	F	3	0	126	0		0	0	147.085827300005	147.185838799996
24097.75	0.100002500010305	244	satiated	stimuli/non_foods\non-food_animate_seahorse.jpg	1	2	1	non-food_animate_seahorse	0	D	2	0	145	0		0	0	147.235852199999	147.33585470001
24135.25	0.0999857999995584	245	satiated	stimuli/non_foods\non-food_inanimate_skirt.jpg	1	2	1	non-food_inanimate_skirt	0	Z	18	0	209	0		0	0	147.385852200008	147.485838000008
24172.75	0.0999579000053927	246	satiated	stimuli/non_foods\non-food_animate_iguana.jpg	1	2	1	non-food_animate_iguana	0	R	12	0	121	0		0	0	147.535878800001	147.635836700007
24210.25	0.0999719999963418	247	satiated	stimuli/non_foods\non-food_inanimate_ring.jpg	1	2	1	non-food_inanimate_ring	0	K	7	0	203	0		0	0	147.685849000001	147.785820999998
24247.75	0.099960599996848	248	satiated	stimuli/foods\corncob.jpg	1	2	1	corncob	1	N	10	0	37	0		0	0	147.835872700001	147.935833299998
24285.25	0.0999865000048885	249	satiated	stimuli/non_foods\non-food_animate_german_shepherd.jpg	1	2	1	non-food_animate_german_shepherd	0	W	16	0	114	0		0	0	147.9858446	148.085831100005
24322.75	0.0999918000015896	250	satiated	stimuli/non_foods\non-food_inanimate_broom.jpg	1	2	1	non-food_inanimate_broom	0	T	14	0	164	0		0	0	148.135840000003	148.235831800004
24360.25	0.0999882000032812	251	satiated	stimuli/non_foods\non-food_inanimate_drum_set.jpg	1	2	1	non-food_inanimate_drum_set	0	P	11	0	179	0		0	0	148.285841899997	148.3858301
24397.75	0.0999907000077656	252	satiated	stimuli/non_foods\non-food_inanimate_couch.jpg	1	2	1	non-food_inanimate_couch	0	B	0	0	176	0		0	0	148.435840999999	148.535831700006
24435.25	0.0999534000002313	253	satiated	stimuli/foods\pancakes.jpg	1	2	1	pancakes	1	J	6	0	234	0		0	0	148.585889399998	148.685842799998
24472.75	0.0999880000017583	254	satiated	stimuli/non_foods\non-food_inanimate_sun_flower.jpg	1	2	1	non-food_inanimate_sun_flower	0	D	2	0	216	0		0	0	148.735836000007	148.835824000009
24510.25	0.0999676000064937	255	satiated	stimuli/foods\lemon_meringue_pie.jpg	1	2	1	lemon_meringue_pie	1	J	6	0	73	0		0	0	148.885855500004	148.985823100011
24547.75	0.0999803000013344	256	satiated	stimuli/non_foods\non-food_inanimate_lighter.jpg	1	2	1	non-food_inanimate_lighter	0	S	13	0	193	0		0	0	149.035840600001	149.135820900003
24585.25	0.0999870000086958	257	satiated	stimuli/non_foods\non-food_animate_pigeon.jpg	1	2	1	non-food_animate_pigeon	0	B	0	0	136	0		0	0	149.185831900002	149.285818900011
24622.75	0.0999880000017583	258	satiated	stimuli/foods\oven-roasted_tomatoes.jpg	1	2	1	oven-roasted_tomatoes	1	S	13	0	232	0		0	0	149.335833899997	149.435821899999
24660.25	0.0999835999973584	259	satiated	stimuli/non_foods\non-food_animate_ant.jpg	1	2	1	non-food_animate_ant	0	H	5	0	91	0		0	0	149.485833300001	149.585816899998
24697.75	0.099967000001925	260	satiated	stimuli/foods\pea_pod.jpg	1	2	1	pea_pod	1	D	2	0	237	0		0	0	149.635847900005	149.735814900007
24735.25	0.0999827000050573	261	satiated	stimuli/non_foods\non-food_animate_ram.jpg	1	2	1	non-food_animate_ram	0	W	16	0	140	0		0	0	149.785829300003	149.885812000008
24772.75	0.0999869999941438	262	satiated	stimuli/non_foods\non-food_animate_millipede.jpg	1	2	1	non-food_animate_millipede	0	P	11	0	129	0		0	0	149.935826300003	150.035813299997
24810.25	0.0999890999955824	263	satiated	stimuli/foods\spaghetti_with_meat_sauce.jpg	1	2	1	spaghetti_with_meat_sauce	1	T	14	0	267	0		0	0	150.08582600001	150.185815100005
24847.75	0.100033099995926	264	satiated	stimuli/non_foods\non-food_inanimate_desk.jpg	1	2	1	non-food_inanimate_desk	0	S	13	0	178	0		0	0	150.235820600006	150.335853700002
24885.25	0.0999582000076771	265	satiated	stimuli/foods\rice_cake.jpg	1	2	1	rice_cake	1	H	5	0	258	0		0	0	150.3858511	150.485809300008
24922.75	0.0999826999905054	266	satiated	stimuli/foods\bagel.jpg	1	2	1	bagel	1	V	15	0	6	0		0	0	150.53582450001	150.6358072
24960.25	0.0999892999971053	267	satiated	stimuli/non_foods\non-food_animate_hummingbird.jpg	1	2	1	non-food_animate_hummingbird	0	C	1	0	120	0		0	0	150.685819000006	150.785808300003
24997.75	0.0999856999987969	268	satiated	stimuli/foods\museli_bars.jpg	1	2	1	museli_bars	1	G	4	0	84	0		0	0	150.835823400004	150.935809100003
25035.25	0.0999837999988813	269	satiated	stimuli/foods\prawn.jpg	1	2	1	prawn	1	M	9	0	249	0		0	0	150.9858179	151.085801699999
25072.75	0.0999866999918595	270	satiated	stimuli/foods\radish.jpg	1	2	1	radish	1	X	17	0	251	0		0	0	151.135816200011	151.235802900002
25110.25	0.0999841000011656	271	satiated	stimuli/foods\cabbage.jpg	1	2	1	cabbage	1	M	9	0	16	0		0	0	151.285816800009	151.385800900011
25147.75	0.0999721999978647	272	satiated	stimuli/foods\mortadella.jpg	1	2	1	mortadella	1	D	2	0	83	0		0	0	151.435824800006	151.535797000004
25185.25	0.0999870999949053	273	satiated	stimuli/foods\pickles.jpg	1	2	1	pickles	1	S	13	0	242	0		0	0	151.585813900005	151.685801
25222.75	0.0999819999997271	274	satiated	stimuli/non_foods\non-food_inanimate_scissors.jpg	1	2	1	non-food_inanimate_scissors	0	K	7	0	205	0		0	0	151.735813200008	151.835795200008
25260.25	0.0999823000020115	275	satiated	stimuli/non_foods\non-food_inanimate_bucket.jpg	1	2	1	non-food_inanimate_bucket	0	R	12	0	165	0		0	0	151.885797399998	151.9857797
25297.75	0.100061000004644	276	satiated	stimuli/foods\banana.jpg	1	2	1	banana	1	N	10	0	9	0		0	0	152.0357869	152.135847900005
25335.25	0.0999694000056479	277	satiated	stimuli/foods\papaya.jpg	1	2	1	papaya	1	F	3	0	235	0		0	0	152.185820600003	152.285790000009
25372.75	0.099977999998373	278	satiated	stimuli/non_foods\non-food_inanimate_canoe.jpg	1	2	1	non-food_inanimate_canoe	0	L	8	0	170	0		0	0	152.335806600007	152.435784600006
25410.25	0.0999836999981198	279	satiated	stimuli/non_foods\non-food_animate_grasshopper.jpg	1	2	1	non-food_animate_grasshopper	0	C	1	0	117	0		0	0	152.485804299999	152.585787999997
27339.25	0.0999726000009105	280	satiated	stimuli/non_foods\non-food_inanimate_towel.jpg	1	3	1	non-food_inanimate_towel	0	F	3	0	221	0		0	0	160.202401000002	160.302373600003
27376.75	0.0999856999987969	281	satiated	stimuli/foods\lemon_meringue_pie.jpg	1	3	1	lemon_meringue_pie	1	M	9	0	73	0		0	0	160.352389899999	160.452375599998
27414.25	0.0999836999981198	282	satiated	stimuli/foods\onion.jpg	1	3	1	onion	1	L	8	0	229	0		0	0	160.502387700006	160.602371400004
27451.75	0.0999997000035364	283	satiated	stimuli/non_foods\non-food_inanimate_waterlily.jpg	1	3	1	non-food_inanimate_waterlily	0	R	12	0	226	0		0	0	160.652384700006	160.75238440001
27489.25	0.0999941999907605	284	satiated	stimuli/non_foods\non-food_inanimate_pine_cone.jpg	1	3	1	non-food_inanimate_pine_cone	0	D	2	0	200	0		0	0	160.802381700007	160.902375899997
27526.75	0.0999838999996427	285	satiated	stimuli/foods\gnocchi.jpg	1	3	1	gnocchi	1	J	6	0	58	0		0	0	160.9523911	161.052374999999
27564.25	0.0999888999940595	286	satiated	stimuli/foods\savory_pie.jpg	1	3	1	savory_pie	1	V	15	0	265	0		0	0	161.102392500004	161.202381399999
27601.75	0.0999146999965888	287	satiated	stimuli/foods\cream_donuts.jpg	1	3	1	cream_donuts	1	H	5	0	39	0		0	0	161.252431500005	161.352346200001
27639.25	0.0999824000027729	288	satiated	stimuli/non_foods\non-food_animate_kangaroo.jpg	1	3	1	non-food_animate_kangaroo	0	Z	18	0	122	0		0	0	161.402386000002	161.502368400004
27676.75	0.099976900004549	289	satiated	stimuli/foods\lentils.jpg	1	3	1	lentils	1	D	2	0	74	0		0	0	161.552393100006	161.652370000011
27714.25	0.0999857999995584	290	satiated	stimuli/foods\wafer.jpg	1	3	1	wafer	1	N	10	0	277	0		0	0	161.702383000011	161.80236880001
27751.75	0.09998660000565	291	satiated	stimuli/non_foods\non-food_animate_raccoon.jpg	1	3	1	non-food_animate_raccoon	0	T	14	0	139	0		0	0	161.852382199999	161.952368800004
27789.25	0.0999878000002354	292	satiated	stimuli/non_foods\non-food_animate_elephant.jpg	1	3	1	non-food_animate_elephant	0	H	5	0	111	0		0	0	162.002380000005	162.102367800006
27826.75	0.0999824000027729	293	satiated	stimuli/non_foods\non-food_animate_woman.jpg	1	3	1	non-food_animate_woman	0	R	12	0	154	0		0	0	162.152372800003	162.252355200006
27864.25	0.0999910000100499	294	satiated	stimuli/non_foods\non-food_animate_tortoise.jpg	1	3	1	non-food_animate_tortoise	0	C	1	0	153	0		0	0	162.302372699996	162.402363700006
27901.75	0.0999815000104718	295	satiated	stimuli/non_foods\non-food_animate_frog.jpg	1	3	1	non-food_animate_frog	0	H	5	0	113	0		0	0	162.452379199996	162.552360700007
27939.25	0.100013800009037	296	satiated	stimuli/non_foods\non-food_inanimate_ring.jpg	1	3	1	non-food_inanimate_ring	0	W	16	0	203	0		0	0	162.602348100001	162.70236190001
27976.75	0.099984599990421	297	satiated	stimuli/foods\lime.jpg	1	3	1	lime	1	C	1	0	76	0		0	0	162.752376300006	162.852360899997
28014.25	0.100007799992454	298	satiated	stimuli/foods\oyster.jpg	1	3	1	oyster	1	V	15	0	233	0		0	0	162.902377300008	163.002385100001
28051.75	0.0999572000000626	299	satiated	stimuli/non_foods\non-food_inanimate_chair.jpg	1	3	1	non-food_inanimate_chair	0	C	1	0	172	0		0	0	163.052398500004	163.152355700004
28089.25	0.0999734999932116	300	satiated	stimuli/foods\lettuce.jpg	1	3	1	lettuce	1	H	5	0	75	0		0	0	163.202369400009	163.302342900002
28126.75	0.0999892999971053	301	satiated	stimuli/foods\almonds.jpg	1	3	1	almonds	1	Z	18	0	0	0		0	0	163.352363800004	163.452353100001
28164.25	0.0999829000065802	302	satiated	stimuli/non_foods\non-food_inanimate_socks.jpg	1	3	1	non-food_inanimate_socks	0	F	3	0	211	0		0	0	163.502369399997	163.602352300004
28201.75	0.0999818999989657	303	satiated	stimuli/foods\chocolate_pralines.jpg	1	3	1	chocolate_pralines	1	N	10	0	28	0		0	0	163.652361100001	163.752343
28239.25	0.0999868000071729	304	satiated	stimuli/foods\waffle.jpg	1	3	1	waffle	1	D	2	0	278	0		0	0	163.802361399998	163.902348200005
28276.75	0.0999821000004886	305	satiated	stimuli/foods\brie.jpg	1	3	1	brie	1	C	1	0	12	0		0	0	163.952363100005	164.052345200005
28314.25	0.100008599998546	306	satiated	stimuli/non_foods\non-food_animate_young_boy.jpg	1	3	1	non-food_animate_young_boy	0	W	16	0	156	0		0	0	164.102357700001	164.2023663
28351.75	0.0999841000011656	307	satiated	stimuli/foods\chocolate_chip_cookies.jpg	1	3	1	chocolate_chip_cookies	1	K	7	0	27	0		0	0	164.252363000007	164.352347100008
28389.25	0.0999865000048885	308	satiated	stimuli/foods\cracker.jpg	1	3	1	cracker	1	F	3	0	38	0		0	0	164.402355500002	164.502342000007
28426.75	0.0999878000002354	309	satiated	stimuli/foods\watermelon.jpg	1	3	1	watermelon	1	W	16	0	279	0		0	0	164.552355899999	164.6523437
28464.25	0.0999900000024354	310	satiated	stimuli/non_foods\non-food_animate_donkey.jpg	1	3	1	non-food_animate_donkey	0	H	5	0	107	0		0	0	164.702369100007	164.802359100009
28501.75	0.0999546999955783	311	satiated	stimuli/foods\smoked_ham.jpg	1	3	1	smoked_ham	1	K	7	0	266	0		0	0	164.852381100005	164.952335800001
28539.25	0.0999848999927053	312	satiated	stimuli/non_foods\non-food_animate_llama.jpg	1	3	1	non-food_animate_llama	0	S	13	0	127	0		0	0	165.00235200001	165.102336900003
28576.75	0.0999827000050573	313	satiated	stimuli/non_foods\non-food_animate_peacock.jpg	1	3	1	non-food_animate_peacock	0	J	6	0	134	0		0	0	165.152349099997	165.252331800002
28614.25	0.0999841000011656	314	satiated	stimuli/foods\lasagna.jpg	1	3	1	lasagna	1	P	11	0	71	0		0	0	165.302347899997	165.402331999998
28651.75	0.0999849999934668	315	satiated	stimuli/non_foods\non-food_animate_seal.jpg	1	3	1	non-food_animate_seal	0	Z	18	0	146	0		0	0	165.452348000006	165.552333
28689.25	0.0999835999973584	316	satiated	stimuli/foods\carrot.jpg	1	3	1	carrot	1	R	12	0	19	0		0	0	165.602345200008	165.702328800005
28726.75	0.100015000003623	317	satiated	stimuli/non_foods\non-food_animate_young_girl.jpg	1	3	1	non-food_animate_young_girl	0	L	8	0	157	0		0	0	165.752336899997	165.852351900001
28764.25	0.0999841000011656	318	satiated	stimuli/foods\cabbage.jpg	1	3	1	cabbage	1	B	0	0	16	0		0	0	165.902344100003	166.002328200004
28801.75	0.0999848999927053	319	satiated	stimuli/non_foods\non-food_inanimate_bed.jpg	1	3	1	non-food_inanimate_bed	0	A	19	1	160	0		0	0	166.052338000009	166.152322900001
28839.25	0.0999608999991324	320	satiated	stimuli/foods\risotto_with_peas_and_asparagus_tips.jpg	1	3	1	risotto_with_peas_and_asparagus_tips	1	F	3	0	259	0		0	0	166.2023414	166.302302299999
28876.75	0.0999550999986241	321	satiated	stimuli/foods\garlic.jpg	1	3	1	garlic	1	X	17	0	56	0		0	0	166.352340500001	166.4522956
28914.25	0.0999517000018386	322	satiated	stimuli/foods\tomato.jpg	1	3	1	tomato	1	B	0	0	276	1	a	0.541855399991618	1	166.502372100003	166.602323800005
28951.75	0.0999883999902522	323	satiated	stimuli/non_foods\non-food_inanimate_toy_airplane.jpg	1	3	1	non-food_inanimate_toy_airplane	0	D	2	0	222	0		0	0	166.652337000007	166.752325399997
28989.25	0.099987699999474	324	satiated	stimuli/non_foods\non-food_inanimate_alarm_clock.jpg	1	3	1	non-food_inanimate_alarm_clock	0	T	14	0	158	0		0	0	166.802333200001	166.902320900001
29026.75	0.0999804000020958	325	satiated	stimuli/non_foods\non-food_animate_mouse.jpg	1	3	1	non-food_animate_mouse	0	M	9	0	131	0		0	0	166.952337399998	167.0523178
29064.25	0.0999872999964282	326	satiated	stimuli/foods\cauliflower.jpg	1	3	1	cauliflower	1	V	15	0	20	0		0	0	167.1023308	167.202318099997
29101.75	0.0999859000003198	327	satiated	stimuli/non_foods\non-food_animate_killer_whale.jpg	1	3	1	non-food_animate_killer_whale	0	Z	18	0	123	0		0	0	167.252329900002	167.352315800003
29139.25	0.0999870000086958	328	satiated	stimuli/non_foods\non-food_animate_parrot.jpg	1	3	1	non-food_animate_parrot	0	H	5	0	133	0		0	0	167.402326800002	167.502313800011
29176.75	0.0999922000046354	329	satiated	stimuli/foods\minestrone_soup.jpg	1	3	1	minestrone_soup	1	T	14	0	82	0		0	0	167.552327700003	167.652319900008
29214.25	0.0999790000059875	330	satiated	stimuli/non_foods\non-food_animate_ladybug.jpg	1	3	1	non-food_animate_ladybug	0	G	4	0	124	0		0	0	167.7023262	167.802305200006
29251.75	0.099989900001674	331	satiated	stimuli/non_foods\non-food_animate_Causasian_man.jpg	1	3	1	non-food_animate_Causasian_man	0	B	0	0	89	0		0	0	167.852324000007	167.952313900008
29289.25	0.0999875999987125	332	satiated	stimuli/non_foods\non-food_inanimate_broom.jpg	1	3	1	non-food_inanimate_broom	0	V	15	0	164	0		0	0	168.002323599998	168.102311199997
29326.75	0.0999933999992209	333	satiated	stimuli/foods\ice_cream.jpg	1	3	1	ice_cream	1	H	5	0	68	0		0	0	168.152319900008	168.252313300007
29364.25	0.100001400001929	334	satiated	stimuli/foods\fruit_salad.jpg	1	3	1	fruit_salad	1	X	17	0	55	0		0	0	168.302332000007	168.402333400009
29401.75	0.0999765000015032	335	satiated	stimuli/foods\apple.jpg	1	3	1	apple	1	T	14	0	1	0		0	0	168.452325400009	168.55230190001
29439.25	0.0999836999981198	336	satiated	stimuli/foods\rice.jpg	1	3	1	rice	1	H	5	0	257	0		0	0	168.602319199999	168.702302899997
29476.75	0.0999847999919439	337	satiated	stimuli/non_foods\non-food_inanimate_guitar.jpg	1	3	1	non-food_inanimate_guitar	0	R	12	0	185	0		0	0	168.752317100007	168.852301899999
29514.25	0.0999883000040427	338	satiated	stimuli/non_foods\non-food_animate_swan.jpg	1	3	1	non-food_animate_swan	0	X	17	0	152	0		0	0	168.902313800005	169.002302100009
29551.75	0.09998220000125	339	satiated	stimuli/non_foods\non-food_animate_polar_bear.jpg	1	3	1	non-food_animate_polar_bear	0	T	14	0	137	0		0	0	169.052312900007	169.152295100008
29589.25	0.100009400004637	340	satiated	stimuli/foods\spring_onions.jpg	1	3	1	spring_onions	1	N	10	0	269	0		0	0	169.202287699998	169.302297100003
29626.75	0.0999891000101343	341	satiated	stimuli/foods\artichoke.jpg	1	3	1	artichoke	1	F	3	0	3	0		0	0	169.352309299997	169.452298400007
29664.25	0.0999880000017583	342	satiated	stimuli/foods\potato_and_green_bean_salad.jpg	1	3	1	potato_and_green_bean_salad	1	H	5	0	246	0		0	0	169.502312099998	169.602300099999
29701.75	0.100008800000069	343	satiated	stimuli/foods\salmon.jpg	1	3	1	salmon	1	V	15	0	264	0		0	0	169.652281800008	169.752290600009
29739.25	0.0999844999896595	344	satiated	stimuli/non_foods\non-food_inanimate_stapler.jpg	1	3	1	non-food_inanimate_stapler	0	S	13	0	213	0		0	0	169.802309600011	169.9022941
29776.75	0.0999861000018427	345	satiated	stimuli/foods\pancakes.jpg	1	3	1	pancakes	1	F	3	0	234	0		0	0	169.952303800004	170.052289900006
29814.25	0.0999569999985397	346	satiated	stimuli/foods\cinnamon_sroll.jpg	1	3	1	cinnamon_sroll	1	U	23	1	31	0		0	0	170.102311900002	170.2022689
29851.75	0.0999884000048041	347	satiated	stimuli/foods\asparagus.jpg	1	3	1	asparagus	1	G	4	0	4	0		0	0	170.2523009	170.352289300004
29889.25	0.09998440000345	348	satiated	stimuli/foods\coffee_beans.jpg	1	3	1	coffee_beans	1	L	8	0	34	0		0	0	170.402299900001	170.502284300004
29926.75	0.0999770000053104	349	satiated	stimuli/foods\orange.jpg	1	3	1	orange	1	M	9	0	230	1	a	0.550146499997936	1	170.552300800002	170.652277800007
29964.25	0.10000520000176	350	satiated	stimuli/foods\cooked_prawn.jpg	1	3	1	cooked_prawn	1	D	2	0	36	0		0	0	170.702284200001	170.802289400002
30001.75	0.099951999989571	351	satiated	stimuli/foods\omelette.jpg	1	3	1	omelette	1	R	12	0	228	0		0	0	170.852303100008	170.952255099997
30039.25	0.0999889000086114	352	satiated	stimuli/non_foods\non-food_animate_caterpillar.jpg	1	3	1	non-food_animate_caterpillar	0	G	4	0	99	0		0	0	171.002292899997	171.102281800006
30076.75	0.099987699999474	353	satiated	stimuli/non_foods\non-food_animate_eagle.jpg	1	3	1	non-food_animate_eagle	0	C	1	0	110	0		0	0	171.152291400009	171.252279100008
30114.25	0.099989900001674	354	satiated	stimuli/foods\lollies.jpg	1	3	1	lollies	1	Z	18	0	78	0		0	0	171.302290200008	171.40228010001
30151.75	0.0999835999973584	355	satiated	stimuli/foods\fried_calamari.jpg	1	3	1	fried_calamari	1	L	8	0	50	0		0	0	171.452290500005	171.552274100002
30189.25	0.0999786000029417	356	satiated	stimuli/non_foods\non-food_inanimate_buds.jpg	1	3	1	non-food_inanimate_buds	0	S	13	0	166	0		0	0	171.6022868	171.702265400003
30226.75	0.0999885000055656	357	satiated	stimuli/foods\steak.jpg	1	3	1	steak	1	D	2	0	270	0		0	0	171.752290999997	171.852279500003
30264.25	0.0999451999960002	358	satiated	stimuli/non_foods\non-food_animate_grasshopper.jpg	1	3	1	non-food_animate_grasshopper	0	F	3	0	117	0		0	0	171.902326700001	172.002271899997
30301.75	0.0999904000054812	359	satiated	stimuli/non_foods\non-food_animate_green_bug.jpg	1	3	1	non-food_animate_green_bug	0	H	5	0	118	0		0	0	172.052281700002	172.152272100007
30339.25	0.0999862000026042	360	satiated	stimuli/foods\apricot.jpg	1	3	1	apricot	1	G	4	0	2	0		0	0	172.202283899998	172.302270100001
30376.75	0.0999853999965126	361	satiated	stimuli/non_foods\non-food_inanimate_fern.jpg	1	3	1	non-food_inanimate_fern	0	R	12	0	180	0		0	0	172.3522792	172.452264599997
30414.25	0.0999835000111489	362	satiated	stimuli/foods\cooked_ham.jpg	1	3	1	cooked_ham	1	H	5	0	35	0		0	0	172.502283599999	172.60226710001
30451.75	0.0999901000031969	363	satiated	stimuli/foods\museli_bars.jpg	1	3	1	museli_bars	1	J	6	0	84	0		0	0	172.652277100002	172.752267200005
30489.25	0.0999884999910137	364	satiated	stimuli/foods\raw_ham.jpg	1	3	1	raw_ham	1	P	11	0	253	0		0	0	172.802278500007	172.902266999998
30526.75	0.0999602999945637	365	satiated	stimuli/foods\fruit_flan.jpg	1	3	1	fruit_flan	1	F	3	0	53	0		0	0	172.952292200003	173.052252499998
30564.25	0.0999872000102187	366	satiated	stimuli/foods\chestnut.jpg	1	3	1	chestnut	1	G	4	0	24	0		0	0	173.102273099998	173.202260300008
30601.75	0.0999815999966813	367	satiated	stimuli/non_foods\non-food_inanimate_skateboard.jpg	1	3	1	non-food_inanimate_skateboard	0	J	6	0	208	0		0	0	173.252276900006	173.352258500003
30639.25	0.0999905999924522	368	satiated	stimuli/non_foods\non-food_inanimate_watering_can.jpg	1	3	1	non-food_inanimate_watering_can	0	R	12	0	225	0		0	0	173.402273800006	173.502264399998
30676.75	0.099965000001248	369	satiated	stimuli/foods\mandarin.jpg	1	3	1	mandarin	1	C	1	0	79	0		0	0	173.552279299998	173.652244299999
30714.25	0.0999669000011636	370	satiated	stimuli/foods\blackberry.jpg	1	3	1	blackberry	1	H	5	0	11	0		0	0	173.702290900008	173.802257800009
30751.75	0.0999863000033656	371	satiated	stimuli/foods\capsicum.jpg	1	3	1	capsicum	1	B	0	0	18	0		0	0	173.852266700007	173.95225300001
30789.25	0.0999856999987969	372	satiated	stimuli/foods\honey.jpg	1	3	1	honey	1	G	4	0	66	0		0	0	174.002264900002	174.102250600001
30826.75	0.0999922999908449	373	satiated	stimuli/non_foods\non-food_inanimate_chandelier.jpg	1	3	1	non-food_inanimate_chandelier	0	R	12	0	173	0		0	0	174.152264900011	174.252257200002
30864.25	0.100007000000915	374	satiated	stimuli/non_foods\non-food_inanimate_soccer_ball.jpg	1	3	1	non-food_inanimate_soccer_ball	0	N	10	0	210	0		0	0	174.302236600008	174.402243600009
30901.75	0.0999863999895751	375	satiated	stimuli/foods\pear.jpg	1	3	1	pear	1	F	3	0	239	0		0	0	174.45225480001	174.552241199999
30939.25	0.0999863000033656	376	satiated	stimuli/foods\hazelnuts.jpg	1	3	1	hazelnuts	1	T	14	0	65	0		0	0	174.602253300007	174.70223960001
30976.75	0.0999932999984594	377	satiated	stimuli/foods\spinach.jpg	1	3	1	spinach	1	V	15	0	268	0		0	0	174.752252300008	174.852245600006
31014.25	0.100003300001845	378	satiated	stimuli/foods\raisins.jpg	1	3	1	raisins	1	X	17	0	252	0		0	0	174.902241200005	175.002244500007
31051.75	0.0999878000002354	379	satiated	stimuli/foods\fried_zucchini.jpg	1	3	1	fried_zucchini	1	L	8	0	51	0		0	0	175.052247300002	175.152235100002
31089.25	0.0999901000031969	380	satiated	stimuli/non_foods\non-food_inanimate_jeans.jpg	1	3	1	non-food_inanimate_jeans	0	B	0	0	191	0		0	0	175.2022497	175.302239800003
31126.75	0.10001850000117	381	satiated	stimuli/non_foods\non-food_animate_skunk.jpg	1	3	1	non-food_animate_skunk	0	K	7	0	147	0		0	0	175.352243100002	175.452261600003
31164.25	0.0999650999874575	382	satiated	stimuli/non_foods\non-food_animate_dolphin.jpg	1	3	1	non-food_animate_dolphin	0	M	9	0	106	0		0	0	175.502284900009	175.602249999996
31201.75	0.0999775999953272	383	satiated	stimuli/foods\pumpkin.jpg	1	3	1	pumpkin	1	B	0	0	250	0		0	0	175.652252500004	175.752230099999
31239.25	0.0999984000081895	384	satiated	stimuli/non_foods\non-food_inanimate_moss.jpg	1	3	1	non-food_inanimate_moss	0	K	7	0	194	0		0	0	175.802237299999	175.902235700007
31276.75	0.0999933999992209	385	satiated	stimuli/non_foods\non-food_animate_alligator.jpg	1	3	1	non-food_animate_alligator	0	F	3	0	90	0		0	0	175.952240400002	176.052233800001
31314.25	0.09998440000345	386	satiated	stimuli/non_foods\non-food_animate_sea_lion.jpg	1	3	1	non-food_animate_sea_lion	0	J	6	0	143	0		0	0	176.102246399998	176.202230800001
31351.75	0.0999900999886449	387	satiated	stimuli/non_foods\non-food_animate_duck.jpg	1	3	1	non-food_animate_duck	0	H	5	0	109	0		0	0	176.252242900009	176.352232999998
31389.25	0.0999842000019271	388	satiated	stimuli/foods\potatoes.jpg	1	3	1	potatoes	1	P	11	0	248	1	a	0	0	176.402244700002	176.502228900004
31426.75	0.0999599000060698	389	satiated	stimuli/non_foods\non-food_inanimate_toilet.jpg	1	3	1	non-food_inanimate_toilet	0	T	14	0	220	0		0	0	176.552244699997	176.652204600003
31464.25	0.0999780999991344	390	satiated	stimuli/foods\banana.jpg	1	3	1	banana	1	J	6	0	9	0		0	0	176.702235100005	176.802213200004
31501.75	0.100009800007683	391	satiated	stimuli/foods\coconut.jpg	1	3	1	coconut	1	V	15	0	33	0		0	0	176.852218300002	176.95222810001
31539.25	0.0999903000047198	392	satiated	stimuli/non_foods\non-food_animate_ant.jpg	1	3	1	non-food_animate_ant	0	H	5	0	91	0		0	0	177.002237799999	177.102228100004
31576.75	0.0999872999964282	393	satiated	stimuli/non_foods\non-food_animate_lizard.jpg	1	3	1	non-food_animate_lizard	0	R	12	0	126	0		0	0	177.152250400002	177.252237699999
31614.25	0.0999598999915179	394	satiated	stimuli/foods\frankfurter_and_provolone_salad.jpg	1	3	1	frankfurter_and_provolone_salad	1	K	7	0	49	0		0	0	177.302259900011	177.402219800002
31651.75	0.0999848000064958	395	satiated	stimuli/non_foods\non-food_animate_rhino.jpg	1	3	1	non-food_animate_rhino	0	S	13	0	141	0		0	0	177.452232800002	177.552217600009
31689.25	0.099990999995498	396	satiated	stimuli/foods\fruit_pie.jpg	1	3	1	fruit_pie	1	V	15	0	54	0		0	0	177.602226200004	177.7022172
31726.75	0.09998220000125	397	satiated	stimuli/foods\potato_chips.jpg	1	3	1	potato_chips	1	L	8	0	247	0		0	0	177.7522322	177.852214400002
31764.25	0.0999720999971032	398	satiated	stimuli/non_foods\non-food_animate_dachshund.jpg	1	3	1	non-food_animate_dachshund	0	S	13	0	104	0		0	0	177.902230000007	178.002202100004
31801.75	0.100006300010136	399	satiated	stimuli/foods\croissant.jpg	1	3	1	croissant	1	P	11	0	40	0		0	0	178.052218199999	178.152224500009
31839.25	0.0999622999952408	400	satiated	stimuli/foods\grapes.jpg	1	3	1	grapes	1	G	4	0	60	0		0	0	178.202231000003	178.302193299998
31876.75	0.099947599999723	401	satiated	stimuli/foods\mortadella.jpg	1	3	1	mortadella	1	S	13	0	83	0		0	0	178.352264600006	178.452212200005
31914.25	0.0999825000035344	402	satiated	stimuli/non_foods\non-food_inanimate_tent.jpg	1	3	1	non-food_inanimate_tent	0	G	4	0	219	0		0	0	178.5022245	178.602207000004
31951.75	0.0999903000047198	403	satiated	stimuli/foods\grilled_chicken_breast.jpg	1	3	1	grilled_chicken_breast	1	R	12	0	63	0		0	0	178.652219900003	178.752210200008
31989.25	0.0999940000037896	404	satiated	stimuli/non_foods\non-food_animate_deer.jpg	1	3	1	non-food_animate_deer	0	F	3	0	105	0		0	0	178.802219100005	178.902213100009
32026.75	0.0999672999896575	405	satiated	stimuli/non_foods\non-food_inanimate_orchid.jpg	1	3	1	non-food_inanimate_orchid	0	R	12	0	198	0		0	0	178.952229700008	179.052196999997
32064.25	0.0999802000005729	406	satiated	stimuli/non_foods\non-food_inanimate_drum_set.jpg	1	3	1	non-food_inanimate_drum_set	0	P	11	0	179	0		0	0	179.102207400007	179.202187600007
32101.75	0.0999841000011656	407	satiated	stimuli/foods\cannoli.jpg	1	3	1	cannoli	1	W	16	0	17	0		0	0	179.252212599997	179.352196699998
32139.25	0.0999842000019271	408	satiated	stimuli/foods\lamb_chops.jpg	1	3	1	lamb_chops	1	S	13	0	70	0		0	0	179.402207000006	179.502191200008
32176.75	0.0999995000020135	409	satiated	stimuli/foods\cherry.jpg	1	3	1	cherry	1	V	15	0	23	0		0	0	179.552201600003	179.652201100005
32214.25	0.0999870999949053	410	satiated	stimuli/foods\bagel.jpg	1	3	1	bagel	1	N	10	0	6	0		0	0	179.702212100005	179.802199199999
32251.75	0.0999851999949897	411	satiated	stimuli/non_foods\non-food_animate_runner.jpg	1	3	1	non-food_animate_runner	0	G	4	0	142	0		0	0	179.852212700003	179.952197899998
32289.25	0.0999904000054812	412	satiated	stimuli/non_foods\non-food_inanimate_shell.jpg	1	3	1	non-food_inanimate_shell	0	L	8	0	206	0		0	0	180.002207900005	180.10219830001
32326.75	0.0999848999927053	413	satiated	stimuli/non_foods\non-food_inanimate_canoe.jpg	1	3	1	non-food_inanimate_canoe	0	Z	18	0	170	0		0	0	180.152209000007	180.2521939
32364.25	0.0999842000019271	414	satiated	stimuli/non_foods\non-food_inanimate_nest.jpg	1	3	1	non-food_inanimate_nest	0	J	6	0	196	0		0	0	180.302206000008	180.402190200009
32401.75	0.0999829000065802	415	satiated	stimuli/non_foods\non-food_inanimate_cap.jpg	1	3	1	non-food_inanimate_cap	0	D	2	0	171	0		0	0	180.452208000002	180.552190900009
32439.25	0.100001999991946	416	satiated	stimuli/foods\figs.jpg	1	3	1	figs	1	P	11	0	48	0		0	0	180.602203800008	180.7022058
32476.75	0.0999748000031104	417	satiated	stimuli/non_foods\non-food_animate_porcupine.jpg	1	3	1	non-food_animate_porcupine	0	K	7	0	138	0		0	0	180.752212000007	180.85218680001
32514.25	0.0999837999988813	418	satiated	stimuli/non_foods\non-food_animate_lion.jpg	1	3	1	non-food_animate_lion	0	D	2	0	125	0		0	0	180.902201000004	181.002184800003
32551.75	0.0999883000040427	419	satiated	stimuli/foods\radish.jpg	1	3	1	radish	1	V	15	0	251	0		0	0	181.052202000006	181.15219030001
33301.75	0.099979099992197	420	satiated	stimuli/non_foods\non-food_inanimate_gloves.jpg	1	4	1	non-food_inanimate_gloves	0	Z	18	0	183	0		0	0	184.052177000005	184.152156099997
33339.25	0.09998440000345	421	satiated	stimuli/non_foods\non-food_inanimate_horn.jpg	1	4	1	non-food_inanimate_horn	0	D	2	0	190	0		0	0	184.202173600002	184.302158000006
33376.75	0.0999785000021802	422	satiated	stimuli/non_foods\non-food_inanimate_protractor.jpg	1	4	1	non-food_inanimate_protractor	0	B	0	0	201	0		0	0	184.352175599997	184.452154099999
33414.25	0.0999870000086958	423	satiated	stimuli/non_foods\non-food_animate_bat.jpg	1	4	1	non-food_animate_bat	0	K	7	0	94	0		0	0	184.502166899998	184.602153900007
33451.75	0.0999840000004042	424	satiated	stimuli/foods\risotto_with_zucchini.jpg	1	4	1	risotto_with_zucchini	1	V	15	0	260	0		0	0	184.652168700006	184.752152700006
33489.25	0.0999857999995584	425	satiated	stimuli/foods\green_beans.jpg	1	4	1	green_beans	1	H	5	0	61	0		0	0	184.802166900001	184.9021527
33526.75	0.0999657999927877	426	satiated	stimuli/non_foods\non-food_inanimate_hay.jpg	1	4	1	non-food_inanimate_hay	0	G	4	0	187	0		0	0	184.952183500005	185.052149299998
33564.25	0.0999837999988813	427	satiated	stimuli/non_foods\non-food_animate_german_shepherd.jpg	1	4	1	non-food_animate_german_shepherd	0	K	7	0	114	0		0	0	185.102163100004	185.202146900003
33601.75	0.099993199997698	428	satiated	stimuli/non_foods\non-food_animate_gorilla.jpg	1	4	1	non-food_animate_gorilla	0	T	14	0	116	0		0	0	185.25215510001	185.352148300008
33639.25	0.0999860000010813	429	satiated	stimuli/foods\green_olives.jpg	1	4	1	green_olives	1	R	12	0	62	0		0	0	185.402159999998	185.502145999999
33676.75	0.0999880000017583	430	satiated	stimuli/non_foods\non-food_animate_cow.jpg	1	4	1	non-food_animate_cow	0	K	7	0	103	0		0	0	185.552171000003	185.652159000005
33714.25	0.0999689000018407	431	satiated	stimuli/non_foods\non-food_inanimate_headphones.jpg	1	4	1	non-food_inanimate_headphones	0	P	11	0	188	0		0	0	185.702173800004	185.802142700006
33751.75	0.0999808000051416	432	satiated	stimuli/foods\lemon.jpg	1	4	1	lemon	1	S	13	0	72	0		0	0	185.852160399998	185.952141200003
33789.25	0.099990999995498	433	satiated	stimuli/non_foods\non-food_animate_pigeon.jpg	1	4	1	non-food_animate_pigeon	0	C	1	0	136	0		0	0	186.002154400005	186.1021454
33826.75	0.100009200003115	434	satiated	stimuli/foods\red_beans.jpg	1	4	1	red_beans	1	L	8	0	255	0		0	0	186.152128600006	186.252137800009
33864.25	0.0999869999941438	435	satiated	stimuli/foods\pork_and_rice.jpg	1	4	1	pork_and_rice	1	Z	18	0	245	0		0	0	186.302152300006	186.4021393
33901.75	0.0999883999902522	436	satiated	stimuli/non_foods\non-food_animate_yellow_bug.jpg	1	4	1	non-food_animate_yellow_bug	0	F	3	0	155	0		0	0	186.452147600008	186.552135999998
33939.25	0.0999765999877127	437	satiated	stimuli/foods\red_cabbage.jpg	1	4	1	red_cabbage	1	P	11	0	256	0		0	0	186.602152300009	186.702128899997
33976.75	0.0999830999935511	438	satiated	stimuli/non_foods\non-food_animate_monkey.jpg	1	4	1	non-food_animate_monkey	0	T	14	0	130	0		0	0	186.752139600008	186.852122700002
34014.25	0.0999994000012521	439	satiated	stimuli/foods\meatballs.jpg	1	4	1	meatballs	1	L	8	0	81	0		0	0	186.9021221	187.002121500002
34051.75	0.0999868999933824	440	satiated	stimuli/foods\cereal.jpg	1	4	1	cereal	1	M	9	0	22	0		0	0	187.052139500011	187.152126400004
34089.25	0.100002100007259	441	satiated	stimuli/foods\spaghetti_with_meat_sauce.jpg	1	4	1	spaghetti_with_meat_sauce	1	J	6	0	267	0		0	0	187.202133400002	187.302135500009
34126.75	0.0999821000004886	442	satiated	stimuli/foods\strawberry.jpg	1	4	1	strawberry	1	N	10	0	272	0		0	0	187.352147500002	187.452129600002
34164.25	0.0999977999890689	443	satiated	stimuli/foods\oregano.jpg	1	4	1	oregano	1	G	4	0	231	0		0	0	187.502128100008	187.602125899997
34201.75	0.099987699999474	444	satiated	stimuli/non_foods\non-food_animate_slug.jpg	1	4	1	non-food_animate_slug	0	V	15	0	148	0		0	0	187.652136500008	187.752124200008
34239.25	0.0999873000109801	445	satiated	stimuli/non_foods\non-food_inanimate_nailpolish.jpg	1	4	1	non-food_inanimate_nailpolish	0	F	3	0	195	0		0	0	187.802137899998	187.902125200009
34276.75	0.0999849999934668	446	satiated	stimuli/non_foods\non-food_animate_bee.jpg	1	4	1	non-food_animate_bee	0	G	4	0	95	0		0	0	187.952136000007	188.052121000001
34314.25	0.0999879000009969	447	satiated	stimuli/non_foods\non-food_inanimate_folding_chair.jpg	1	4	1	non-food_inanimate_folding_chair	0	X	17	0	182	0		0	0	188.102135900001	188.202123800002
34351.75	0.0999852999957511	448	satiated	stimuli/non_foods\non-food_inanimate_briefcase.jpg	1	4	1	non-food_inanimate_briefcase	0	N	10	0	163	0		0	0	188.252133700007	188.352119000003
34389.25	0.0999890999955824	449	satiated	stimuli/non_foods\non-food_inanimate_hammer.jpg	1	4	1	non-food_inanimate_hammer	0	H	5	0	186	0		0	0	188.402130800008	188.502119900004
34426.75	0.0999831999943126	450	satiated	stimuli/non_foods\non-food_inanimate_bucket.jpg	1	4	1	non-food_inanimate_bucket	0	V	15	0	165	0		0	0	188.552132800003	188.652115999997
34464.25	0.0999868999933824	451	satiated	stimuli/foods\kiwi.jpg	1	4	1	kiwi	1	Z	18	0	69	0		0	0	188.702128200006	188.802115099999
34501.75	0.0999796000105562	452	satiated	stimuli/foods\rockmelon.jpg	1	4	1	rockmelon	1	S	13	0	262	0		0	0	188.852135399997	188.952115000007
34539.25	0.0999887000070885	453	satiated	stimuli/foods\pickles.jpg	1	4	1	pickles	1	D	2	0	242	0		0	0	189.002125300001	189.102114000008
34576.75	0.0999891000101343	454	satiated	stimuli/non_foods\non-food_animate_Asian_man.jpg	1	4	1	non-food_animate_Asian_man	0	B	0	0	88	0		0	0	189.152142799998	189.252131900008
34614.25	0.0999616999906721	455	satiated	stimuli/non_foods\non-food_animate_mammoth.jpg	1	4	1	non-food_animate_mammoth	0	Z	18	0	128	0		0	0	189.302148500006	189.402110199997
34651.75	0.0999855999980355	456	satiated	stimuli/non_foods\non-food_inanimate_desk.jpg	1	4	1	non-food_inanimate_desk	0	J	6	0	178	0		0	0	189.452122800009	189.552108400007
34689.25	0.0999827999912668	457	satiated	stimuli/non_foods\non-food_inanimate_clover.jpg	1	4	1	non-food_inanimate_clover	0	Z	18	0	174	0		0	0	189.602123200006	189.702105999997
34726.75	0.0999882000032812	458	satiated	stimuli/non_foods\non-food_animate_millipede.jpg	1	4	1	non-food_animate_millipede	0	L	8	0	129	0		0	0	189.752121900005	189.852110100008
34764.25	0.0999898000009125	459	satiated	stimuli/non_foods\non-food_animate_squirrel.jpg	1	4	1	non-food_animate_squirrel	0	H	5	0	150	0		0	0	189.902115300007	190.002105100008
34801.75	0.0999860000010813	460	satiated	stimuli/foods\mussels.jpg	1	4	1	mussels	1	W	16	0	86	0		0	0	190.052117200001	190.152103200002
34839.25	0.100013200004469	461	satiated	stimuli/foods\chocolate_pudding.jpg	1	4	1	chocolate_pudding	1	T	14	0	29	0		0	0	190.202114500004	190.302127700008
34876.75	0.099945599999046	462	satiated	stimuli/foods\chilli.jpg	1	4	1	chilli	1	L	8	0	25	0		0	0	190.352148300008	190.452093900007
34914.25	0.0999871999956667	463	satiated	stimuli/foods\egg.jpg	1	4	1	egg	1	F	3	0	45	0		0	0	190.502104200001	190.602091399996
34951.75	0.0999803000013344	464	satiated	stimuli/non_foods\non-food_inanimate_highlighter.jpg	1	4	1	non-food_inanimate_highlighter	0	X	17	0	189	0		0	0	190.652104100009	190.75208440001
34989.25	0.0999891999963438	465	satiated	stimuli/non_foods\non-food_animate_sea_turtle.jpg	1	4	1	non-food_animate_sea_turtle	0	N	10	0	144	0		0	0	190.802112000005	190.902101200001
35026.75	0.0999832000088645	466	satiated	stimuli/foods\fries.jpg	1	4	1	fries	1	J	6	0	52	0		0	0	190.952108500001	191.05209170001
35064.25	0.0999684999987949	467	satiated	stimuli/non_foods\non-food_inanimate_nettle.jpg	1	4	1	non-food_inanimate_nettle	0	T	14	0	197	0		0	0	191.102123100005	191.202091600004
35101.75	0.0999840000004042	468	satiated	stimuli/non_foods\non-food_inanimate_table.jpg	1	4	1	non-food_inanimate_table	0	X	17	0	217	0		0	0	191.252106	191.35209
35139.25	0.0999873000109801	469	satiated	stimuli/foods\cinnamon.jpg	1	4	1	cinnamon	1	Z	18	0	30	0		0	0	191.4021029	191.502090200011
35176.75	0.0999837999988813	470	satiated	stimuli/non_foods\non-food_inanimate_leaf.jpg	1	4	1	non-food_inanimate_leaf	0	B	0	0	192	0		0	0	191.552103900001	191.6520877
35214.25	0.0999864000041271	471	satiated	stimuli/non_foods\non-food_inanimate_speakers.jpg	1	4	1	non-food_inanimate_speakers	0	L	8	0	212	0		0	0	191.702097700007	191.802084100011
35251.75	0.0999846999911824	472	satiated	stimuli/foods\pineapple.jpg	1	4	1	pineapple	1	N	10	0	243	0		0	0	191.852102300007	191.952086999998
35289.25	0.0999975000013364	473	satiated	stimuli/non_foods\non-food_inanimate_grass.jpg	1	4	1	non-food_inanimate_grass	0	L	8	0	184	0		0	0	192.002099600009	192.102097100011
35326.75	0.0999860000010813	474	satiated	stimuli/foods\raw_sausage.jpg	1	4	1	raw_sausage	1	B	0	0	254	0		0	0	192.152096200007	192.252082200008
35364.25	0.0999881999887293	475	satiated	stimuli/non_foods\non-food_animate_dragonfly.jpg	1	4	1	non-food_animate_dragonfly	0	W	16	0	108	0		0	0	192.302095200008	192.402083399997
35401.75	0.0999855999980355	476	satiated	stimuli/non_foods\non-food_animate_fox.jpg	1	4	1	non-food_animate_fox	0	V	15	0	112	0		0	0	192.45209240001	192.552078000008
35439.25	0.099998499994399	477	satiated	stimuli/foods\pea_pod.jpg	1	4	1	pea_pod	1	C	1	0	237	0		0	0	192.602094100002	192.702092599997
35476.75	0.099975799996173	478	satiated	stimuli/non_foods\non-food_inanimate_rack.jpg	1	4	1	non-food_inanimate_rack	0	J	6	0	202	0		0	0	192.752101100006	192.852076900002
35514.25	0.099976899989997	479	satiated	stimuli/non_foods\non-food_inanimate_fire_extinguisher.jpg	1	4	1	non-food_inanimate_fire_extinguisher	0	C	1	0	181	0		0	0	192.902088600007	193.002065499997
35551.75	0.099982399988221	480	satiated	stimuli/foods\corncob.jpg	1	4	1	corncob	1	F	3	0	37	0		0	0	193.052091500009	193.152073899997
35589.25	0.0999830000073416	481	satiated	stimuli/foods\cupcake.jpg	1	4	1	cupcake	1	V	15	0	42	0		0	0	193.202086799996	193.302069800004
35626.75	0.0999791999929585	482	satiated	stimuli/foods\beetroots.jpg	1	4	1	beetroots	1	Z	18	0	10	0		0	0	193.352085300008	193.452064500001
35664.25	0.100002499995753	483	satiated	stimuli/non_foods\non-food_animate_snail.jpg	1	4	1	non-food_animate_snail	0	B	0	0	149	0		0	0	193.502064600005	193.602067100001
35701.75	0.0999829999927897	484	satiated	stimuli/foods\rice_cake.jpg	1	4	1	rice_cake	1	T	14	0	258	0		0	0	193.652084900008	193.752067900001
35739.25	0.09998220000125	485	satiated	stimuli/foods\linguine_with_clams.jpg	1	4	1	linguine_with_clams	1	H	5	0	77	0		0	0	193.802083800008	193.90206600001
35776.75	0.0999847999919439	486	satiated	stimuli/foods\pasta_carbonara.jpg	1	4	1	pasta_carbonara	1	P	11	0	236	0		0	0	193.952080300005	194.052065099997
35814.25	0.0999895999993896	487	satiated	stimuli/foods\pepperoni_pizza.jpg	1	4	1	pepperoni_pizza	1	S	13	0	241	0		0	0	194.102076499999	194.202066099999
35851.75	0.09998440000345	488	satiated	stimuli/non_foods\non-food_inanimate_construction_helment.jpg	1	4	1	non-food_inanimate_construction_helment	0	L	8	0	175	0		0	0	194.252078100006	194.352062500009
35889.25	0.0999873999971896	489	satiated	stimuli/foods\eggplant.jpg	1	4	1	eggplant	1	C	1	0	46	0		0	0	194.402075700011	194.502063100008
35926.75	0.099965000001248	490	satiated	stimuli/non_foods\non-food_animate_chicken.jpg	1	4	1	non-food_animate_chicken	0	P	11	0	101	0		0	0	194.552095899999	194.6520609
35964.25	0.0999861000018427	491	satiated	stimuli/non_foods\non-food_animate_baby_sitting.jpg	1	4	1	non-food_animate_baby_sitting	0	X	17	0	93	0		0	0	194.702071799999	194.8020579
36001.75	0.0999809000059031	492	satiated	stimuli/non_foods\non-food_inanimate_bamboo.jpg	1	4	1	non-food_inanimate_bamboo	0	Z	18	0	159	0		0	0	194.852075300005	194.952056200011
36039.25	0.0999813000089489	493	satiated	stimuli/foods\salami.jpg	1	4	1	salami	1	H	5	0	263	0		0	0	195.002067900001	195.10204920001
36076.75	0.0999881000025198	494	satiated	stimuli/non_foods\non-food_inanimate_bush.jpg	1	4	1	non-food_inanimate_bush	0	G	4	0	167	0		0	0	195.152060499997	195.252048599999
36114.25	0.0999862000026042	495	satiated	stimuli/foods\broccoli.jpg	1	4	1	broccoli	1	J	6	0	13	0		0	0	195.302070000005	195.402056200008
36151.75	0.0999869000079343	496	satiated	stimuli/foods\baked_lamb_with_potatoes.jpg	1	4	1	baked_lamb_with_potatoes	1	D	2	0	8	0		0	0	195.452064099998	195.552051000006
36189.25	0.0999624999967637	497	satiated	stimuli/foods\celery.jpg	1	4	1	celery	1	V	15	0	21	0		0	0	195.602088400003	195.702050899999
36226.75	0.0999951000121655	498	satiated	stimuli/non_foods\non-food_animate_clown.jpg	1	4	1	non-food_animate_clown	0	X	17	0	102	0		0	0	195.752063499996	195.852058600009
36264.25	0.0999859000003198	499	satiated	stimuli/non_foods\non-food_animate_hummingbird.jpg	1	4	1	non-food_animate_hummingbird	0	T	14	0	120	0		0	0	195.902061800007	196.002047700007
36301.75	0.0999718000093708	500	satiated	stimuli/non_foods\non-food_animate_owl.jpg	1	4	1	non-food_animate_owl	0	R	12	0	132	0		0	0	196.052076699998	196.152048500007
36339.25	0.100034999995842	501	satiated	stimuli/foods\taco.jpg	1	4	1	taco	1	X	17	0	274	0		0	0	196.2020625	196.302097499996
36376.75	0.0999469999951543	502	satiated	stimuli/non_foods\non-food_animate_cheetah.jpg	1	4	1	non-food_animate_cheetah	0	N	10	0	100	0		0	0	196.352098100004	196.452045099999
36414.25	0.0999872999964282	503	satiated	stimuli/foods\mango.jpg	1	4	1	mango	1	C	1	0	80	0		0	0	196.502056600002	196.602043899999
36451.75	0.0999849000072572	504	satiated	stimuli/foods\donut.jpg	1	4	1	donut	1	G	4	0	44	0		0	0	196.652054699996	196.752039600004
36489.25	0.0999885999917751	505	satiated	stimuli/non_foods\non-food_animate_butterfly.jpg	1	4	1	non-food_animate_butterfly	0	J	6	0	96	0		0	0	196.802053300009	196.902041900001
36526.75	0.0999811999936355	506	satiated	stimuli/non_foods\non-food_animate_seahorse.jpg	1	4	1	non-food_animate_seahorse	0	B	0	0	145	0		0	0	196.952055500005	197.052036699999
36564.25	0.0999818999989657	507	satiated	stimuli/foods\dates.jpg	1	4	1	dates	1	M	9	0	43	0		0	0	197.102050200003	197.202032100002
36601.75	0.100002499995753	508	satiated	stimuli/foods\ginger_root.jpg	1	4	1	ginger_root	1	K	7	0	57	0		0	0	197.252041700005	197.352044200001
36639.25	0.0999588999984553	509	satiated	stimuli/non_foods\non-food_inanimate_scissors.jpg	1	4	1	non-food_inanimate_scissors	0	P	11	0	205	0		0	0	197.402067400006	197.502026300004
36676.75	0.0999764000007417	510	satiated	stimuli/non_foods\non-food_animate_giraffe.jpg	1	4	1	non-food_animate_giraffe	0	J	6	0	115	0		0	0	197.552037100002	197.652013500003
36714.25	0.100004699997953	511	satiated	stimuli/foods\mushroom.jpg	1	4	1	mushroom	1	R	12	0	85	0		0	0	197.702025000006	197.802029700004
36751.75	0.099989900001674	512	satiated	stimuli/foods\chocolate_bar.jpg	1	4	1	chocolate_bar	1	W	16	0	26	0		0	0	197.852041799997	197.952031699999
36789.25	0.0999546999955783	513	satiated	stimuli/foods\fennel.jpg	1	4	1	fennel	1	M	9	0	47	0		0	0	198.002053200005	198.102007900001
36826.75	0.0999661999958334	514	satiated	stimuli/non_foods\non-food_inanimate_cactus_pot_plant.jpg	1	4	1	non-food_inanimate_cactus_pot_plant	0	P	11	0	169	0		0	0	198.152059400003	198.252025599999
36864.25	0.0999802000005729	515	satiated	stimuli/non_foods\non-food_inanimate_rope.jpg	1	4	1	non-food_inanimate_rope	0	H	5	0	204	0		0	0	198.30204580001	198.402026000011
36901.75	0.0999933000130113	516	satiated	stimuli/non_foods\non-food_inanimate_cupboard.jpg	1	4	1	non-food_inanimate_cupboard	0	S	13	0	177	0		0	0	198.452031499997	198.55202480001
36939.25	0.0999953999998979	517	satiated	stimuli/foods\cucumber.jpg	1	4	1	cucumber	1	G	4	0	41	0		0	0	198.602027600005	198.702023000005
36976.75	0.0999894999986282	518	satiated	stimuli/non_foods\non-food_animate_iguana.jpg	1	4	1	non-food_animate_iguana	0	N	10	0	121	0		0	0	198.752040799998	198.852030299997
37014.25	0.0999893999978667	519	satiated	stimuli/foods\hotdog.jpg	1	4	1	hotdog	1	D	2	0	67	0		0	0	198.90202970001	199.002019100008
37051.75	0.0999857999995584	520	satiated	stimuli/foods\brownie.jpg	1	4	1	brownie	1	Z	18	0	14	0		0	0	199.052031800005	199.152017600005
37089.25	0.0999872000102187	521	satiated	stimuli/foods\stew_with_potatoes_and_carrots.jpg	1	4	1	stew_with_potatoes_and_carrots	1	W	16	0	271	0		0	0	199.2020319	199.302019100011
37126.75	0.0999851999949897	522	satiated	stimuli/foods\prawn.jpg	1	4	1	prawn	1	V	15	0	249	0		0	0	199.352031900009	199.452017100004
37164.25	0.0999872999964282	523	satiated	stimuli/foods\toasted_bread_with_tomatoes.jpg	1	4	1	toasted_bread_with_tomatoes	1	X	17	0	275	0		0	0	199.502027900002	199.602015199998
37201.75	0.099982399988221	524	satiated	stimuli/non_foods\non-food_inanimate_tulip.jpg	1	4	1	non-food_inanimate_tulip	0	H	5	0	224	0		0	0	199.652029500008	199.752011899996
37239.25	0.100013600007514	525	satiated	stimuli/non_foods\non-food_inanimate_lighter.jpg	1	4	1	non-food_inanimate_lighter	0	G	4	0	193	0		0	0	199.802018000002	199.90203160001
37276.75	0.0999493999988772	526	satiated	stimuli/foods\papaya.jpg	1	4	1	papaya	1	P	11	0	235	0		0	0	199.952059400006	200.052008800005
37314.25	0.0999733000062406	527	satiated	stimuli/foods\hamburger.jpg	1	4	1	hamburger	1	U	23	1	64	0		0	0	200.102026599998	200.201999900004
37351.75	0.099978900005226	528	satiated	stimuli/non_foods\non-food_inanimate_stoplight.jpg	1	4	1	non-food_inanimate_stoplight	0	N	10	0	214	0		0	0	200.252020100001	200.351999000006
37389.25	0.0999843000026885	529	satiated	stimuli/non_foods\non-food_animate_horse.jpg	1	4	1	non-food_animate_horse	0	F	3	0	119	0		0	0	200.402023700008	200.50200800001
37426.75	0.0999911999970209	530	satiated	stimuli/foods\brussel_sprouts.jpg	1	4	1	brussel_sprouts	1	V	15	0	15	0		0	0	200.552017800001	200.652008999998
37464.25	0.0999878000002354	531	satiated	stimuli/foods\grapefruits.jpg	1	4	1	grapefruits	1	N	10	0	59	0		0	0	200.702017200005	200.802005000005
37501.75	0.0999831000081031	532	satiated	stimuli/non_foods\non-food_inanimate_couch.jpg	1	4	1	non-food_inanimate_couch	0	M	9	0	176	0		0	0	200.852018899997	200.952002000005
37539.25	0.0999886999925366	533	satiated	stimuli/non_foods\non-food_animate_penguin.jpg	1	4	1	non-food_animate_penguin	0	C	1	0	135	0		0	0	201.002013100006	201.102001799998
37576.75	0.0999374000093667	534	satiated	stimuli/non_foods\non-food_inanimate_wrench.jpg	1	4	1	non-food_inanimate_wrench	0	P	11	0	227	0		0	0	201.1520437	201.251981100009
37614.25	0.0999859000003198	535	satiated	stimuli/non_foods\non-food_animate_baby_crawling.jpg	1	4	1	non-food_animate_baby_crawling	0	M	9	0	92	0		0	0	201.302012200002	201.401998100002
37651.75	0.0999957999883918	536	satiated	stimuli/non_foods\non-food_inanimate_padlock.jpg	1	4	1	non-food_inanimate_padlock	0	T	14	0	199	0		0	0	201.452010100009	201.552005899997
37689.25	0.0999879000009969	537	satiated	stimuli/non_foods\non-food_inanimate_sun_flower.jpg	1	4	1	non-food_inanimate_sun_flower	0	W	16	0	216	0		0	0	201.602021900006	201.702009800007
37726.75	0.0999665000126697	538	satiated	stimuli/non_foods\non-food_inanimate_suitcase.jpg	1	4	1	non-food_inanimate_suitcase	0	R	12	0	215	0		0	0	201.752027199997	201.851993700009
37764.25	0.0999848000064958	539	satiated	stimuli/foods\peas.jpg	1	4	1	peas	1	L	8	0	240	0		0	0	201.902008899997	202.001993700003
37801.75	0.0999830000073416	540	satiated	stimuli/non_foods\non-food_inanimate_bicycle.jpg	1	4	1	non-food_inanimate_bicycle	0	G	4	0	161	0		0	0	202.052007699996	202.151990700004
37839.25	0.0999883999902522	541	satiated	stimuli/non_foods\non-food_animate_ram.jpg	1	4	1	non-food_animate_ram	0	M	9	0	140	0		0	0	202.202002700011	202.301991100001
37876.75	0.0999824000027729	542	satiated	stimuli/non_foods\non-food_animate_camel.jpg	1	4	1	non-food_animate_camel	0	Z	18	0	97	0		0	0	202.352004600005	202.451987000008
37914.25	0.0999852999957511	543	satiated	stimuli/foods\baked_cod_with_carrots_and_green_beans.jpg	1	4	1	baked_cod_with_carrots_and_green_beans	1	M	9	0	7	0		0	0	202.502001000001	202.601986299996
37951.75	0.100004500010982	544	satiated	stimuli/foods\peach.jpg	1	4	1	peach	1	W	16	0	238	0		0	0	202.651997699999	202.75200220001
37989.25	0.0999833999958355	545	satiated	stimuli/non_foods\non-food_inanimate_teddy_bear.jpg	1	4	1	non-food_inanimate_teddy_bear	0	F	3	0	218	0		0	0	202.801995500005	202.901978900001
38026.75	0.0999940000037896	546	satiated	stimuli/foods\oven-roasted_tomatoes.jpg	1	4	1	oven-roasted_tomatoes	1	J	6	0	232	0		0	0	202.951988000001	203.051982000005
38064.25	0.099987899986445	547	satiated	stimuli/foods\swordfish.jpg	1	4	1	swordfish	1	Z	18	0	273	0		0	0	203.101993900011	203.201981799997
38101.75	0.0999980999913532	548	satiated	stimuli/non_foods\non-food_animate_student_female.jpg	1	4	1	non-food_animate_student_female	0	X	17	0	151	0		0	0	203.251986500007	203.351984599998
38139.25	0.0999574000015855	549	satiated	stimuli/non_foods\non-food_inanimate_bowling_ball.jpg	1	4	1	non-food_inanimate_bowling_ball	0	E	20	1	162	0		0	0	203.402023500006	203.501980900008
38176.75	0.09997489998932	550	satiated	stimuli/non_foods\non-food_inanimate_button.jpg	1	4	1	non-food_inanimate_button	0	K	7	0	168	0		0	0	203.55199420001	203.651969099999
38214.25	0.0999884999910137	551	satiated	stimuli/foods\roasted_chicken.jpg	1	4	1	roasted_chicken	1	N	10	0	261	0		0	0	203.701989100009	203.8019776
38251.75	0.0999802000005729	552	satiated	stimuli/non_foods\non-food_inanimate_short_sleeved_shirt.jpg	1	4	1	non-food_inanimate_short_sleeved_shirt	0	H	5	0	207	1	a	0.443148999998812	1	203.85199380001	203.951974000011
38289.25	0.0999917999870377	553	satiated	stimuli/non_foods\non-food_inanimate_skirt.jpg	1	4	1	non-food_inanimate_skirt	0	B	0	0	209	0		0	0	204.001987000011	204.101978799998
38326.75	0.0999852000095416	554	satiated	stimuli/foods\avocado.jpg	1	4	1	avocado	1	F	3	0	5	0		0	0	204.151988099999	204.251973300008
38364.25	0.0999799999990501	555	satiated	stimuli/foods\nectarine.jpg	1	4	1	nectarine	1	V	15	0	87	0		0	0	204.301986899998	204.401966899997
38401.75	0.100009899993893	556	satiated	stimuli/non_foods\non-food_inanimate_tree.jpg	1	4	1	non-food_inanimate_tree	0	M	9	0	223	0		0	0	204.451957900004	204.551967799998
38439.25	0.0999750000046333	557	satiated	stimuli/foods\pomegranate.jpg	1	4	1	pomegranate	1	K	7	0	244	0		0	0	204.601995899997	204.701970900001
38476.75	0.0999828000058187	558	satiated	stimuli/foods\clams.jpg	1	4	1	clams	1	D	2	0	32	0		0	0	204.7519818	204.851964600006
38514.25	0.0999922000046354	559	satiated	stimuli/non_foods\non-food_animate_cat.jpg	1	4	1	non-food_animate_cat	0	V	15	0	98	0		0	0	204.901972699998	205.001964900002
46585	0.0999755999946501	560	satiated	stimuli/foods\apple.jpg	1	5	1	apple	1	F	3	0	1	0		0	0	237.185026300009	237.285001900003
46622.5	0.0999843000026885	561	satiated	stimuli/non_foods\non-food_animate_cheetah.jpg	1	5	1	non-food_animate_cheetah	0	D	2	0	100	0		0	0	237.335018500002	237.435002800004
46660	0.0999805000028573	562	satiated	stimuli/foods\cooked_ham.jpg	1	5	1	cooked_ham	1	X	17	0	35	0		0	0	237.485017900006	237.584998400009
46697.5	0.0999838999996427	563	satiated	stimuli/foods\fruit_pie.jpg	1	5	1	fruit_pie	1	P	11	0	54	0		0	0	237.63502680001	237.735010700009
46735	0.0999688000010792	564	satiated	stimuli/non_foods\non-food_inanimate_grass.jpg	1	5	1	non-food_inanimate_grass	0	H	5	0	184	0		0	0	237.785028400001	237.884997200003
46772.5	0.0999848999927053	565	satiated	stimuli/non_foods\non-food_inanimate_highlighter.jpg	1	5	1	non-food_inanimate_highlighter	0	N	10	0	189	0		0	0	237.935011100009	238.034996000002
46810	0.0999924999923678	566	satiated	stimuli/non_foods\non-food_animate_runner.jpg	1	5	1	non-food_animate_runner	0	S	13	0	142	0		0	0	238.085002100008	238.1849946
46847.5	0.0999658000073396	567	satiated	stimuli/foods\grapes.jpg	1	5	1	grapes	1	T	14	0	60	0		0	0	238.235026299997	238.334992100004
46885	0.0999870999949053	568	satiated	stimuli/non_foods\non-food_animate_grasshopper.jpg	1	5	1	non-food_animate_grasshopper	0	G	4	0	117	0		0	0	238.385007500008	238.484994600003
46922.5	0.0999806000036187	569	satiated	stimuli/non_foods\non-food_animate_ant.jpg	1	5	1	non-food_animate_ant	0	L	8	0	91	0		0	0	238.535009700005	238.634990300008
46960	0.0999864000041271	570	satiated	stimuli/non_foods\non-food_inanimate_scissors.jpg	1	5	1	non-food_inanimate_scissors	0	H	5	0	205	0		0	0	238.685004400002	238.784990800006
46997.5	0.0999780999991344	571	satiated	stimuli/foods\brussel_sprouts.jpg	1	5	1	brussel_sprouts	1	F	3	0	15	0		0	0	238.835005500005	238.934983600004
47035	0.0999786000029417	572	satiated	stimuli/foods\fried_zucchini.jpg	1	5	1	fried_zucchini	1	W	16	0	51	0		0	0	238.9849942	239.084972800003
47072.5	0.0999895000131801	573	satiated	stimuli/foods\cupcake.jpg	1	5	1	cupcake	1	K	7	0	42	0		0	0	239.134992699997	239.234982200011
47110	0.0999840000004042	574	satiated	stimuli/non_foods\non-food_animate_ladybug.jpg	1	5	1	non-food_animate_ladybug	0	Z	18	0	124	0		0	0	239.284987400009	239.38497140001
47147.5	0.100022400001762	575	satiated	stimuli/non_foods\non-food_animate_dolphin.jpg	1	5	1	non-food_animate_dolphin	0	J	6	0	106	0		0	0	239.435019600001	239.535042000003
47185	0.0999461000028532	576	satiated	stimuli/non_foods\non-food_inanimate_soccer_ball.jpg	1	5	1	non-food_inanimate_soccer_ball	0	T	14	0	210	0		0	0	239.585034600008	239.684980700011
47222.5	0.0999818999989657	577	satiated	stimuli/foods\pork_and_rice.jpg	1	5	1	pork_and_rice	1	S	13	0	245	0		0	0	239.734996400002	239.834978300001
47260	0.0999811999936355	578	satiated	stimuli/non_foods\non-food_animate_ram.jpg	1	5	1	non-food_animate_ram	0	H	5	0	140	0		0	0	239.884986800011	239.984968000004
47297.5	0.0999989999982063	579	satiated	stimuli/non_foods\non-food_inanimate_couch.jpg	1	5	1	non-food_inanimate_couch	0	R	12	0	176	0		0	0	240.034975000002	240.134974000001
47335	0.0999880000017583	580	satiated	stimuli/non_foods\non-food_animate_giraffe.jpg	1	5	1	non-food_animate_giraffe	0	X	17	0	115	0		0	0	240.184981800005	240.284969800006
47372.5	0.0999713999917731	581	satiated	stimuli/foods\blackberry.jpg	1	5	1	blackberry	1	F	3	0	11	0		0	0	240.334984500005	240.434955899997
47410	0.099996499993722	582	satiated	stimuli/foods\clams.jpg	1	5	1	clams	1	R	12	0	32	0		0	0	240.484978000008	240.584974500001
47447.5	0.0999693000048865	583	satiated	stimuli/non_foods\non-food_animate_lion.jpg	1	5	1	non-food_animate_lion	0	D	2	0	125	0		0	0	240.634989600003	240.734958900008
47485	0.100014600000577	584	satiated	stimuli/non_foods\non-food_animate_mammoth.jpg	1	5	1	non-food_animate_mammoth	0	X	17	0	128	0		0	0	240.78495690001	240.884971500011
47522.5	0.0999835999973584	585	satiated	stimuli/foods\figs.jpg	1	5	1	figs	1	K	7	0	48	0		0	0	240.934987000001	241.034970599998
47560	0.0999910999962594	586	satiated	stimuli/foods\hamburger.jpg	1	5	1	hamburger	1	H	5	0	64	0		0	0	241.084982800006	241.184973900003
47597.5	0.0999683000118239	587	satiated	stimuli/non_foods\non-food_inanimate_tree.jpg	1	5	1	non-food_inanimate_tree	0	V	15	0	223	0		0	0	241.234989999997	241.334958300009
47635	0.0999949999968521	588	satiated	stimuli/foods\kiwi.jpg	1	5	1	kiwi	1	L	8	0	69	0		0	0	241.384970500003	241.4849655
47672.5	0.099988799993298	589	satiated	stimuli/foods\broccoli.jpg	1	5	1	broccoli	1	B	0	0	13	0		0	0	241.534979000004	241.634967799997
47710	0.0999815999966813	590	satiated	stimuli/foods\rockmelon.jpg	1	5	1	rockmelon	1	N	10	0	262	0		0	0	241.684980100006	241.784961700003
47747.5	0.0999867000064114	591	satiated	stimuli/non_foods\non-food_animate_kangaroo.jpg	1	5	1	non-food_animate_kangaroo	0	S	13	0	122	0		0	0	241.834973999998	241.934960700004
47785	0.09998440000345	592	satiated	stimuli/foods\pickles.jpg	1	5	1	pickles	1	N	10	0	242	0		0	0	241.9849732	242.084957600004
47822.5	0.0999865000048885	593	satiated	stimuli/non_foods\non-food_animate_green_bug.jpg	1	5	1	non-food_animate_green_bug	0	C	1	0	118	0		0	0	242.134971899999	242.234958400004
47860	0.1000015999889	594	satiated	stimuli/foods\cherry.jpg	1	5	1	cherry	1	B	0	0	23	0		0	0	242.28497220001	242.384973799999
47897.5	0.0999859000003198	595	satiated	stimuli/foods\bagel.jpg	1	5	1	bagel	1	P	11	0	6	0		0	0	242.4349716	242.5349575
47935	0.0999900000024354	596	satiated	stimuli/foods\chocolate_chip_cookies.jpg	1	5	1	chocolate_chip_cookies	1	G	4	0	27	0		0	0	242.584967400006	242.684957400008
47972.5	0.0999734999932116	597	satiated	stimuli/non_foods\non-food_animate_peacock.jpg	1	5	1	non-food_animate_peacock	0	V	15	0	134	0		0	0	242.734970000005	242.834943499998
48010	0.0999923999916064	598	satiated	stimuli/non_foods\non-food_animate_sea_lion.jpg	1	5	1	non-food_animate_sea_lion	0	S	13	0	143	0		0	0	242.884963200006	242.984955599997
48047.5	0.0999760999984574	599	satiated	stimuli/foods\salmon.jpg	1	5	1	salmon	1	K	7	0	264	0		0	0	243.034975900009	243.134952000008
48085	0.0999707000009948	600	satiated	stimuli/foods\grapefruits.jpg	1	5	1	grapefruits	1	G	4	0	59	0		0	0	243.184965599998	243.284936299999
48122.5	0.0999764000007417	601	satiated	stimuli/foods\peas.jpg	1	5	1	peas	1	I	21	1	240	0		0	0	243.3349571	243.434933500001
48160	0.100004799998715	602	satiated	stimuli/foods\raisins.jpg	1	5	1	raisins	1	L	8	0	252	0		0	0	243.484937100002	243.584941900001
48197.5	0.0999867000064114	603	satiated	stimuli/foods\linguine_with_clams.jpg	1	5	1	linguine_with_clams	1	R	12	0	77	0		0	0	243.634957000002	243.734943700008
48235	0.09998660000565	604	satiated	stimuli/foods\frankfurter_and_provolone_salad.jpg	1	5	1	frankfurter_and_provolone_salad	1	K	7	0	49	1	a	0.541824900006759	1	243.784957900003	243.884944500009
48272.5	0.0999851000087801	605	satiated	stimuli/non_foods\non-food_animate_duck.jpg	1	5	1	non-food_animate_duck	0	P	11	0	109	0		0	0	243.934957799996	244.034942900005
48310	0.0999755000084406	606	satiated	stimuli/non_foods\non-food_inanimate_orchid.jpg	1	5	1	non-food_inanimate_orchid	0	N	10	0	198	0		0	0	244.0849552	244.184930700008
48347.5	0.0999598999915179	607	satiated	stimuli/foods\chestnut.jpg	1	5	1	chestnut	1	G	4	0	24	0		0	0	244.234960600006	244.334920499998
48385	0.0999853999965126	608	satiated	stimuli/non_foods\non-food_inanimate_bamboo.jpg	1	5	1	non-food_inanimate_bamboo	0	H	5	0	159	0		0	0	244.384952000008	244.484937400004
48422.5	0.0999882000032812	609	satiated	stimuli/foods\coffee_beans.jpg	1	5	1	coffee_beans	1	W	16	0	34	0		0	0	244.534950500005	244.634938700008
48460	0.0999961999914376	610	satiated	stimuli/non_foods\non-food_animate_donkey.jpg	1	5	1	non-food_animate_donkey	0	F	3	0	107	0		0	0	244.684949600007	244.784945799998
48497.5	0.0999623999960022	611	satiated	stimuli/foods\cucumber.jpg	1	5	1	cucumber	1	S	13	0	41	0		0	0	244.834969000003	244.934931399999
48535	0.0999710000032792	612	satiated	stimuli/foods\capsicum.jpg	1	5	1	capsicum	1	D	2	0	18	0		0	0	244.984963800001	245.084934800005
48572.5	0.0999943000060739	613	satiated	stimuli/foods\oyster.jpg	1	5	1	oyster	1	S	13	0	233	0		0	0	245.134945500002	245.234939800008
48610	0.0999891000101343	614	satiated	stimuli/foods\chocolate_pudding.jpg	1	5	1	chocolate_pudding	1	F	3	0	29	0		0	0	245.284939899997	245.384929000007
48647.5	0.0999847999919439	615	satiated	stimuli/non_foods\non-food_animate_mouse.jpg	1	5	1	non-food_animate_mouse	0	S	13	0	131	0		0	0	245.434943900007	245.534928699999
48685	0.0999861000018427	616	satiated	stimuli/non_foods\non-food_animate_yellow_bug.jpg	1	5	1	non-food_animate_yellow_bug	0	J	6	0	155	0		0	0	245.584941599998	245.6849277
48722.5	0.0999885000055656	617	satiated	stimuli/non_foods\non-food_animate_sea_turtle.jpg	1	5	1	non-food_animate_sea_turtle	0	U	23	1	144	0		0	0	245.734938399997	245.834926900003
48760	0.099989900001674	618	satiated	stimuli/non_foods\non-food_inanimate_drum_set.jpg	1	5	1	non-food_inanimate_drum_set	0	T	14	0	179	0		0	0	245.884932600005	245.984922500007
48797.5	0.0999773000075947	619	satiated	stimuli/non_foods\non-food_animate_caterpillar.jpg	1	5	1	non-food_animate_caterpillar	0	F	3	0	99	0		0	0	246.034938199999	246.134915500006
48835	0.099986599991098	620	satiated	stimuli/foods\lamb_chops.jpg	1	5	1	lamb_chops	1	B	0	0	70	0		0	0	246.184938000006	246.284924599997
48872.5	0.0999540000048	621	satiated	stimuli/foods\red_beans.jpg	1	5	1	red_beans	1	M	9	0	255	0		0	0	246.334943499998	246.434897500003
48910	0.0999988999974448	622	satiated	stimuli/non_foods\non-food_animate_raccoon.jpg	1	5	1	non-food_animate_raccoon	0	X	17	0	139	1	a	0.743182100006379	1	246.484933	246.584931899997
48947.5	0.0999351999926148	623	satiated	stimuli/foods\chocolate_pralines.jpg	1	5	1	chocolate_pralines	1	D	2	0	28	0		0	0	246.63497710001	246.734912300002
48985	0.0999905999924522	624	satiated	stimuli/foods\onion.jpg	1	5	1	onion	1	N	10	0	229	0		0	0	246.784918100006	246.884908699998
49022.5	0.0999977000028593	625	satiated	stimuli/foods\steak.jpg	1	5	1	steak	1	D	2	0	270	0		0	0	246.93492	247.034917700003
49060	0.100011600006837	626	satiated	stimuli/non_foods\non-food_inanimate_moss.jpg	1	5	1	non-food_inanimate_moss	0	R	12	0	194	0		0	0	247.084902200004	247.184913800011
49097.5	0.099989900001674	627	satiated	stimuli/non_foods\non-food_inanimate_towel.jpg	1	5	1	non-food_inanimate_towel	0	P	11	0	221	0		0	0	247.234921800002	247.334911700003
49135	0.0999894999986282	628	satiated	stimuli/non_foods\non-food_inanimate_bicycle.jpg	1	5	1	non-food_inanimate_bicycle	0	N	10	0	161	0		0	0	247.384923300007	247.484912800006
49172.5	0.0999863000033656	629	satiated	stimuli/foods\coconut.jpg	1	5	1	coconut	1	P	11	0	33	0		0	0	247.5349231	247.634909400003
49210	0.09994889999507	630	satiated	stimuli/non_foods\non-food_inanimate_folding_chair.jpg	1	5	1	non-food_inanimate_folding_chair	0	B	0	0	182	0		0	0	247.684953100004	247.784901999999
49247.5	0.0999888999940595	631	satiated	stimuli/non_foods\non-food_inanimate_chandelier.jpg	1	5	1	non-food_inanimate_chandelier	0	D	2	0	173	0		0	0	247.83492020001	247.934909100004
49285	0.0999828999920283	632	satiated	stimuli/foods\egg.jpg	1	5	1	egg	1	G	4	0	45	0		0	0	247.984920500006	248.084903399998
49322.5	0.0999914999993052	633	satiated	stimuli/foods\tomato.jpg	1	5	1	tomato	1	M	9	0	276	0		0	0	248.134916399998	248.234907899998
49360	0.0999889000086114	634	satiated	stimuli/foods\cereal.jpg	1	5	1	cereal	1	L	8	0	22	0		0	0	248.2849231	248.384912000009
49397.5	0.0999613999883877	635	satiated	stimuli/non_foods\non-food_animate_woman.jpg	1	5	1	non-food_animate_woman	0	D	2	0	154	0		0	0	248.434942300009	248.534903699998
49435	0.0999754000076791	636	satiated	stimuli/non_foods\non-food_inanimate_bed.jpg	1	5	1	non-food_inanimate_bed	0	F	3	0	160	0		0	0	248.584917100001	248.684892500009
49472.5	0.0999773999938043	637	satiated	stimuli/foods\hazelnuts.jpg	1	5	1	hazelnuts	1	W	16	0	65	0		0	0	248.734912900007	248.834890300001
49510	0.0999985999951605	638	satiated	stimuli/non_foods\non-food_animate_snail.jpg	1	5	1	non-food_animate_snail	0	M	9	0	149	0		0	0	248.884900300007	248.984898900002
49547.5	0.0999856999987969	639	satiated	stimuli/non_foods\non-food_animate_cat.jpg	1	5	1	non-food_animate_cat	0	J	6	0	98	0		0	0	249.034909000009	249.134894700008
