onset	duration	eventnumber	hunger_condition	stimfilename	blockno	trialno	is_faststream	stim	food_idx	letter	letter_idx	istarget	image_number	response	keypressed	rt	correct	time_stimon	time_stimoff
5186	0.0999884000048041	0	hunger	stimuli/foods\croissant.jpg	1	1	1	croissant	1	X	17	0	40	0		0	0	61.908785800013	62.0087742000178
5223.5	0.10004009999102	1	hunger	stimuli/non_foods\non-food_animate_gorilla.jpg	1	1	1	non-food_animate_gorilla	0	N	10	0	116	0		0	0	62.0587865000125	62.1588266000035
5261	0.0999889000086114	2	hunger	stimuli/foods\blackberry.jpg	1	1	1	blackberry	1	D	2	0	11	0		0	0	62.2087830000091	62.3087719000177
5298.5	0.0999841000011656	3	hunger	stimuli/non_foods\non-food_animate_green_bug.jpg	1	1	1	non-food_animate_green_bug	0	V	15	0	118	0		0	0	62.3587823999987	62.4587664999999
5336	0.0999838999996427	4	hunger	stimuli/foods\museli_bars.jpg	1	1	1	museli_bars	1	S	13	0	84	0		0	0	62.5087786999939	62.6087625999935
5373.5	0.0999822000158019	5	hunger	stimuli/foods\minestrone_soup.jpg	1	1	1	minestrone_soup	1	W	16	0	82	0		0	0	62.6587801999995	62.7587624000153
5411	0.0999943999922834	6	hunger	stimuli/foods\apricot.jpg	1	1	1	apricot	1	F	3	0	2	0		0	0	62.8087682000187	62.908762600011
5448.5	0.099969200004125	7	hunger	stimuli/non_foods\non-food_inanimate_teddy_bear.jpg	1	1	1	non-food_inanimate_teddy_bear	0	J	6	0	218	0		0	0	62.9587866000074	63.0587558000116
5486	0.0999860000156332	8	hunger	stimuli/non_foods\non-food_inanimate_waterlily.jpg	1	1	1	non-food_inanimate_waterlily	0	L	8	0	226	0		0	0	63.1087703999947	63.2087564000103
5523.5	0.0999851000087801	9	hunger	stimuli/foods\fried_zucchini.jpg	1	1	1	fried_zucchini	1	M	9	0	51	0		0	0	63.2587724000041	63.3587575000129
5561	0.0999643999966793	10	hunger	stimuli/non_foods\non-food_inanimate_tent.jpg	1	1	1	non-food_inanimate_tent	0	P	11	0	219	0		0	0	63.4087696000061	63.5087340000027
5598.5	0.100009100016905	11	hunger	stimuli/foods\pork_and_rice.jpg	1	1	1	pork_and_rice	1	W	16	0	245	0		0	0	63.5587422999961	63.658751400013
5636	0.0999768000037875	12	hunger	stimuli/non_foods\non-food_inanimate_bicycle.jpg	1	1	1	non-food_inanimate_bicycle	0	S	13	0	161	0		0	0	63.7087686000159	63.8087454000197
5673.5	0.0996749000041746	13	hunger	stimuli/foods\waffle.jpg	1	1	1	waffle	1	T	14	0	278	0		0	0	63.8590797999932	63.9587546999974
5711	0.0999837999988813	14	hunger	stimuli/non_foods\non-food_inanimate_highlighter.jpg	1	1	1	non-food_inanimate_highlighter	0	D	2	0	189	0		0	0	64.0087648000044	64.1087486000033
5748.5	0.0999620000075083	15	hunger	stimuli/non_foods\non-food_inanimate_moss.jpg	1	1	1	non-food_inanimate_moss	0	H	5	0	194	0		0	0	64.158786999993	64.2587490000005
5786	0.0999813000089489	16	hunger	stimuli/foods\lentils.jpg	1	1	1	lentils	1	D	2	0	74	0		0	0	64.3087649999943	64.4087463000033
5823.5	0.0999885999772232	17	hunger	stimuli/non_foods\non-food_animate_dolphin.jpg	1	1	1	non-food_animate_dolphin	0	L	8	0	106	0		0	0	64.4587573000172	64.5587458999944
5861	0.0999879000009969	18	hunger	stimuli/foods\coffee_beans.jpg	1	1	1	coffee_beans	1	R	12	0	34	0		0	0	64.6087586999929	64.7087465999939
5898.5	0.100012000009883	19	hunger	stimuli/foods\toasted_bread_with_tomatoes.jpg	1	1	1	toasted_bread_with_tomatoes	1	V	15	0	275	0		0	0	64.7587464000098	64.8587584000197
5936	0.0999738999817055	20	hunger	stimuli/foods\pepperoni_pizza.jpg	1	1	1	pepperoni_pizza	1	S	13	0	241	0		0	0	64.9087665000116	65.0087403999933
5973.5	0.0999958000029437	21	hunger	stimuli/non_foods\non-food_inanimate_guitar.jpg	1	1	1	non-food_inanimate_guitar	0	B	0	0	185	0		0	0	65.0587417999923	65.1587375999952
6011	0.0999881000025198	22	hunger	stimuli/foods\baked_lamb_with_potatoes.jpg	1	1	1	baked_lamb_with_potatoes	1	N	10	0	8	0		0	0	65.2087527000112	65.3087408000138
6048.5	0.0999817999836523	23	hunger	stimuli/non_foods\non-food_inanimate_drum_set.jpg	1	1	1	non-food_inanimate_drum_set	0	K	7	0	179	0		0	0	65.3587541000161	65.4587358999997
6086	0.0999862000171561	24	hunger	stimuli/non_foods\non-food_animate_ant.jpg	1	1	1	non-food_animate_ant	0	P	11	0	91	0		0	0	65.5087490000005	65.6087352000177
6123.5	0.0999887000070885	25	hunger	stimuli/foods\taco.jpg	1	1	1	taco	1	W	16	0	274	0		0	0	65.6587456999987	65.7587344000058
6161	0.100001000013435	26	hunger	stimuli/foods\chocolate_bar.jpg	1	1	1	chocolate_bar	1	K	7	0	26	0		0	0	65.8087471000035	65.908748100017
6198.5	0.0999850000080187	27	hunger	stimuli/foods\mango.jpg	1	1	1	mango	1	V	15	0	80	0		0	0	65.9587451000116	66.0587301000196
6236	0.0999880000017583	28	hunger	stimuli/non_foods\non-food_inanimate_clover.jpg	1	1	1	non-food_inanimate_clover	0	Z	18	0	174	0		0	0	66.1087437999959	66.2087317999976
6273.5	0.0999852000095416	29	hunger	stimuli/foods\pea_pod.jpg	1	1	1	pea_pod	1	B	0	0	237	0		0	0	66.2587410999986	66.3587263000081
6311	0.0999965999799315	30	hunger	stimuli/non_foods\non-food_animate_seal.jpg	1	1	1	non-food_animate_seal	0	J	6	0	146	0		0	0	66.4087403000158	66.5087368999957
6348.5	0.0999539000040386	31	hunger	stimuli/foods\omelette.jpg	1	1	1	omelette	1	S	13	0	228	0		0	0	66.5587732999993	66.6587272000033
6386	0.0999754999938887	32	hunger	stimuli/non_foods\non-food_animate_baby_crawling.jpg	1	1	1	non-food_animate_baby_crawling	0	X	17	0	92	0		0	0	66.7087540000211	66.808729500015
6423.5	0.0999859999865294	33	hunger	stimuli/non_foods\non-food_animate_butterfly.jpg	1	1	1	non-food_animate_butterfly	0	K	7	0	96	0		0	0	66.8587383000122	66.9587242999987
6461	0.099988099973416	34	hunger	stimuli/non_foods\non-food_animate_kangaroo.jpg	1	1	1	non-food_animate_kangaroo	0	D	2	0	122	0		0	0	67.0087324000197	67.1087204999931
6498.5	0.099985699984245	35	hunger	stimuli/foods\celery.jpg	1	1	1	celery	1	P	11	0	21	0		0	0	67.1587357000099	67.2587213999941
6536	0.0999836999981198	36	hunger	stimuli/foods\baked_cod_with_carrots_and_green_beans.jpg	1	1	1	baked_cod_with_carrots_and_green_beans	1	J	6	0	7	0		0	0	67.3087354000018	67.4087190999999
6573.5	0.0999867999926209	37	hunger	stimuli/non_foods\non-food_inanimate_canoe.jpg	1	1	1	non-food_inanimate_canoe	0	H	5	0	170	0		0	0	67.4587308000191	67.5587176000117
6611	0.100035299983574	38	hunger	stimuli/foods\peas.jpg	1	1	1	peas	1	J	6	0	240	0		0	0	67.6087275000173	67.7087628000008
6648.5	0.0999798999982886	39	hunger	stimuli/foods\risotto_with_zucchini.jpg	1	1	1	risotto_with_zucchini	1	G	4	0	260	0		0	0	67.7587307000067	67.858710600005
6686	0.0999966000090353	40	hunger	stimuli/foods\raw_sausage.jpg	1	1	1	raw_sausage	1	R	12	0	254	0		0	0	67.9087200000067	68.0087166000158
6723.5	0.0999848999781534	41	hunger	stimuli/foods\prawn.jpg	1	1	1	prawn	1	X	17	0	249	0		0	0	68.0587257000152	68.1587105999934
6761	0.0999952999991365	42	hunger	stimuli/non_foods\non-food_inanimate_pine_cone.jpg	1	1	1	non-food_inanimate_pine_cone	0	K	7	0	200	0		0	0	68.2087280999986	68.3087233999977
6798.5	0.0999967000097968	43	hunger	stimuli/foods\pear.jpg	1	1	1	pear	1	S	13	0	239	0		0	0	68.3587380000099	68.4587347000197
6836	0.0999828000203706	44	hunger	stimuli/non_foods\non-food_inanimate_buds.jpg	1	1	1	non-food_inanimate_buds	0	F	3	0	166	0		0	0	68.5087212999933	68.6087041000137
6873.5	0.0999866000202019	45	hunger	stimuli/foods\green_beans.jpg	1	1	1	green_beans	1	Z	18	0	61	0		0	0	68.6587186999968	68.758705300017
6911	0.0999847000057343	46	hunger	stimuli/foods\cupcake.jpg	1	1	1	cupcake	1	G	4	0	42	1	a	0	0	68.8087195999979	68.9087043000036
6948.5	0.099990999995498	47	hunger	stimuli/non_foods\non-food_animate_young_girl.jpg	1	1	1	non-food_animate_young_girl	0	T	14	0	157	0		0	0	68.9587166999991	69.0587076999946
6986	0.0999830999935511	48	hunger	stimuli/foods\mussels.jpg	1	1	1	mussels	1	S	13	0	86	0		0	0	69.1087187000085	69.208701800002
7023.5	0.0999878000002354	49	hunger	stimuli/non_foods\non-food_animate_donkey.jpg	1	1	1	non-food_animate_donkey	0	R	12	0	107	0		0	0	69.2587090000161	69.3586968000163
7061	0.0999875999987125	50	hunger	stimuli/non_foods\non-food_inanimate_chair.jpg	1	1	1	non-food_inanimate_chair	0	D	2	0	172	0		0	0	69.4087136000162	69.5087012000149
7098.5	0.0999852999811992	51	hunger	stimuli/non_foods\non-food_animate_horse.jpg	1	1	1	non-food_animate_horse	0	V	15	0	119	0		0	0	69.5587108000182	69.6586960999994
7136	0.0999827999912668	52	hunger	stimuli/foods\cream_donuts.jpg	1	1	1	cream_donuts	1	X	17	0	39	0		0	0	69.7087113000161	69.8086941000074
7173.5	0.0999846999766305	53	hunger	stimuli/foods\linguine_with_clams.jpg	1	1	1	linguine_with_clams	1	L	8	0	77	0		0	0	69.8587085000181	69.9586931999947
7211	0.100019100005738	54	hunger	stimuli/non_foods\non-food_inanimate_fern.jpg	1	1	1	non-food_inanimate_fern	0	F	3	0	180	0		0	0	70.00870820001	70.1087273000157
7248.5	0.0999875999987125	55	hunger	stimuli/foods\figs.jpg	1	1	1	figs	1	J	6	0	48	0		0	0	70.158703699999	70.2586912999977
7286	0.0999835999973584	56	hunger	stimuli/non_foods\non-food_animate_snail.jpg	1	1	1	non-food_animate_snail	0	T	14	0	149	0		0	0	70.3087056000077	70.408689200005
7323.5	0.0999817999836523	57	hunger	stimuli/foods\cinnamon_sroll.jpg	1	1	1	cinnamon_sroll	1	Z	18	0	31	0		0	0	70.4587033000134	70.5586850999971
7361	0.0999857000133488	58	hunger	stimuli/non_foods\non-food_inanimate_folding_chair.jpg	1	1	1	non-food_inanimate_folding_chair	0	R	12	0	182	0		0	0	70.6087016999954	70.7086874000088
7398.5	0.0999824999889825	59	hunger	stimuli/non_foods\non-food_inanimate_socks.jpg	1	1	1	non-food_inanimate_socks	0	S	13	0	211	0		0	0	70.7587004000088	70.8586828999978
7436	0.0999905999924522	60	hunger	stimuli/foods\fried_calamari.jpg	1	1	1	fried_calamari	1	G	4	0	50	0		0	0	70.908694200014	71.0086848000064
7473.5	0.099987699999474	61	hunger	stimuli/non_foods\non-food_animate_polar_bear.jpg	1	1	1	non-food_animate_polar_bear	0	P	11	0	137	0		0	0	71.0586967999989	71.1586844999983
7511	0.0999806999752764	62	hunger	stimuli/foods\cracker.jpg	1	1	1	cracker	1	K	7	0	38	0		0	0	71.2087157000205	71.3086963999958
7548.5	0.099988600006327	63	hunger	stimuli/non_foods\non-food_animate_killer_whale.jpg	1	1	1	non-food_animate_killer_whale	0	R	12	0	123	0		0	0	71.3586919000081	71.4586805000145
7586	0.0999855000118259	64	hunger	stimuli/foods\cereal.jpg	1	1	1	cereal	1	V	15	0	22	0		0	0	71.5086905999924	71.6086761000042
7623.5	0.0999892000108957	65	hunger	stimuli/non_foods\non-food_animate_sea_turtle.jpg	1	1	1	non-food_animate_sea_turtle	0	Z	18	0	144	0		0	0	71.658689200005	71.7586784000159
7661	0.100005300017074	66	hunger	stimuli/foods\egg.jpg	1	1	1	egg	1	V	15	0	45	0		0	0	71.8086932000006	71.9086985000176
7698.5	0.0999616000044625	67	hunger	stimuli/non_foods\non-food_animate_ladybug.jpg	1	1	1	non-food_animate_ladybug	0	Z	18	0	124	0		0	0	71.9587105000101	72.0586721000145
7736	0.0999810000066645	68	hunger	stimuli/non_foods\non-food_inanimate_construction_helment.jpg	1	1	1	non-food_inanimate_construction_helment	0	H	5	0	175	0		0	0	72.1086861999938	72.2086672000005
7773.5	0.0999846000049729	69	hunger	stimuli/foods\ginger_root.jpg	1	1	1	ginger_root	1	M	9	0	57	0		0	0	72.2586849000072	72.3586695000122
7811	0.0999821999866981	70	hunger	stimuli/foods\mortadella.jpg	1	1	1	mortadella	1	W	16	0	83	0		0	0	72.4086820000084	72.5086641999951
7848.5	0.100005199987208	71	hunger	stimuli/foods\capsicum.jpg	1	1	1	capsicum	1	H	5	0	18	0		0	0	72.5586635000072	72.6586686999945
7886	0.0999816000112332	72	hunger	stimuli/non_foods\non-food_animate_alligator.jpg	1	1	1	non-food_animate_alligator	0	L	8	0	90	0		0	0	72.708683600009	72.8086652000202
7923.5	0.0999869000224862	73	hunger	stimuli/foods\raisins.jpg	1	1	1	raisins	1	N	10	0	252	0		0	0	72.8586787999957	72.9586657000182
7961	0.0999753999931272	74	hunger	stimuli/foods\pumpkin.jpg	1	1	1	pumpkin	1	W	16	0	250	0		0	0	73.0086903000192	73.1086657000124
7998.5	0.09998440000345	75	hunger	stimuli/non_foods\non-food_inanimate_watering_can.jpg	1	1	1	non-food_inanimate_watering_can	0	G	4	0	225	0		0	0	73.1586788000131	73.2586632000166
8036	0.0999893000116572	76	hunger	stimuli/foods\roasted_chicken.jpg	1	1	1	roasted_chicken	1	B	0	0	261	0		0	0	73.3086739999999	73.4086633000115
8073.5	0.0999845999758691	77	hunger	stimuli/non_foods\non-food_inanimate_alarm_clock.jpg	1	1	1	non-food_inanimate_alarm_clock	0	N	10	0	158	0		0	0	73.4586737000209	73.5586582999968
8111	0.0999761000275612	78	hunger	stimuli/non_foods\non-food_inanimate_towel.jpg	1	1	1	non-food_inanimate_towel	0	F	3	0	221	0		0	0	73.6086746999936	73.7086508000211
8148.5	0.0999943999922834	79	hunger	stimuli/non_foods\non-food_inanimate_wrench.jpg	1	1	1	non-food_inanimate_wrench	0	X	17	0	227	0		0	0	73.7586547000101	73.8586491000024
8186	0.0999833999958355	80	hunger	stimuli/foods\chocolate_pralines.jpg	1	1	1	chocolate_pralines	1	J	6	0	28	0		0	0	73.9086722000211	74.0086556000169
8223.5	0.0999867999926209	81	hunger	stimuli/foods\lettuce.jpg	1	1	1	lettuce	1	S	13	0	75	0		0	0	74.0586679000116	74.1586547000043
8261	0.0999848999781534	82	hunger	stimuli/foods\pomegranate.jpg	1	1	1	pomegranate	1	L	8	0	244	0		0	0	74.2086657000182	74.3086505999963
8298.5	0.0999862000171561	83	hunger	stimuli/foods\green_olives.jpg	1	1	1	green_olives	1	H	5	0	62	0		0	0	74.3586630999926	74.4586493000097
8336	0.0999745999870356	84	hunger	stimuli/non_foods\non-food_animate_young_boy.jpg	1	1	1	non-food_animate_young_boy	0	B	0	0	156	0		0	0	74.5086656000058	74.6086401999928
8373.5	0.100003500003368	85	hunger	stimuli/non_foods\non-food_inanimate_button.jpg	1	1	1	non-food_inanimate_button	0	S	13	0	168	0		0	0	74.6586628000077	74.7586663000111
8411	0.0999731000047177	86	hunger	stimuli/non_foods\non-food_animate_owl.jpg	1	1	1	non-food_animate_owl	0	X	17	0	132	0		0	0	74.8086808999942	74.9086539999989
8448.5	0.0999852000095416	87	hunger	stimuli/foods\spaghetti_with_meat_sauce.jpg	1	1	1	spaghetti_with_meat_sauce	1	G	4	0	267	0		0	0	74.958652500005	75.0586377000145
8486	0.0999849999789149	88	hunger	stimuli/non_foods\non-food_animate_llama.jpg	1	1	1	non-food_animate_llama	0	T	14	0	127	0		0	0	75.1086507000146	75.2086356999935
8523.5	0.0999952999991365	89	hunger	stimuli/non_foods\non-food_inanimate_shell.jpg	1	1	1	non-food_inanimate_shell	0	K	7	0	206	0		0	0	75.258650600008	75.3586459000071
8561	0.100012999988394	90	hunger	stimuli/non_foods\non-food_animate_penguin.jpg	1	1	1	non-food_animate_penguin	0	F	3	0	135	0		0	0	75.408651900012	75.5086649000004
8598.5	0.0999567000253592	91	hunger	stimuli/foods\swordfish.jpg	1	1	1	swordfish	1	N	10	0	273	0		0	0	75.5586847999948	75.6586415000202
8636	0.0999862999888137	92	hunger	stimuli/foods\potato_chips.jpg	1	1	1	potato_chips	1	K	7	0	247	0		0	0	75.7086533000111	75.8086395999999
8673.5	0.09994889999507	93	hunger	stimuli/non_foods\non-food_inanimate_bowling_ball.jpg	1	1	1	non-food_inanimate_bowling_ball	0	I	21	1	162	0		0	0	75.8586589000188	75.9586078000139
8711	0.0999887000070885	94	hunger	stimuli/non_foods\non-food_animate_cat.jpg	1	1	1	non-food_animate_cat	0	K	7	0	98	0		0	0	76.0086465000059	76.1086352000129
8748.5	0.0999792999937199	95	hunger	stimuli/non_foods\non-food_animate_frog.jpg	1	1	1	non-food_animate_frog	0	W	16	0	113	0		0	0	76.1586521000136	76.2586314000073
8786	0.0999851000087801	96	hunger	stimuli/foods\brie.jpg	1	1	1	brie	1	F	3	0	12	1	a	0.541809899994405	1	76.3086449000111	76.4086300000199
8823.5	0.0999875999987125	97	hunger	stimuli/non_foods\non-food_animate_squirrel.jpg	1	1	1	non-food_animate_squirrel	0	J	6	0	150	0		0	0	76.458641300007	76.5586289000057
8861	0.0999836999981198	98	hunger	stimuli/non_foods\non-food_animate_mouse.jpg	1	1	1	non-food_animate_mouse	0	G	4	0	131	0		0	0	76.6086437000195	76.7086274000176
8898.5	0.0999841000011656	99	hunger	stimuli/non_foods\non-food_inanimate_bucket.jpg	1	1	1	non-food_inanimate_bucket	0	D	2	0	165	0		0	0	76.758642300003	76.8586264000041
8936	0.0999840000004042	100	hunger	stimuli/foods\corncob.jpg	1	1	1	corncob	1	F	3	0	37	0		0	0	76.9086436000071	77.0086276000075
8973.5	0.099974500015378	101	hunger	stimuli/foods\clams.jpg	1	1	1	clams	1	D	2	0	32	0		0	0	77.0586395999999	77.1586141000153
9011	0.0999817999836523	102	hunger	stimuli/non_foods\non-food_inanimate_padlock.jpg	1	1	1	non-food_inanimate_padlock	0	M	9	0	199	0		0	0	77.2086454000091	77.3086271999928
9048.5	0.0999673999904189	103	hunger	stimuli/non_foods\non-food_animate_camel.jpg	1	1	1	non-food_animate_camel	0	H	5	0	97	0		0	0	77.3586550000182	77.4586224000086
9086	0.0999806999752764	104	hunger	stimuli/non_foods\non-food_inanimate_nest.jpg	1	1	1	non-food_inanimate_nest	0	G	4	0	196	0		0	0	77.508636500017	77.6086171999923
9123.5	0.0999821999866981	105	hunger	stimuli/non_foods\non-food_animate_cow.jpg	1	1	1	non-food_animate_cow	0	S	13	0	103	0		0	0	77.6586373000173	77.758619500004
9161	0.0999846999766305	106	hunger	stimuli/non_foods\non-food_inanimate_speakers.jpg	1	1	1	non-food_inanimate_speakers	0	Z	18	0	212	0		0	0	77.8086306000187	77.9086152999953
9198.5	0.0999904999916907	107	hunger	stimuli/foods\smoked_ham.jpg	1	1	1	smoked_ham	1	S	13	0	266	0		0	0	77.9586270000145	78.0586175000062
9236	0.099982399988221	108	hunger	stimuli/non_foods\non-food_inanimate_chandelier.jpg	1	1	1	non-food_inanimate_chandelier	0	B	0	0	173	0		0	0	78.1086321000184	78.2086145000067
9273.5	0.0999982999928761	109	hunger	stimuli/non_foods\non-food_animate_giraffe.jpg	1	1	1	non-food_animate_giraffe	0	X	17	0	115	0		0	0	78.2586283000128	78.3586266000057
9311	0.0999633999890648	110	hunger	stimuli/foods\lollies.jpg	1	1	1	lollies	1	J	6	0	78	0		0	0	78.4086475000076	78.5086108999967
9348.5	0.0999856000125874	111	hunger	stimuli/foods\cinnamon.jpg	1	1	1	cinnamon	1	C	1	0	30	0		0	0	78.5586239999975	78.6586096000101
9386	0.0999819999851752	112	hunger	stimuli/foods\papaya.jpg	1	1	1	papaya	1	W	16	0	235	0		0	0	78.7086224000086	78.8086043999938
9423.5	0.0999907000223175	113	hunger	stimuli/non_foods\non-food_inanimate_nettle.jpg	1	1	1	non-food_inanimate_nettle	0	R	12	0	197	0		0	0	78.8586248999927	78.958615600015
9461	0.0999568999977782	114	hunger	stimuli/non_foods\non-food_inanimate_rope.jpg	1	1	1	non-food_inanimate_rope	0	L	8	0	204	0		0	0	79.0086414999969	79.1085983999947
9498.5	0.0999878000002354	115	hunger	stimuli/non_foods\non-food_animate_rhino.jpg	1	1	1	non-food_animate_rhino	0	S	13	0	141	0		0	0	79.1586188999936	79.2586066999938
9536	0.0999905000207946	116	hunger	stimuli/foods\pasta_carbonara.jpg	1	1	1	pasta_carbonara	1	T	14	0	236	0		0	0	79.3086127999995	79.4086033000203
9573.5	0.0999927000084426	117	hunger	stimuli/foods\hotdog.jpg	1	1	1	hotdog	1	F	3	0	67	0		0	0	79.4586153000128	79.5586080000212
9611	0.100005199987208	118	hunger	stimuli/non_foods\non-food_inanimate_hammer.jpg	1	1	1	non-food_inanimate_hammer	0	D	2	0	186	0		0	0	79.6085974000162	79.7086026000034
9648.5	0.0999761000275612	119	hunger	stimuli/non_foods\non-food_animate_Causasian_man.jpg	1	1	1	non-food_animate_Causasian_man	0	S	13	0	89	0		0	0	79.7586218999932	79.8585980000207
9686	0.099986400018679	120	hunger	stimuli/foods\pineapple.jpg	1	1	1	pineapple	1	O	22	1	243	0		0	0	79.9086121	80.0085985000187
9723.5	0.09999390001758	121	hunger	stimuli/foods\nectarine.jpg	1	1	1	nectarine	1	R	12	0	87	0		0	0	80.0586041999923	80.1585981000098
9761	0.0999824000173248	122	hunger	stimuli/foods\salmon.jpg	1	1	1	salmon	1	Z	18	0	264	0		0	0	80.2086094999977	80.308591900015
9798.5	0.0999851999804378	123	hunger	stimuli/non_foods\non-food_inanimate_skirt.jpg	1	1	1	non-food_inanimate_skirt	0	K	7	0	209	1	a	0.443284700013464	1	80.3586088000156	80.4585939999961
9836	0.0999885000055656	124	hunger	stimuli/non_foods\non-food_animate_deer.jpg	1	1	1	non-food_animate_deer	0	G	4	0	105	0		0	0	80.5086027999932	80.6085912999988
9873.5	0.0999986999959219	125	hunger	stimuli/non_foods\non-food_inanimate_nailpolish.jpg	1	1	1	non-food_inanimate_nailpolish	0	L	8	0	195	0		0	0	80.6586039999966	80.7586026999925
9911	0.0999797999975272	126	hunger	stimuli/non_foods\non-food_animate_cheetah.jpg	1	1	1	non-food_animate_cheetah	0	W	16	0	100	0		0	0	80.808611800021	80.9085916000186
9948.5	0.0999831999943126	127	hunger	stimuli/non_foods\non-food_animate_runner.jpg	1	1	1	non-food_animate_runner	0	F	3	0	142	0		0	0	80.958601899998	81.0585850999923
9986	0.099987699999474	128	hunger	stimuli/non_foods\non-food_animate_tortoise.jpg	1	1	1	non-food_animate_tortoise	0	T	14	0	153	0		0	0	81.1085998000053	81.2085875000048
10023.5	0.0999867999926209	129	hunger	stimuli/non_foods\non-food_inanimate_sun_flower.jpg	1	1	1	non-food_inanimate_sun_flower	0	C	1	0	216	0		0	0	81.2585977000126	81.3585845000052
10061	0.0999827999912668	130	hunger	stimuli/non_foods\non-food_animate_bee.jpg	1	1	1	non-food_animate_bee	0	T	14	0	95	0		0	0	81.4085986000136	81.5085814000049
10098.5	0.0999926000076812	131	hunger	stimuli/foods\wafer.jpg	1	1	1	wafer	1	R	12	0	277	0		0	0	81.5585890999937	81.6585817000014
10136	0.0999840000004042	132	hunger	stimuli/non_foods\non-food_animate_grasshopper.jpg	1	1	1	non-food_animate_grasshopper	0	K	7	0	117	0		0	0	81.7085937999946	81.808577799995
10173.5	0.10000270002638	133	hunger	stimuli/foods\fruit_pie.jpg	1	1	1	fruit_pie	1	H	5	0	54	0		0	0	81.8585906999942	81.9585934000206
10211	0.100008800014621	134	hunger	stimuli/foods\oregano.jpg	1	1	1	oregano	1	X	17	0	231	0		0	0	82.0085686999955	82.1085775000101
10248.5	0.0999960000044666	135	hunger	stimuli/foods\broccoli.jpg	1	1	1	broccoli	1	T	14	0	13	0		0	0	82.1585824000067	82.2585784000112
10286	0.0999852000095416	136	hunger	stimuli/foods\fruit_salad.jpg	1	1	1	fruit_salad	1	Z	18	0	55	0		0	0	82.3085908000066	82.4085760000162
10323.5	0.100017600023421	137	hunger	stimuli/foods\frankfurter_and_provolone_salad.jpg	1	1	1	frankfurter_and_provolone_salad	1	V	15	0	49	0		0	0	82.4585864999972	82.5586041000206
10361	0.100004500010982	138	hunger	stimuli/non_foods\non-food_inanimate_bush.jpg	1	1	1	non-food_inanimate_bush	0	M	9	0	167	0		0	0	82.6085793999955	82.7085839000065
10398.5	0.0999921000038739	139	hunger	stimuli/non_foods\non-food_animate_hummingbird.jpg	1	1	1	non-food_animate_hummingbird	0	J	6	0	120	0		0	0	82.7585776000051	82.858569700009
11561	0.0999647999997251	140	hunger	stimuli/foods\oyster.jpg	1	2	1	oyster	1	S	13	0	233	0		0	0	87.4085496000189	87.5085144000186
11598.5	0.099989700014703	141	hunger	stimuli/foods\tomato.jpg	1	2	1	tomato	1	V	15	0	276	0		0	0	87.5585353999923	87.658525100007
11636	0.0999818999844138	142	hunger	stimuli/foods\chocolate_pudding.jpg	1	2	1	chocolate_pudding	1	B	0	0	29	0		0	0	87.7085399000207	87.8085218000051
11673.5	0.0999852000095416	143	hunger	stimuli/non_foods\non-food_animate_lizard.jpg	1	2	1	non-food_animate_lizard	0	X	17	0	126	0		0	0	87.8585385000042	87.9585237000138
11711	0.0999835999973584	144	hunger	stimuli/foods\risotto_with_peas_and_asparagus_tips.jpg	1	2	1	risotto_with_peas_and_asparagus_tips	1	S	13	0	259	0		0	0	88.0085369000153	88.1085205000127
11748.5	0.09998440000345	145	hunger	stimuli/foods\red_beans.jpg	1	2	1	red_beans	1	K	7	0	255	0		0	0	88.1585335000127	88.2585179000162
11786	0.0999855000118259	146	hunger	stimuli/non_foods\non-food_inanimate_toy_airplane.jpg	1	2	1	non-food_inanimate_toy_airplane	0	N	10	0	222	0		0	0	88.3085328000016	88.4085183000134
11823.5	0.0999807999760378	147	hunger	stimuli/foods\brownie.jpg	1	2	1	brownie	1	H	5	0	14	0		0	0	88.4585359000193	88.5585166999954
11861	0.0999843000026885	148	hunger	stimuli/non_foods\non-food_animate_student_female.jpg	1	2	1	non-food_animate_student_female	0	K	7	0	151	0		0	0	88.6085389000073	88.7085232000099
11898.5	0.0999875999987125	149	hunger	stimuli/foods\almonds.jpg	1	2	1	almonds	1	B	0	0	0	0		0	0	88.7585269999981	88.8585145999969
11936	0.0999739000108093	150	hunger	stimuli/foods\grilled_chicken_breast.jpg	1	2	1	grilled_chicken_breast	1	S	13	0	63	0		0	0	88.9085320000013	89.0085059000121
11973.5	0.0999880000017583	151	hunger	stimuli/non_foods\non-food_inanimate_grass.jpg	1	2	1	non-food_inanimate_grass	0	X	17	0	184	0		0	0	89.0585259000072	89.158513900009
12011	0.100003499974264	152	hunger	stimuli/non_foods\non-food_animate_peacock.jpg	1	2	1	non-food_animate_peacock	0	M	9	0	134	0		0	0	89.2085285000212	89.3085319999955
12048.5	0.0999633999890648	153	hunger	stimuli/foods\potato_and_green_bean_salad.jpg	1	2	1	potato_and_green_bean_salad	1	T	14	0	246	0		0	0	89.3585400000156	89.4585034000047
12086	0.0999789999914356	154	hunger	stimuli/foods\red_cabbage.jpg	1	2	1	red_cabbage	1	V	15	0	256	0		0	0	89.5085245000082	89.6085034999996
12123.5	0.0999852999811992	155	hunger	stimuli/non_foods\non-food_animate_dachshund.jpg	1	2	1	non-food_animate_dachshund	0	Z	18	0	104	0		0	0	89.6585181000119	89.7585033999931
12161	0.0999849000072572	156	hunger	stimuli/foods\artichoke.jpg	1	2	1	artichoke	1	P	11	0	3	0		0	0	89.8085212000005	89.9085061000078
12198.5	0.0999861000163946	157	hunger	stimuli/non_foods\non-food_animate_clown.jpg	1	2	1	non-food_animate_clown	0	Z	18	0	102	0		0	0	89.9585170999926	90.058503200009
12236	0.0999726000009105	158	hunger	stimuli/foods\watermelon.jpg	1	2	1	watermelon	1	N	10	0	279	0		0	0	90.1085141999938	90.2084867999947
12273.5	0.100011900009122	159	hunger	stimuli/non_foods\non-food_animate_porcupine.jpg	1	2	1	non-food_animate_porcupine	0	D	2	0	138	0		0	0	90.258488499996	90.3585004000051
12311	0.0999847000057343	160	hunger	stimuli/foods\rice.jpg	1	2	1	rice	1	B	0	0	257	0		0	0	90.408510600013	90.5084953000187
12348.5	0.0999885000055656	161	hunger	stimuli/foods\asparagus.jpg	1	2	1	asparagus	1	M	9	0	4	0		0	0	90.5585099000018	90.6584984000074
12386	0.0999843000026885	162	hunger	stimuli/non_foods\non-food_inanimate_desk.jpg	1	2	1	non-food_inanimate_desk	0	W	16	0	178	0		0	0	90.7085114000074	90.8084957000101
12423.5	0.0999845999758691	163	hunger	stimuli/non_foods\non-food_inanimate_short_sleeved_shirt.jpg	1	2	1	non-food_inanimate_short_sleeved_shirt	0	C	1	0	207	0		0	0	90.858509600017	90.9584941999929
12461	0.0999693000048865	164	hunger	stimuli/non_foods\non-food_animate_lion.jpg	1	2	1	non-food_animate_lion	0	W	16	0	125	0		0	0	91.0085166000063	91.1084859000111
12498.5	0.0999812999798451	165	hunger	stimuli/foods\rice_cake.jpg	1	2	1	rice_cake	1	B	0	0	258	0		0	0	91.1585072000162	91.258488499996
12536	0.0999901000177488	166	hunger	stimuli/foods\avocado.jpg	1	2	1	avocado	1	P	11	0	5	0		0	0	91.3085016999976	91.4084918000153
12573.5	0.0999904999916907	167	hunger	stimuli/foods\spinach.jpg	1	2	1	spinach	1	J	6	0	268	0		0	0	91.4585042000108	91.5584947000025
12611	0.0999852000095416	168	hunger	stimuli/non_foods\non-food_animate_sea_lion.jpg	1	2	1	non-food_animate_sea_lion	0	T	14	0	143	0		0	0	91.6085000000021	91.7084852000116
12648.5	0.0999869000224862	169	hunger	stimuli/foods\potatoes.jpg	1	2	1	potatoes	1	B	0	0	248	0		0	0	91.7584997999948	91.8584867000172
12686	0.0999810000066645	170	hunger	stimuli/foods\mushroom.jpg	1	2	1	mushroom	1	C	1	0	85	0		0	0	91.9085003999935	92.0084814000002
12723.5	0.100030200002948	171	hunger	stimuli/foods\lemon.jpg	1	2	1	lemon	1	V	15	0	72	0		0	0	92.0584929000179	92.1585231000208
12761	0.0999832000234164	172	hunger	stimuli/non_foods\non-food_animate_german_shepherd.jpg	1	2	1	non-food_animate_german_shepherd	0	W	16	0	114	0		0	0	92.2084984999965	92.3084817000199
12798.5	0.099985300010303	173	hunger	stimuli/foods\coconut.jpg	1	2	1	coconut	1	N	10	0	33	0		0	0	92.3584917999979	92.4584771000082
12836	0.100002399994992	174	hunger	stimuli/non_foods\non-food_inanimate_table.jpg	1	2	1	non-food_inanimate_table	0	R	12	0	217	0		0	0	92.5084814000002	92.6084837999952
12873.5	0.0999908000230789	175	hunger	stimuli/foods\cucumber.jpg	1	2	1	cucumber	1	P	11	0	41	0		0	0	92.6584893999971	92.7584802000201
12911	0.0999534000002313	176	hunger	stimuli/non_foods\non-food_inanimate_protractor.jpg	1	2	1	non-food_inanimate_protractor	0	W	16	0	201	0		0	0	92.8084985000023	92.9084519000025
12948.5	0.099956399993971	177	hunger	stimuli/non_foods\non-food_inanimate_suitcase.jpg	1	2	1	non-food_inanimate_suitcase	0	M	9	0	215	0		0	0	92.9585085000144	93.0584649000084
12986	0.0999752999923658	178	hunger	stimuli/foods\fries.jpg	1	2	1	fries	1	G	4	0	52	0		0	0	93.1084866000165	93.2084619000088
13023.5	0.099983299995074	179	hunger	stimuli/foods\eggplant.jpg	1	2	1	eggplant	1	W	16	0	46	0		0	0	93.258487300016	93.3584706000111
13061	0.0999750999908429	180	hunger	stimuli/non_foods\non-food_animate_monkey.jpg	1	2	1	non-food_animate_monkey	0	S	13	0	130	0		0	0	93.4084841000149	93.5084592000057
13098.5	0.099988999980269	181	hunger	stimuli/non_foods\non-food_animate_duck.jpg	1	2	1	non-food_animate_duck	0	C	1	0	109	0		0	0	93.5584733000142	93.6584622999944
13136	0.100017299992032	182	hunger	stimuli/foods\radish.jpg	1	2	1	radish	1	H	5	0	251	0		0	0	93.7084746000182	93.8084919000103
13173.5	0.0999856000125874	183	hunger	stimuli/foods\chestnut.jpg	1	2	1	chestnut	1	D	2	0	24	0		0	0	93.8584725999972	93.9584582000098
13211	0.0999855999834836	184	hunger	stimuli/non_foods\non-food_animate_skunk.jpg	1	2	1	non-food_animate_skunk	0	F	3	0	147	0		0	0	94.0084800000186	94.1084656000021
13248.5	0.100008900015382	185	hunger	stimuli/foods\oven-roasted_tomatoes.jpg	1	2	1	oven-roasted_tomatoes	1	X	17	0	232	0		0	0	94.158454999997	94.2584639000124
13286	0.0999864999903366	186	hunger	stimuli/foods\cannoli.jpg	1	2	1	cannoli	1	G	4	0	17	0		0	0	94.3084728000103	94.4084593000007
13323.5	0.0999929000099655	187	hunger	stimuli/foods\lamb_chops.jpg	1	2	1	lamb_chops	1	P	11	0	70	0		0	0	94.4584713999939	94.5584643000038
13361	0.0999632999883033	188	hunger	stimuli/foods\mandarin.jpg	1	2	1	mandarin	1	N	10	0	79	0		0	0	94.608493000007	94.7084562999953
13398.5	0.0999829999927897	189	hunger	stimuli/non_foods\non-food_inanimate_rack.jpg	1	2	1	non-food_inanimate_rack	0	J	6	0	202	0		0	0	94.7584726000205	94.8584556000133
13436	0.0999879000009969	190	hunger	stimuli/foods\steak.jpg	1	2	1	steak	1	Z	18	0	270	0		0	0	94.9084696999926	95.0084575999936
13473.5	0.0999716000223998	191	hunger	stimuli/foods\savory_pie.jpg	1	2	1	savory_pie	1	H	5	0	265	0		0	0	95.0584818999923	95.1584535000147
13511	0.0999875999987125	192	hunger	stimuli/non_foods\non-food_animate_slug.jpg	1	2	1	non-food_animate_slug	0	W	16	0	148	0		0	0	95.2084670000186	95.3084546000173
13548.5	0.0999834999965969	193	hunger	stimuli/foods\chilli.jpg	1	2	1	chilli	1	L	8	0	25	0		0	0	95.3584659000044	95.458449400001
13586	0.0999858999857679	194	hunger	stimuli/non_foods\non-food_inanimate_tulip.jpg	1	2	1	non-food_inanimate_tulip	0	M	9	0	224	0		0	0	95.5084568000166	95.6084427000023
13623.5	0.0999965999799315	195	hunger	stimuli/non_foods\non-food_inanimate_briefcase.jpg	1	2	1	non-food_inanimate_briefcase	0	N	10	0	163	0		0	0	95.6584543000208	95.7584509000008
13661	0.0999970000120811	196	hunger	stimuli/non_foods\non-food_animate_parrot.jpg	1	2	1	non-food_animate_parrot	0	C	1	0	133	0		0	0	95.8084496000083	95.9084466000204
13698.5	0.0999693999765441	197	hunger	stimuli/non_foods\non-food_animate_millipede.jpg	1	2	1	non-food_animate_millipede	0	S	13	0	129	0		0	0	95.9584591000166	96.0584284999932
13736	0.0999838999996427	198	hunger	stimuli/non_foods\non-food_animate_caterpillar.jpg	1	2	1	non-food_animate_caterpillar	0	P	11	0	99	0		0	0	96.1084592000116	96.2084431000112
13773.5	0.100000699982047	199	hunger	stimuli/foods\honey.jpg	1	2	1	honey	1	G	4	0	66	0		0	0	96.2584536000213	96.3584543000034
13811	0.0999224999977741	200	hunger	stimuli/foods\pickles.jpg	1	2	1	pickles	1	P	11	0	242	0		0	0	96.4085187000164	96.5084412000142
13848.5	0.0999791999929585	201	hunger	stimuli/foods\onion.jpg	1	2	1	onion	1	N	10	0	229	0		0	0	96.5584573000087	96.6584365000017
13886	0.0999787999899127	202	hunger	stimuli/non_foods\non-food_inanimate_hay.jpg	1	2	1	non-food_inanimate_hay	0	X	17	0	187	0		0	0	96.7084587000136	96.8084375000035
13923.5	0.0999836999981198	203	hunger	stimuli/foods\donut.jpg	1	2	1	donut	1	D	2	0	44	0		0	0	96.8584539000003	96.9584375999984
13961	0.09998440000345	204	hunger	stimuli/non_foods\non-food_animate_elephant.jpg	1	2	1	non-food_animate_elephant	0	C	1	0	111	0		0	0	97.0084477000055	97.1084321000089
13998.5	0.0999827999912668	205	hunger	stimuli/foods\garlic.jpg	1	2	1	garlic	1	B	0	0	56	0		0	0	97.1584499000164	97.2584327000077
14036	0.0999852000095416	206	hunger	stimuli/foods\grapefruits.jpg	1	2	1	grapefruits	1	M	9	0	59	0		0	0	97.30844600001	97.4084312000195
14073.5	0.0999866999918595	207	hunger	stimuli/foods\cooked_ham.jpg	1	2	1	cooked_ham	1	J	6	0	35	0		0	0	97.4584440000181	97.5584307000099
14111	0.0999837999988813	208	hunger	stimuli/foods\spring_onions.jpg	1	2	1	spring_onions	1	V	15	0	269	0		0	0	97.6084450000199	97.7084288000187
14148.5	0.0999838999996427	209	hunger	stimuli/foods\peach.jpg	1	2	1	peach	1	X	17	0	238	0		0	0	97.7584423999942	97.8584262999939
14186	0.0999880000017583	210	hunger	stimuli/non_foods\non-food_animate_swan.jpg	1	2	1	non-food_animate_swan	0	B	0	0	152	0		0	0	97.9084415000107	98.0084295000124
14223.5	0.100015300005907	211	hunger	stimuli/foods\cherry.jpg	1	2	1	cherry	1	Z	18	0	23	0		0	0	98.058437300002	98.1584526000079
14261	0.0999387000047136	212	hunger	stimuli/non_foods\non-food_animate_bat.jpg	1	2	1	non-food_animate_bat	0	V	15	0	94	0		0	0	98.2084834999987	98.3084222000034
14298.5	0.0999861999880522	213	hunger	stimuli/foods\orange.jpg	1	2	1	orange	1	F	3	0	230	0		0	0	98.3584362000111	98.4584223999991
14336	0.0999749999900814	214	hunger	stimuli/foods\dates.jpg	1	2	1	dates	1	M	9	0	43	0		0	0	98.5084368000098	98.6084117999999
14373.5	0.0999854000110645	215	hunger	stimuli/non_foods\non-food_animate_pigeon.jpg	1	2	1	non-food_animate_pigeon	0	A	19	1	136	0		0	0	98.6584283999982	98.7584138000093
14411	0.0999824000173248	216	hunger	stimuli/non_foods\non-food_animate_fox.jpg	1	2	1	non-food_animate_fox	0	H	5	0	112	0		0	0	98.8084222000034	98.9084046000207
14448.5	0.100014299998293	217	hunger	stimuli/non_foods\non-food_inanimate_jeans.jpg	1	2	1	non-food_inanimate_jeans	0	F	3	0	191	1	a	0.391800600016722	1	98.9584020000184	99.0584163000167
14486	0.0999870999949053	218	hunger	stimuli/non_foods\non-food_animate_dragonfly.jpg	1	2	1	non-food_animate_dragonfly	0	T	14	0	108	0		0	0	99.1084294000175	99.2084165000124
14523.5	0.0999642999959178	219	hunger	stimuli/non_foods\non-food_inanimate_stapler.jpg	1	2	1	non-food_inanimate_stapler	0	N	10	0	213	0		0	0	99.2584484000108	99.3584127000067
14561	0.0999857000133488	220	hunger	stimuli/non_foods\non-food_inanimate_broom.jpg	1	2	1	non-food_inanimate_broom	0	J	6	0	164	0		0	0	99.4084255000053	99.5084112000186
14598.5	0.0999785000167321	221	hunger	stimuli/foods\gnocchi.jpg	1	2	1	gnocchi	1	N	10	0	58	0		0	0	99.5584251999971	99.6584037000139
14636	0.0999848999781534	222	hunger	stimuli/foods\fennel.jpg	1	2	1	fennel	1	L	8	0	47	0		0	0	99.7084244000143	99.8084092999925
14673.5	0.100009300018428	223	hunger	stimuli/non_foods\non-food_animate_seahorse.jpg	1	2	1	non-food_animate_seahorse	0	F	3	0	145	0		0	0	99.8584235000017	99.9584328000201
14711	0.0999641999951564	224	hunger	stimuli/foods\raw_ham.jpg	1	2	1	raw_ham	1	M	9	0	253	0		0	0	100.008435199998	100.108399399993
14748.5	0.0999851999804378	225	hunger	stimuli/non_foods\non-food_inanimate_scissors.jpg	1	2	1	non-food_inanimate_scissors	0	P	11	0	205	0		0	0	100.158411600016	100.258396799996
14786	0.0999959000037052	226	hunger	stimuli/foods\apple.jpg	1	2	1	apple	1	F	3	0	1	0		0	0	100.308409399993	100.408405299997
14823.5	0.0999847000057343	227	hunger	stimuli/non_foods\non-food_inanimate_couch.jpg	1	2	1	non-food_inanimate_couch	0	V	15	0	176	0		0	0	100.458421999996	100.558406700002
14861	0.0999880000017583	228	hunger	stimuli/non_foods\non-food_inanimate_ring.jpg	1	2	1	non-food_inanimate_ring	0	W	16	0	203	0		0	0	100.608404600003	100.708392600005
14898.5	0.0999825000180863	229	hunger	stimuli/non_foods\non-food_inanimate_fire_extinguisher.jpg	1	2	1	non-food_inanimate_fire_extinguisher	0	G	4	0	181	0		0	0	100.758407899993	100.858390400012
14936	0.0999837999988813	230	hunger	stimuli/foods\kiwi.jpg	1	2	1	kiwi	1	K	7	0	69	0		0	0	100.908404999995	101.008388799994
14973.5	0.100000100006582	231	hunger	stimuli/non_foods\non-food_inanimate_headphones.jpg	1	2	1	non-food_inanimate_headphones	0	D	2	0	188	0		0	0	101.05840400001	101.158404100017
15011	0.100001499988139	232	hunger	stimuli/non_foods\non-food_animate_Asian_man.jpg	1	2	1	non-food_animate_Asian_man	0	H	5	0	88	0		0	0	101.208389200008	101.308390699996
15048.5	0.0999860999872908	233	hunger	stimuli/foods\cabbage.jpg	1	2	1	cabbage	1	V	15	0	16	0		0	0	101.358410200017	101.458396300004
15086	0.0999851999804378	234	hunger	stimuli/foods\grapes.jpg	1	2	1	grapes	1	T	14	0	60	0		0	0	101.508410700015	101.608395899995
15123.5	0.0999555000162218	235	hunger	stimuli/non_foods\non-food_inanimate_stoplight.jpg	1	2	1	non-food_inanimate_stoplight	0	G	4	0	214	0		0	0	101.658413600002	101.758369100018
15161	0.0999743999855127	236	hunger	stimuli/non_foods\non-food_animate_raccoon.jpg	1	2	1	non-food_animate_raccoon	0	J	6	0	139	0		0	0	101.808416500018	101.908390900004
15198.5	0.099983299995074	237	hunger	stimuli/non_foods\non-food_inanimate_skateboard.jpg	1	2	1	non-food_inanimate_skateboard	0	B	0	0	208	0		0	0	101.958405800018	102.058389100013
15236	0.0999870999949053	238	hunger	stimuli/non_foods\non-food_animate_chicken.jpg	1	2	1	non-food_animate_chicken	0	H	5	0	101	0		0	0	102.108400199999	102.208387299994
15273.5	0.0999852000095416	239	hunger	stimuli/non_foods\non-food_inanimate_tree.jpg	1	2	1	non-food_inanimate_tree	0	X	17	0	223	0		0	0	102.258400299994	102.358385500003
15311	0.0999933999846689	240	hunger	stimuli/foods\banana.jpg	1	2	1	banana	1	W	16	0	9	0		0	0	102.408399700013	102.508393099997
15348.5	0.0999563000223134	241	hunger	stimuli/non_foods\non-food_inanimate_horn.jpg	1	2	1	non-food_inanimate_horn	0	N	10	0	190	0		0	0	102.558417099994	102.658373400016
15386	0.0999862000171561	242	hunger	stimuli/foods\carrot.jpg	1	2	1	carrot	1	W	16	0	19	0		0	0	102.708396300004	102.808382500021
15423.5	0.0999742000130937	243	hunger	stimuli/foods\ice_cream.jpg	1	2	1	ice_cream	1	J	6	0	68	0		0	0	102.858404400002	102.958378600015
15461	0.0999860000156332	244	hunger	stimuli/non_foods\non-food_inanimate_cap.jpg	1	2	1	non-food_inanimate_cap	0	M	9	0	171	0		0	0	103.008393800003	103.108379800018
15498.5	0.0999784000159707	245	hunger	stimuli/foods\stew_with_potatoes_and_carrots.jpg	1	2	1	stew_with_potatoes_and_carrots	1	U	23	1	271	0		0	0	103.158390199998	103.258368600014
15536	0.0999800999998115	246	hunger	stimuli/foods\lime.jpg	1	2	1	lime	1	B	0	0	76	0		0	0	103.308383600001	103.4083637
15573.5	0.0999721999978647	247	hunger	stimuli/non_foods\non-food_inanimate_cupboard.jpg	1	2	1	non-food_inanimate_cupboard	0	C	1	0	177	0		0	0	103.458395299996	103.558367499994
15611	0.099987300025532	248	hunger	stimuli/non_foods\non-food_inanimate_lighter.jpg	1	2	1	non-food_inanimate_lighter	0	S	13	0	193	0		0	0	103.608384399995	103.708371700021
15648.5	0.0999683999980334	249	hunger	stimuli/non_foods\non-food_animate_yellow_bug.jpg	1	2	1	non-food_animate_yellow_bug	0	Z	18	0	155	0		0	0	103.758389199997	103.858357599995
15686	0.0999869999941438	250	hunger	stimuli/foods\lasagna.jpg	1	2	1	lasagna	1	L	8	0	71	0		0	0	103.90838020001	104.008367200004
15723.5	0.0999897999863606	251	hunger	stimuli/non_foods\non-food_inanimate_leaf.jpg	1	2	1	non-food_inanimate_leaf	0	D	2	0	192	0		0	0	104.058381900017	104.158371700003
15761	0.0999841000011656	252	hunger	stimuli/non_foods\non-food_animate_woman.jpg	1	2	1	non-food_animate_woman	0	J	6	0	154	0		0	0	104.208382900018	104.30836700002
15798.5	0.0999837000272237	253	hunger	stimuli/non_foods\non-food_animate_baby_sitting.jpg	1	2	1	non-food_animate_baby_sitting	0	W	16	0	93	0		0	0	104.358380299993	104.45836400002
15836	0.0999956000014208	254	hunger	stimuli/non_foods\non-food_animate_iguana.jpg	1	2	1	non-food_animate_iguana	0	G	4	0	121	0		0	0	104.508377599996	104.608373199997
15873.5	0.0999955000006594	255	hunger	stimuli/non_foods\non-food_animate_mammoth.jpg	1	2	1	non-food_animate_mammoth	0	C	1	0	128	0		0	0	104.658361000009	104.75835650001
15911	0.099975799996173	256	hunger	stimuli/non_foods\non-food_inanimate_orchid.jpg	1	2	1	non-food_inanimate_orchid	0	Z	18	0	198	0		0	0	104.80837090002	104.908346700016
15948.5	0.100008000008529	257	hunger	stimuli/foods\hamburger.jpg	1	2	1	hamburger	1	D	2	0	64	0		0	0	104.958352899994	105.058360900002
15986	0.0999935000145342	258	hunger	stimuli/non_foods\non-food_inanimate_soccer_ball.jpg	1	2	1	non-food_inanimate_soccer_ball	0	H	5	0	210	0		0	0	105.1083659	105.208359400014
16023.5	0.0999902000185102	259	hunger	stimuli/non_foods\non-food_inanimate_cactus_pot_plant.jpg	1	2	1	non-food_inanimate_cactus_pot_plant	0	T	14	0	169	0		0	0	105.258369599993	105.358359800011
16061	0.0999634999898262	260	hunger	stimuli/foods\cauliflower.jpg	1	2	1	cauliflower	1	R	12	0	20	0		0	0	105.408388900018	105.508352400007
16098.5	0.099989700014703	261	hunger	stimuli/foods\chocolate_chip_cookies.jpg	1	2	1	chocolate_chip_cookies	1	F	3	0	27	0		0	0	105.558368700003	105.658358400018
16136	0.0999804999737535	262	hunger	stimuli/non_foods\non-food_inanimate_gloves.jpg	1	2	1	non-food_inanimate_gloves	0	X	17	0	183	0		0	0	105.70837160002	105.808352099993
16173.5	0.0999864999903366	263	hunger	stimuli/foods\bagel.jpg	1	2	1	bagel	1	Z	18	0	6	0		0	0	105.858363700012	105.958350200002
16211	0.09999390001758	264	hunger	stimuli/foods\beetroots.jpg	1	2	1	beetroots	1	X	17	0	10	0		0	0	106.008355400001	106.108349300019
16248.5	0.0999817999836523	265	hunger	stimuli/foods\rockmelon.jpg	1	2	1	rockmelon	1	V	15	0	262	0		0	0	106.158365100011	106.258346899995
16286	0.100014600000577	266	hunger	stimuli/non_foods\non-food_animate_eagle.jpg	1	2	1	non-food_animate_eagle	0	W	16	0	110	0		0	0	106.308359699993	106.408374299994
16323.5	0.0999779000121634	267	hunger	stimuli/non_foods\non-food_animate_ram.jpg	1	2	1	non-food_animate_ram	0	L	8	0	140	0		0	0	106.458360399993	106.558338300005
16361	0.0999830000218935	268	hunger	stimuli/foods\brussel_sprouts.jpg	1	2	1	brussel_sprouts	1	K	7	0	15	0		0	0	106.608361299994	106.708344300016
16398.5	0.0999890000093728	269	hunger	stimuli/foods\fruit_flan.jpg	1	2	1	fruit_flan	1	H	5	0	53	0		0	0	106.758355600003	106.858344600012
16436	0.0999897999863606	270	hunger	stimuli/foods\lemon_meringue_pie.jpg	1	2	1	lemon_meringue_pie	1	J	6	0	73	0		0	0	106.908357400011	107.008347199997
16473.5	0.0999328000179958	271	hunger	stimuli/non_foods\non-food_inanimate_bed.jpg	1	2	1	non-food_inanimate_bed	0	Z	18	0	160	0		0	0	107.0584065	107.158339300018
16511	0.0999793999944814	272	hunger	stimuli/foods\hazelnuts.jpg	1	2	1	hazelnuts	1	N	10	0	65	0		0	0	107.208362900012	107.308342300006
16548.5	0.0999797999975272	273	hunger	stimuli/foods\pancakes.jpg	1	2	1	pancakes	1	G	4	0	234	0		0	0	107.358351200004	107.458331000002
16586	0.0999970999837387	274	hunger	stimuli/foods\cooked_prawn.jpg	1	2	1	cooked_prawn	1	X	17	0	36	0		0	0	107.508342300018	107.608339400002
16623.5	0.100004600011744	275	hunger	stimuli/non_foods\non-food_inanimate_toilet.jpg	1	2	1	non-food_inanimate_toilet	0	P	11	0	220	0		0	0	107.658332199993	107.758336800005
16661	0.0999829999927897	276	hunger	stimuli/foods\strawberry.jpg	1	2	1	strawberry	1	K	7	0	272	0		0	0	107.808347300015	107.908330300008
16698.5	0.0999878000002354	277	hunger	stimuli/foods\meatballs.jpg	1	2	1	meatballs	1	H	5	0	81	0		0	0	107.958344100014	108.058331900014
16736	0.099981499981368	278	hunger	stimuli/foods\salami.jpg	1	2	1	salami	1	L	8	0	263	0		0	0	108.108348900016	108.208330399997
16773.5	0.0999852999811992	279	hunger	stimuli/non_foods\non-food_inanimate_bamboo.jpg	1	2	1	non-food_inanimate_bamboo	0	J	6	0	159	0		0	0	108.258342100016	108.358327399998
22681.75	0.0999774000083562	280	hunger	stimuli/non_foods\non-food_animate_runner.jpg	1	3	1	non-food_animate_runner	0	W	16	0	142	0		0	0	131.891465499997	131.991442900005
22719.25	0.099987300025532	281	hunger	stimuli/non_foods\non-food_animate_millipede.jpg	1	3	1	non-food_animate_millipede	0	X	17	0	129	0		0	0	132.041473299993	132.141460600018
22756.75	0.0999541000055615	282	hunger	stimuli/non_foods\non-food_animate_hummingbird.jpg	1	3	1	non-food_animate_hummingbird	0	N	10	0	120	0		0	0	132.191485499992	132.291439599998
22794.25	0.0999847000057343	283	hunger	stimuli/non_foods\non-food_inanimate_headphones.jpg	1	3	1	non-food_inanimate_headphones	0	Z	18	0	188	0		0	0	132.341450600012	132.441435300017
22831.75	0.0999864999903366	284	hunger	stimuli/non_foods\non-food_animate_fox.jpg	1	3	1	non-food_animate_fox	0	R	12	0	112	0		0	0	132.49145110001	132.5914376
22869.25	0.100013499992201	285	hunger	stimuli/foods\baked_cod_with_carrots_and_green_beans.jpg	1	3	1	baked_cod_with_carrots_and_green_beans	1	P	11	0	7	0		0	0	132.641452100012	132.741465600004
22906.75	0.0999835999973584	286	hunger	stimuli/non_foods\non-food_inanimate_hay.jpg	1	3	1	non-food_inanimate_hay	0	F	3	0	187	0		0	0	132.79144880001	132.891432400007
22944.25	0.099989899987122	287	hunger	stimuli/foods\pasta_carbonara.jpg	1	3	1	pasta_carbonara	1	B	0	0	236	0		0	0	132.941449400008	133.041439299996
22981.75	0.0999582999793347	288	hunger	stimuli/non_foods\non-food_animate_sea_turtle.jpg	1	3	1	non-food_animate_sea_turtle	0	J	6	0	144	0		0	0	133.091447200015	133.191405499994
23019.25	0.0999874999979511	289	hunger	stimuli/foods\chocolate_chip_cookies.jpg	1	3	1	chocolate_chip_cookies	1	F	3	0	27	0		0	0	133.241440000013	133.34142750001
23056.75	0.0999874999979511	290	hunger	stimuli/foods\pea_pod.jpg	1	3	1	pea_pod	1	K	7	0	237	0		0	0	133.391439700004	133.491427200002
23094.25	0.0999898000154644	291	hunger	stimuli/non_foods\non-food_animate_ant.jpg	1	3	1	non-food_animate_ant	0	V	15	0	91	0		0	0	133.541439599998	133.641429400013
23131.75	0.0999980999913532	292	hunger	stimuli/foods\ice_cream.jpg	1	3	1	ice_cream	1	H	5	0	68	0		0	0	133.691431700019	133.791429800011
23169.25	0.0999923000053968	293	hunger	stimuli/foods\pear.jpg	1	3	1	pear	1	T	14	0	239	0		0	0	133.841424000013	133.941416300018
23206.75	0.0999418999999762	294	hunger	stimuli/non_foods\non-food_inanimate_short_sleeved_shirt.jpg	1	3	1	non-food_inanimate_short_sleeved_shirt	0	Z	18	0	207	0		0	0	133.991456599993	134.091398499993
23244.25	0.0999860000156332	295	hunger	stimuli/non_foods\non-food_inanimate_alarm_clock.jpg	1	3	1	non-food_inanimate_alarm_clock	0	J	6	0	158	0		0	0	134.141434499994	134.24142050001
23281.75	0.0999889000086114	296	hunger	stimuli/foods\savory_pie.jpg	1	3	1	savory_pie	1	P	11	0	265	0		0	0	134.291431399994	134.391420300002
23319.25	0.0999872000247706	297	hunger	stimuli/non_foods\non-food_inanimate_tent.jpg	1	3	1	non-food_inanimate_tent	0	N	10	0	219	0		0	0	134.441432499996	134.541419700021
23356.75	0.0999821999866981	298	hunger	stimuli/foods\croissant.jpg	1	3	1	croissant	1	V	15	0	40	0		0	0	134.591424700018	134.691406900005
23394.25	0.0999841000011656	299	hunger	stimuli/foods\oven-roasted_tomatoes.jpg	1	3	1	oven-roasted_tomatoes	1	T	14	0	232	0		0	0	134.741430900001	134.841415000003
23431.75	0.0999997000035364	300	hunger	stimuli/foods\artichoke.jpg	1	3	1	artichoke	1	F	3	0	3	0		0	0	134.8914277	134.991427400004
23469.25	0.0999858999857679	301	hunger	stimuli/foods\salami.jpg	1	3	1	salami	1	N	10	0	263	0		0	0	135.041426500014	135.1414124
23506.75	0.0999846000049729	302	hunger	stimuli/foods\asparagus.jpg	1	3	1	asparagus	1	T	14	0	4	0		0	0	135.19142670001	135.291411300015
23544.25	0.0999864999903366	303	hunger	stimuli/non_foods\non-food_inanimate_gloves.jpg	1	3	1	non-food_inanimate_gloves	0	P	11	0	183	0		0	0	135.34142360001	135.4414101
23581.75	0.0999920000031125	304	hunger	stimuli/non_foods\non-food_inanimate_clover.jpg	1	3	1	non-food_inanimate_clover	0	C	1	0	174	0		0	0	135.491422699997	135.5914147
23619.25	0.0999561000207905	305	hunger	stimuli/foods\grapefruits.jpg	1	3	1	grapefruits	1	U	23	1	59	0		0	0	135.6414468	135.741402900021
23656.75	0.0999866999918595	306	hunger	stimuli/foods\minestrone_soup.jpg	1	3	1	minestrone_soup	1	C	1	0	82	0		0	0	135.791417600005	135.891404299997
23694.25	0.0999978999898303	307	hunger	stimuli/foods\chocolate_pralines.jpg	1	3	1	chocolate_pralines	1	W	16	0	28	0		0	0	135.941409000021	136.041406900011
23731.75	0.0999862999888137	308	hunger	stimuli/non_foods\non-food_inanimate_highlighter.jpg	1	3	1	non-food_inanimate_highlighter	0	K	7	0	189	1	a	0.541794999997364	1	136.091416200012	136.191402500001
23769.25	0.099984799977392	309	hunger	stimuli/non_foods\non-food_inanimate_toy_airplane.jpg	1	3	1	non-food_inanimate_toy_airplane	0	J	6	0	222	0		0	0	136.241414400021	136.341399199999
23806.75	0.0999869999941438	310	hunger	stimuli/foods\baked_lamb_with_potatoes.jpg	1	3	1	baked_lamb_with_potatoes	1	K	7	0	8	0		0	0	136.391412800003	136.491399799997
23844.25	0.0999917000008281	311	hunger	stimuli/non_foods\non-food_animate_donkey.jpg	1	3	1	non-food_animate_donkey	0	G	4	0	107	0		0	0	136.541408499994	136.641400199995
23881.75	0.0999970999837387	312	hunger	stimuli/foods\papaya.jpg	1	3	1	papaya	1	S	13	0	235	0		0	0	136.691400000011	136.791397099994
23919.25	0.0999849999789149	313	hunger	stimuli/foods\pumpkin.jpg	1	3	1	pumpkin	1	R	12	0	250	0		0	0	136.841409300017	136.941394299996
23956.75	0.0999883000040427	314	hunger	stimuli/non_foods\non-food_inanimate_bush.jpg	1	3	1	non-food_inanimate_bush	0	F	3	0	167	0		0	0	136.991408200003	137.091396500007
23994.25	0.0999848000064958	315	hunger	stimuli/non_foods\non-food_inanimate_waterlily.jpg	1	3	1	non-food_inanimate_waterlily	0	S	13	0	226	0		0	0	137.141406600014	137.241391400021
24031.75	0.0999789999914356	316	hunger	stimuli/non_foods\non-food_animate_Asian_man.jpg	1	3	1	non-food_animate_Asian_man	0	H	5	0	88	0		0	0	137.29140430002	137.391383300012
24069.25	0.0999656000058167	317	hunger	stimuli/non_foods\non-food_inanimate_rope.jpg	1	3	1	non-food_inanimate_rope	0	X	17	0	204	0		0	0	137.441426000005	137.541391600011
24106.75	0.0999644999974407	318	hunger	stimuli/foods\fries.jpg	1	3	1	fries	1	L	8	0	52	0		0	0	137.591407500004	137.691372000001
24144.25	0.099987699999474	319	hunger	stimuli/foods\cream_donuts.jpg	1	3	1	cream_donuts	1	J	6	0	39	0		0	0	137.741401600011	137.841389300011
24181.75	0.0999887000070885	320	hunger	stimuli/foods\lamb_chops.jpg	1	3	1	lamb_chops	1	K	7	0	70	0		0	0	137.891398900014	137.991387600021
24219.25	0.0999871999956667	321	hunger	stimuli/non_foods\non-food_animate_mammoth.jpg	1	3	1	non-food_animate_mammoth	0	M	9	0	128	0		0	0	138.041393799998	138.141380999994
24256.75	0.0999875999987125	322	hunger	stimuli/foods\chilli.jpg	1	3	1	chilli	1	T	14	0	25	0		0	0	138.191396700015	138.291384300013
24294.25	0.0999871999956667	323	hunger	stimuli/non_foods\non-food_animate_young_boy.jpg	1	3	1	non-food_animate_young_boy	0	F	3	0	156	0		0	0	138.341395900003	138.441383099998
24331.75	0.0999783000152092	324	hunger	stimuli/foods\orange.jpg	1	3	1	orange	1	J	6	0	230	0		0	0	138.491392399999	138.591370700015
24369.25	0.0999845000042114	325	hunger	stimuli/foods\cabbage.jpg	1	3	1	cabbage	1	K	7	0	16	0		0	0	138.641395100014	138.741379600018
24406.75	0.0999859000148717	326	hunger	stimuli/non_foods\non-food_inanimate_skateboard.jpg	1	3	1	non-food_inanimate_skateboard	0	B	0	0	208	0		0	0	138.791390600003	138.891376500018
24444.25	0.0999842000019271	327	hunger	stimuli/non_foods\non-food_inanimate_rack.jpg	1	3	1	non-food_inanimate_rack	0	L	8	0	202	0		0	0	138.941391100001	139.041375300003
24481.75	0.100009599991608	328	hunger	stimuli/non_foods\non-food_animate_ladybug.jpg	1	3	1	non-food_animate_ladybug	0	J	6	0	124	0		0	0	139.09138670002	139.191396300012
24519.25	0.099962600012077	329	hunger	stimuli/foods\lettuce.jpg	1	3	1	lettuce	1	T	14	0	75	0		0	0	139.241429699992	139.341392300004
24556.75	0.099988999980269	330	hunger	stimuli/foods\fennel.jpg	1	3	1	fennel	1	K	7	0	47	0		0	0	139.39138440002	139.4913734
24594.25	0.099987300025532	331	hunger	stimuli/foods\eggplant.jpg	1	3	1	eggplant	1	C	1	0	46	0		0	0	139.541385799996	139.641373100021
24631.75	0.0999862999888137	332	hunger	stimuli/non_foods\non-food_inanimate_tree.jpg	1	3	1	non-food_inanimate_tree	0	R	12	0	223	0		0	0	139.691381200013	139.791367500002
24669.25	0.0999729999748524	333	hunger	stimuli/non_foods\non-food_animate_killer_whale.jpg	1	3	1	non-food_animate_killer_whale	0	H	5	0	123	0		0	0	139.84137910002	139.941352099995
24706.75	0.100005400017835	334	hunger	stimuli/non_foods\non-food_animate_bee.jpg	1	3	1	non-food_animate_bee	0	J	6	0	95	0		0	0	139.991358300002	140.091363700019
24744.25	0.099985699984245	335	hunger	stimuli/non_foods\non-food_inanimate_briefcase.jpg	1	3	1	non-food_inanimate_briefcase	0	M	9	0	163	0		0	0	140.14137300002	140.241358700005
24781.75	0.099986400018679	336	hunger	stimuli/non_foods\non-food_animate_cat.jpg	1	3	1	non-food_animate_cat	0	S	13	0	98	0		0	0	140.291370999999	140.391357400018
24819.25	0.099985699984245	337	hunger	stimuli/non_foods\non-food_inanimate_cap.jpg	1	3	1	non-food_inanimate_cap	0	H	5	0	171	0		0	0	140.441369700013	140.541355399997
24856.75	0.0999997000035364	338	hunger	stimuli/foods\dates.jpg	1	3	1	dates	1	B	0	0	43	0		0	0	140.591367200017	140.691366900021
24894.25	0.099987699999474	339	hunger	stimuli/non_foods\non-food_inanimate_soccer_ball.jpg	1	3	1	non-food_inanimate_soccer_ball	0	P	11	0	210	0		0	0	140.74136700001	140.841354700009
24931.75	0.100006599997869	340	hunger	stimuli/non_foods\non-food_animate_seahorse.jpg	1	3	1	non-food_animate_seahorse	0	M	9	0	145	0		0	0	140.891369999998	140.991376599995
24969.25	0.0999651000020094	341	hunger	stimuli/non_foods\non-food_inanimate_watering_can.jpg	1	3	1	non-food_inanimate_watering_can	0	G	4	0	225	0		0	0	141.041393799998	141.1413589
25006.75	0.0999958000029437	342	hunger	stimuli/non_foods\non-food_animate_raccoon.jpg	1	3	1	non-food_animate_raccoon	0	K	7	0	139	0		0	0	141.191358000011	141.291353800014
25044.25	0.0999864999903366	343	hunger	stimuli/foods\red_cabbage.jpg	1	3	1	red_cabbage	1	I	21	1	256	0		0	0	141.34136630001	141.4413528
25081.75	0.0999856000125874	344	hunger	stimuli/foods\onion.jpg	1	3	1	onion	1	C	1	0	229	0		0	0	141.491365599999	141.591351200012
25119.25	0.0999822000158019	345	hunger	stimuli/non_foods\non-food_animate_peacock.jpg	1	3	1	non-food_animate_peacock	0	M	9	0	134	1	a	0.391850299987709	1	141.641366199998	141.741348400014
25156.75	0.0999888000078499	346	hunger	stimuli/foods\chocolate_bar.jpg	1	3	1	chocolate_bar	1	Z	18	0	26	0		0	0	141.791360800009	141.891349600017
25194.25	0.0999823000165634	347	hunger	stimuli/foods\hamburger.jpg	1	3	1	hamburger	1	T	14	0	64	0		0	0	141.941363699996	142.041346000013
25231.75	0.0999583000084385	348	hunger	stimuli/foods\lollies.jpg	1	3	1	lollies	1	X	17	0	78	0		0	0	142.0913803	142.191338600009
25269.25	0.0999849000072572	349	hunger	stimuli/non_foods\non-food_animate_dragonfly.jpg	1	3	1	non-food_animate_dragonfly	0	Z	18	0	108	0		0	0	142.241354199999	142.341339100007
25306.75	0.100008199980948	350	hunger	stimuli/non_foods\non-food_inanimate_nest.jpg	1	3	1	non-food_inanimate_nest	0	M	9	0	196	0		0	0	142.391334300017	142.491342499998
25344.25	0.0999642000242602	351	hunger	stimuli/foods\green_beans.jpg	1	3	1	green_beans	1	Z	18	0	61	0		0	0	142.541374199995	142.641338400019
25381.75	0.0999965000082739	352	hunger	stimuli/foods\green_olives.jpg	1	3	1	green_olives	1	R	12	0	62	0		0	0	142.691345700005	142.791342200013
25419.25	0.0999517999880482	353	hunger	stimuli/foods\pancakes.jpg	1	3	1	pancakes	1	N	10	0	234	0		0	0	142.841388700006	142.941340499994
25456.75	0.0999842000019271	354	hunger	stimuli/foods\rockmelon.jpg	1	3	1	rockmelon	1	J	6	0	262	0		0	0	142.991355800012	143.091340000014
25494.25	0.0999930999823846	355	hunger	stimuli/non_foods\non-food_inanimate_folding_chair.jpg	1	3	1	non-food_inanimate_folding_chair	0	K	7	0	182	0		0	0	143.141342100018	143.2413352
25531.75	0.0999833000241779	356	hunger	stimuli/non_foods\non-food_inanimate_wrench.jpg	1	3	1	non-food_inanimate_wrench	0	P	11	0	227	0		0	0	143.291351299995	143.391334600019
25569.25	0.0999848000064958	357	hunger	stimuli/non_foods\non-food_animate_seal.jpg	1	3	1	non-food_animate_seal	0	X	17	0	146	0		0	0	143.441349500004	143.541334300011
25606.75	0.0999894999840762	358	hunger	stimuli/non_foods\non-food_animate_baby_crawling.jpg	1	3	1	non-food_animate_baby_crawling	0	W	16	0	92	0		0	0	143.591344500019	143.691334000003
25644.25	0.099985699984245	359	hunger	stimuli/foods\tomato.jpg	1	3	1	tomato	1	C	1	0	276	0		0	0	143.741345300019	143.841331000003
25681.75	0.0999838999996427	360	hunger	stimuli/non_foods\non-food_inanimate_protractor.jpg	1	3	1	non-food_inanimate_protractor	0	J	6	0	201	0		0	0	143.891344100004	143.991328000004
25719.25	0.0999891000101343	361	hunger	stimuli/non_foods\non-food_inanimate_jeans.jpg	1	3	1	non-food_inanimate_jeans	0	M	9	0	191	0		0	0	144.041341400007	144.141330500017
25756.75	0.0999828999920283	362	hunger	stimuli/non_foods\non-food_animate_caterpillar.jpg	1	3	1	non-food_animate_caterpillar	0	R	12	0	99	0		0	0	144.191342400009	144.291325300001
25794.25	0.0999878000002354	363	hunger	stimuli/non_foods\non-food_inanimate_bicycle.jpg	1	3	1	non-food_inanimate_bicycle	0	J	6	0	161	0		0	0	144.341340500017	144.441328300018
25831.75	0.0999867000209633	364	hunger	stimuli/non_foods\non-food_animate_sea_lion.jpg	1	3	1	non-food_animate_sea_lion	0	K	7	0	143	0		0	0	144.491353899997	144.591340600018
25869.25	0.0999633000174072	365	hunger	stimuli/foods\hotdog.jpg	1	3	1	hotdog	1	N	10	0	67	0		0	0	144.641359300003	144.741322600021
25906.75	0.099978700018255	366	hunger	stimuli/non_foods\non-food_inanimate_grass.jpg	1	3	1	non-food_inanimate_grass	0	V	15	0	184	0		0	0	144.791335899994	144.891314600012
25944.25	0.0999945999938063	367	hunger	stimuli/foods\fruit_salad.jpg	1	3	1	fruit_salad	1	R	12	0	55	0		0	0	144.941334700008	145.041329300002
25981.75	0.0999862000171561	368	hunger	stimuli/foods\taco.jpg	1	3	1	taco	1	P	11	0	274	0		0	0	145.091330800002	145.191317000019
26019.25	0.0999859000148717	369	hunger	stimuli/foods\brussel_sprouts.jpg	1	3	1	brussel_sprouts	1	W	16	0	15	0		0	0	145.241331099998	145.341317000013
26056.75	0.09998440000345	370	hunger	stimuli/non_foods\non-food_animate_horse.jpg	1	3	1	non-food_animate_horse	0	G	4	0	119	0		0	0	145.391332900006	145.49131730001
26094.25	0.0999871999956667	371	hunger	stimuli/non_foods\non-food_animate_german_shepherd.jpg	1	3	1	non-food_animate_german_shepherd	0	M	9	0	114	0		0	0	145.541327400017	145.641314600012
26131.75	0.0999843000026885	372	hunger	stimuli/non_foods\non-food_inanimate_tulip.jpg	1	3	1	non-food_inanimate_tulip	0	W	16	0	224	0		0	0	145.69132730001	145.791311600013
26169.25	0.0999855999834836	373	hunger	stimuli/foods\brownie.jpg	1	3	1	brownie	1	M	9	0	14	0		0	0	145.841324800014	145.941310399998
26206.75	0.0999900999886449	374	hunger	stimuli/non_foods\non-food_animate_dolphin.jpg	1	3	1	non-food_animate_dolphin	0	C	1	0	106	0		0	0	145.991324500006	146.091314599995
26244.25	0.0999923999770544	375	hunger	stimuli/foods\pickles.jpg	1	3	1	pickles	1	D	2	0	242	0		0	0	146.141323000018	146.241315399995
26281.75	0.0999615999753587	376	hunger	stimuli/foods\cinnamon_sroll.jpg	1	3	1	cinnamon_sroll	1	T	14	0	31	0		0	0	146.291346600017	146.391308199993
26319.25	0.0999849000072572	377	hunger	stimuli/non_foods\non-food_animate_butterfly.jpg	1	3	1	non-food_animate_butterfly	0	M	9	0	96	0		0	0	146.441322700004	146.541307600011
26356.75	0.09997489998932	378	hunger	stimuli/non_foods\non-food_inanimate_chair.jpg	1	3	1	non-food_inanimate_chair	0	V	15	0	172	0		0	0	146.591316100006	146.691290999996
26394.25	0.0999879000009969	379	hunger	stimuli/foods\peas.jpg	1	3	1	peas	1	L	8	0	240	0		0	0	146.741317600012	146.841305500013
26431.75	0.099983100022655	380	hunger	stimuli/non_foods\non-food_inanimate_speakers.jpg	1	3	1	non-food_inanimate_speakers	0	S	13	0	212	0		0	0	146.891315999994	146.991299100016
26469.25	0.0999881999741774	381	hunger	stimuli/foods\grilled_chicken_breast.jpg	1	3	1	grilled_chicken_breast	1	C	1	0	63	0		0	0	147.04131260002	147.141300799994
26506.75	0.0999851000087801	382	hunger	stimuli/non_foods\non-food_inanimate_table.jpg	1	3	1	non-food_inanimate_table	0	V	15	0	217	0		0	0	147.191318700003	147.291303800012
26544.25	0.0999693000048865	383	hunger	stimuli/non_foods\non-food_inanimate_suitcase.jpg	1	3	1	non-food_inanimate_suitcase	0	L	8	0	215	0		0	0	147.341313200013	147.441282500018
26581.75	0.0999796000251081	384	hunger	stimuli/foods\pomegranate.jpg	1	3	1	pomegranate	1	H	5	0	244	0		0	0	147.491318899993	147.591298500018
26619.25	0.0999836999981198	385	hunger	stimuli/non_foods\non-food_inanimate_fire_extinguisher.jpg	1	3	1	non-food_inanimate_fire_extinguisher	0	B	0	0	181	0		0	0	147.641309700004	147.741293400002
26656.75	0.0999893999833148	386	hunger	stimuli/non_foods\non-food_animate_baby_sitting.jpg	1	3	1	non-food_animate_baby_sitting	0	G	4	0	93	0		0	0	147.791304400016	147.891293799999
26694.25	0.10000299999956	387	hunger	stimuli/non_foods\non-food_inanimate_orchid.jpg	1	3	1	non-food_inanimate_orchid	0	B	0	0	198	0		0	0	147.941306699999	148.041309699998
26731.75	0.0999730000039563	388	hunger	stimuli/non_foods\non-food_animate_student_female.jpg	1	3	1	non-food_animate_student_female	0	H	5	0	151	0		0	0	148.091317300015	148.191290300019
26769.25	0.0999905999924522	389	hunger	stimuli/foods\honey.jpg	1	3	1	honey	1	B	0	0	66	0		0	0	148.241301200003	148.341291799996
26806.75	0.0999834999965969	390	hunger	stimuli/foods\lemon_meringue_pie.jpg	1	3	1	lemon_meringue_pie	1	P	11	0	73	0		0	0	148.391303000011	148.491286500008
26844.25	0.099983299995074	391	hunger	stimuli/foods\cauliflower.jpg	1	3	1	cauliflower	1	K	7	0	20	0		0	0	148.541299700009	148.641283000004
26881.75	0.0999896999855991	392	hunger	stimuli/foods\capsicum.jpg	1	3	1	capsicum	1	R	12	0	18	0		0	0	148.691297900019	148.791287600005
26919.25	0.0999842999735847	393	hunger	stimuli/foods\stew_with_potatoes_and_carrots.jpg	1	3	1	stew_with_potatoes_and_carrots	1	D	2	0	271	0		0	0	148.84129120002	148.941275499994
26956.75	0.099985300010303	394	hunger	stimuli/non_foods\non-food_animate_mouse.jpg	1	3	1	non-food_animate_mouse	0	P	11	0	131	0		0	0	148.991286900011	149.091272200021
26994.25	0.0999873999971896	395	hunger	stimuli/foods\apricot.jpg	1	3	1	apricot	1	G	4	0	2	0		0	0	149.14128760001	149.241275000008
27031.75	0.0999900000169873	396	hunger	stimuli/non_foods\non-food_inanimate_hammer.jpg	1	3	1	non-food_inanimate_hammer	0	W	16	0	186	0		0	0	149.291282799997	149.391272800014
27069.25	0.0999888000078499	397	hunger	stimuli/non_foods\non-food_animate_snail.jpg	1	3	1	non-food_animate_snail	0	T	14	0	149	0		0	0	149.441283599997	149.541272400005
27106.75	0.0999913000268862	398	hunger	stimuli/foods\pineapple.jpg	1	3	1	pineapple	1	C	1	0	243	0		0	0	149.591283899994	149.691275200021
27144.25	0.0999995999736711	399	hunger	stimuli/foods\raw_ham.jpg	1	3	1	raw_ham	1	V	15	0	253	0		0	0	149.741284100019	149.841283699992
27181.75	0.0999554000154603	400	hunger	stimuli/non_foods\non-food_inanimate_towel.jpg	1	3	1	non-food_inanimate_towel	0	Z	18	0	221	0		0	0	149.8913168	149.991272200015
27219.25	0.0999866000202019	401	hunger	stimuli/non_foods\non-food_animate_young_girl.jpg	1	3	1	non-food_animate_young_girl	0	M	9	0	157	0		0	0	150.041279099998	150.141265700018
27256.75	0.0999800999998115	402	hunger	stimuli/foods\steak.jpg	1	3	1	steak	1	S	13	0	270	0		0	0	150.191278500017	150.291258600017
27294.25	0.100008100009291	403	hunger	stimuli/foods\spinach.jpg	1	3	1	spinach	1	E	20	1	268	0		0	0	150.341261699999	150.441269800009
27331.75	0.09999390001758	404	hunger	stimuli/foods\pork_and_rice.jpg	1	3	1	pork_and_rice	1	V	15	0	245	0		0	0	150.491273499996	150.591267400014
27369.25	0.0999890000093728	405	hunger	stimuli/non_foods\non-food_inanimate_ring.jpg	1	3	1	non-food_inanimate_ring	0	R	12	0	203	0		0	0	150.641281699995	150.741270700004
27406.75	0.0999830999935511	406	hunger	stimuli/non_foods\non-food_inanimate_sun_flower.jpg	1	3	1	non-food_inanimate_sun_flower	0	D	2	0	216	1	a	0.541841600002954	1	150.791279600002	150.891262699995
27444.25	0.0999698999803513	407	hunger	stimuli/foods\rice.jpg	1	3	1	rice	1	P	11	0	257	0		0	0	150.941297800018	151.041267699999
27481.75	0.0999859999865294	408	hunger	stimuli/foods\rice_cake.jpg	1	3	1	rice_cake	1	D	2	0	258	0		0	0	151.091278300009	151.191264299996
27519.25	0.0999858999857679	409	hunger	stimuli/foods\mussels.jpg	1	3	1	mussels	1	K	7	0	86	0		0	0	151.241275500011	151.341261399997
27556.75	0.0999859000148717	410	hunger	stimuli/foods\figs.jpg	1	3	1	figs	1	H	5	0	48	0		0	0	151.391277599992	151.491263500007
27594.25	0.100003300001845	411	hunger	stimuli/non_foods\non-food_inanimate_drum_set.jpg	1	3	1	non-food_inanimate_drum_set	0	W	16	0	179	0		0	0	151.541275800002	151.641279100004
27631.75	0.0999892999825533	412	hunger	stimuli/non_foods\non-food_inanimate_toilet.jpg	1	3	1	non-food_inanimate_toilet	0	J	6	0	220	0		0	0	151.691270400013	151.791259699996
27669.25	0.099982399988221	413	hunger	stimuli/non_foods\non-food_animate_tortoise.jpg	1	3	1	non-food_animate_tortoise	0	F	3	0	153	0		0	0	151.84127200002	151.941254400008
27706.75	0.0999872999964282	414	hunger	stimuli/foods\mandarin.jpg	1	3	1	mandarin	1	J	6	0	79	0		0	0	151.991266500001	152.091253799998
27744.25	0.0999866999918595	415	hunger	stimuli/foods\lasagna.jpg	1	3	1	lasagna	1	X	17	0	71	0		0	0	152.141271600005	152.241258299997
27781.75	0.09998440000345	416	hunger	stimuli/foods\avocado.jpg	1	3	1	avocado	1	G	4	0	5	0		0	0	152.291265700012	152.391250100016
27819.25	0.0999819999851752	417	hunger	stimuli/non_foods\non-food_inanimate_cupboard.jpg	1	3	1	non-food_inanimate_cupboard	0	K	7	0	177	0		0	0	152.44126740002	152.541249400005
27856.75	0.0999747000169009	418	hunger	stimuli/non_foods\non-food_animate_green_bug.jpg	1	3	1	non-food_animate_green_bug	0	G	4	0	118	0		0	0	152.591265900002	152.691240600019
27894.25	0.0999714999925345	419	hunger	stimuli/foods\beetroots.jpg	1	3	1	beetroots	1	N	10	0	10	0		0	0	152.741274900007	152.841246399999
28669.25	0.100023300008615	420	hunger	stimuli/foods\raisins.jpg	1	4	1	raisins	1	C	1	0	252	0		0	0	155.841243200004	155.941266500013
28706.75	0.0999458000005689	421	hunger	stimuli/non_foods\non-food_animate_rhino.jpg	1	4	1	non-food_animate_rhino	0	W	16	0	141	0		0	0	155.991272500018	156.091218300018
28744.25	0.0999958000029437	422	hunger	stimuli/non_foods\non-food_animate_lizard.jpg	1	4	1	non-food_animate_lizard	0	J	6	0	126	0		0	0	156.141236099997	156.2412319
28781.75	0.0999819000135176	423	hunger	stimuli/foods\cereal.jpg	1	4	1	cereal	1	K	7	0	22	0		0	0	156.291232999996	156.39121490001
28819.25	0.0999846999766305	424	hunger	stimuli/foods\grapes.jpg	1	4	1	grapes	1	H	5	0	60	0		0	0	156.441229100019	156.541213799996
28856.75	0.0999874999979511	425	hunger	stimuli/foods\garlic.jpg	1	4	1	garlic	1	N	10	0	56	0		0	0	156.591236600012	156.69122410001
28894.25	0.0999843000026885	426	hunger	stimuli/foods\coconut.jpg	1	4	1	coconut	1	L	8	0	33	0		0	0	156.741226700018	156.841211000021
28931.75	0.0999870999949053	427	hunger	stimuli/foods\fruit_pie.jpg	1	4	1	fruit_pie	1	N	10	0	54	0		0	0	156.891225600004	156.991212699999
28969.25	0.0999711999902502	428	hunger	stimuli/foods\cucumber.jpg	1	4	1	cucumber	1	K	7	0	41	0		0	0	157.041239400016	157.141210600006
29006.75	0.0999849000072572	429	hunger	stimuli/foods\lemon.jpg	1	4	1	lemon	1	G	4	0	72	0		0	0	157.191225699993	157.2912106
29044.25	0.0999827999912668	430	hunger	stimuli/non_foods\non-food_inanimate_socks.jpg	1	4	1	non-food_inanimate_socks	0	V	15	0	211	0		0	0	157.341224500007	157.441207299998
29081.75	0.0999898000154644	431	hunger	stimuli/foods\bagel.jpg	1	4	1	bagel	1	T	14	0	6	0		0	0	157.491216800001	157.591206600016
29119.25	0.100009100016905	432	hunger	stimuli/non_foods\non-food_animate_swan.jpg	1	4	1	non-food_animate_swan	0	K	7	0	152	0		0	0	157.641240500001	157.741249600018
29156.75	0.0999746999877971	433	hunger	stimuli/non_foods\non-food_animate_owl.jpg	1	4	1	non-food_animate_owl	0	S	13	0	132	0		0	0	157.791226800007	157.891201499995
29194.25	0.099960599996848	434	hunger	stimuli/non_foods\non-food_inanimate_horn.jpg	1	4	1	non-food_inanimate_horn	0	N	10	0	190	0		0	0	157.941217000014	158.041177600011
29231.75	0.100001499988139	435	hunger	stimuli/foods\museli_bars.jpg	1	4	1	museli_bars	1	B	0	0	84	0		0	0	158.09121470002	158.191216200008
29269.25	0.0999898000154644	436	hunger	stimuli/non_foods\non-food_animate_woman.jpg	1	4	1	non-food_animate_woman	0	X	17	0	154	0		0	0	158.241209300002	158.341199100018
29306.75	0.0999826999905054	437	hunger	stimuli/non_foods\non-food_animate_frog.jpg	1	4	1	non-food_animate_frog	0	M	9	0	113	0		0	0	158.391212100018	158.491194800008
29344.25	0.0999880000017583	438	hunger	stimuli/non_foods\non-food_inanimate_guitar.jpg	1	4	1	non-food_inanimate_guitar	0	B	0	0	185	0		0	0	158.541206900001	158.641194900003
29381.75	0.0999880000017583	439	hunger	stimuli/non_foods\non-food_animate_yellow_bug.jpg	1	4	1	non-food_animate_yellow_bug	0	Z	18	0	155	0		0	0	158.691208600008	158.79119660001
29419.25	0.0999838999996427	440	hunger	stimuli/foods\brie.jpg	1	4	1	brie	1	X	17	0	12	0		0	0	158.841208700003	158.941192600003
29456.75	0.0999852000095416	441	hunger	stimuli/foods\fried_calamari.jpg	1	4	1	fried_calamari	1	N	10	0	50	0		0	0	158.991204199992	159.091189400002
29494.25	0.0999885000055656	442	hunger	stimuli/non_foods\non-food_animate_monkey.jpg	1	4	1	non-food_animate_monkey	0	L	8	0	130	0		0	0	159.141204200016	159.241192700021
29531.75	0.0999791999929585	443	hunger	stimuli/foods\cooked_prawn.jpg	1	4	1	cooked_prawn	1	A	19	1	36	0		0	0	159.2912029	159.391182099993
29569.25	0.0999906999932136	444	hunger	stimuli/foods\gnocchi.jpg	1	4	1	gnocchi	1	W	16	0	58	0		0	0	159.44121640001	159.541207100003
29606.75	0.0999555999878794	445	hunger	stimuli/non_foods\non-food_animate_penguin.jpg	1	4	1	non-food_animate_penguin	0	J	6	0	135	0		0	0	159.591231900005	159.691187499993
29644.25	0.099987699999474	446	hunger	stimuli/foods\spaghetti_with_meat_sauce.jpg	1	4	1	spaghetti_with_meat_sauce	1	G	4	0	267	1	a	0.458007800014457	1	159.741198500007	159.841186200007
29681.75	0.0999904000200331	447	hunger	stimuli/foods\fruit_flan.jpg	1	4	1	fruit_flan	1	J	6	0	53	0		0	0	159.891194299998	159.991184700018
29719.25	0.0999867000209633	448	hunger	stimuli/non_foods\non-food_inanimate_moss.jpg	1	4	1	non-food_inanimate_moss	0	D	2	0	194	0		0	0	160.041194699996	160.141181400017
29756.75	0.0999833999958355	449	hunger	stimuli/non_foods\non-food_animate_squirrel.jpg	1	4	1	non-food_animate_squirrel	0	V	15	0	150	0		0	0	160.191196200001	160.291179599997
29794.25	0.0999888000078499	450	hunger	stimuli/non_foods\non-food_inanimate_bamboo.jpg	1	4	1	non-food_inanimate_bamboo	0	X	17	0	159	0		0	0	160.341192899999	160.441181700007
29831.75	0.100005900021642	451	hunger	stimuli/foods\toasted_bread_with_tomatoes.jpg	1	4	1	toasted_bread_with_tomatoes	1	W	16	0	275	0		0	0	160.491193599999	160.591199500021
29869.25	0.0999887000070885	452	hunger	stimuli/foods\spring_onions.jpg	1	4	1	spring_onions	1	V	15	0	269	0		0	0	160.641195900011	160.741184600018
29906.75	0.0999882999749389	453	hunger	stimuli/foods\omelette.jpg	1	4	1	omelette	1	J	6	0	228	0		0	0	160.79119020002	160.891178499995
29944.25	0.099983299995074	454	hunger	stimuli/non_foods\non-food_animate_cow.jpg	1	4	1	non-food_animate_cow	0	H	5	0	103	0		0	0	160.94119100002	161.041174300015
29981.75	0.099990999995498	455	hunger	stimuli/foods\smoked_ham.jpg	1	4	1	smoked_ham	1	X	17	0	266	0		0	0	161.091183400014	161.19117440001
30019.25	0.0999904999916907	456	hunger	stimuli/non_foods\non-food_animate_cheetah.jpg	1	4	1	non-food_animate_cheetah	0	M	9	0	100	0		0	0	161.24117980001	161.341170300002
30056.75	0.0999706000147853	457	hunger	stimuli/non_foods\non-food_inanimate_button.jpg	1	4	1	non-food_inanimate_button	0	G	4	0	168	0		0	0	161.391198700003	161.491169300018
30094.25	0.0999869999941438	458	hunger	stimuli/foods\risotto_with_zucchini.jpg	1	4	1	risotto_with_zucchini	1	T	14	0	260	0		0	0	161.541182500019	161.641169500013
30131.75	0.0999925000069197	459	hunger	stimuli/foods\red_beans.jpg	1	4	1	red_beans	1	D	2	0	255	0		0	0	161.691182400013	161.79117490002
30169.25	0.0999851999804378	460	hunger	stimuli/non_foods\non-food_animate_eagle.jpg	1	4	1	non-food_animate_eagle	0	S	13	0	110	0		0	0	161.84118030002	161.9411655
30206.75	0.099976900004549	461	hunger	stimuli/non_foods\non-food_animate_camel.jpg	1	4	1	non-food_animate_camel	0	C	1	0	97	0		0	0	161.991179100005	162.09115600001
30244.25	0.099988999980269	462	hunger	stimuli/non_foods\non-food_animate_alligator.jpg	1	4	1	non-food_animate_alligator	0	V	15	0	90	0		0	0	162.14116660002	162.241155600001
30281.75	0.10000299999956	463	hunger	stimuli/foods\cupcake.jpg	1	4	1	cupcake	1	D	2	0	42	0		0	0	162.291167400021	162.39117040002
30319.25	0.10000740000396	464	hunger	stimuli/foods\linguine_with_clams.jpg	1	4	1	linguine_with_clams	1	C	1	0	77	0		0	0	162.441173900006	162.54118130001
30356.75	0.0999764000007417	465	hunger	stimuli/foods\corncob.jpg	1	4	1	corncob	1	K	7	0	37	0		0	0	162.591177800001	162.691154200002
30394.25	0.099987699999474	466	hunger	stimuli/non_foods\non-food_inanimate_couch.jpg	1	4	1	non-food_inanimate_couch	0	N	10	0	176	0		0	0	162.741164700012	162.841152400011
30431.75	0.0999852999811992	467	hunger	stimuli/non_foods\non-food_inanimate_nailpolish.jpg	1	4	1	non-food_inanimate_nailpolish	0	Z	18	0	195	0		0	0	162.891165600013	162.991150899994
30469.25	0.0999684999987949	468	hunger	stimuli/non_foods\non-food_animate_ram.jpg	1	4	1	non-food_animate_ram	0	D	2	0	140	0		0	0	163.041187700001	163.141156199999
30506.75	0.0999824000173248	469	hunger	stimuli/foods\blackberry.jpg	1	4	1	blackberry	1	G	4	0	11	0		0	0	163.191169700003	163.291152100021
30544.25	0.0999869999941438	470	hunger	stimuli/non_foods\non-food_inanimate_scissors.jpg	1	4	1	non-food_inanimate_scissors	0	T	14	0	205	0		0	0	163.341164500016	163.44115150001
30581.75	0.099959300016053	471	hunger	stimuli/foods\watermelon.jpg	1	4	1	watermelon	1	R	12	0	279	0		0	0	163.4911823	163.591141600016
30619.25	0.0999860999872908	472	hunger	stimuli/non_foods\non-food_inanimate_buds.jpg	1	4	1	non-food_inanimate_buds	0	G	4	0	166	0		0	0	163.641157400009	163.741143499996
30656.75	0.0999987999966834	473	hunger	stimuli/foods\roasted_chicken.jpg	1	4	1	roasted_chicken	1	T	14	0	261	0		0	0	163.791151400015	163.891150200012
30694.25	0.099981499981368	474	hunger	stimuli/foods\potato_chips.jpg	1	4	1	potato_chips	1	N	10	0	247	0		0	0	163.941164100019	164.0411456
30731.75	0.100012400012929	475	hunger	stimuli/non_foods\non-food_animate_duck.jpg	1	4	1	non-food_animate_duck	0	K	7	0	109	0		0	0	164.091131699999	164.191144100012
30769.25	0.0999676999927033	476	hunger	stimuli/non_foods\non-food_inanimate_nettle.jpg	1	4	1	non-food_inanimate_nettle	0	R	12	0	197	0		0	0	164.241175700008	164.341143400001
30806.75	0.0999776000098791	477	hunger	stimuli/foods\salmon.jpg	1	4	1	salmon	1	X	17	0	264	0		0	0	164.391157100006	164.491134700016
30844.25	0.0999782999861054	478	hunger	stimuli/foods\cherry.jpg	1	4	1	cherry	1	M	9	0	23	0		0	0	164.54114440002	164.641122700006
30881.75	0.0999814000097103	479	hunger	stimuli/foods\lentils.jpg	1	4	1	lentils	1	V	15	0	74	0		0	0	164.691153599997	164.791135000007
30919.25	0.099946500005899	480	hunger	stimuli/non_foods\non-food_animate_clown.jpg	1	4	1	non-food_animate_clown	0	B	0	0	102	0		0	0	164.841195799992	164.941142299998
30956.75	0.0999807999760378	481	hunger	stimuli/non_foods\non-food_animate_bat.jpg	1	4	1	non-food_animate_bat	0	L	8	0	94	0		0	0	164.99115810002	165.091138899996
30994.25	0.0999887000070885	482	hunger	stimuli/foods\radish.jpg	1	4	1	radish	1	F	3	0	251	0		0	0	165.141147699993	165.2411364
31031.75	0.0999872999964282	483	hunger	stimuli/non_foods\non-food_inanimate_teddy_bear.jpg	1	4	1	non-food_inanimate_teddy_bear	0	J	6	0	218	0		0	0	165.291145399999	165.391132699995
31069.25	0.0999873999971896	484	hunger	stimuli/foods\cracker.jpg	1	4	1	cracker	1	M	9	0	38	0		0	0	165.441148300015	165.541135700012
31106.75	0.0999859999865294	485	hunger	stimuli/non_foods\non-food_inanimate_fern.jpg	1	4	1	non-food_inanimate_fern	0	X	17	0	180	0		0	0	165.591145700018	165.691131700005
31144.25	0.0999798999982886	486	hunger	stimuli/non_foods\non-food_inanimate_canoe.jpg	1	4	1	non-food_inanimate_canoe	0	K	7	0	170	0		0	0	165.741145800013	165.841125700012
31181.75	0.0999837999988813	487	hunger	stimuli/foods\chocolate_pudding.jpg	1	4	1	chocolate_pudding	1	S	13	0	29	0		0	0	165.891134100006	165.991117900005
31219.25	0.0999858000141103	488	hunger	stimuli/non_foods\non-food_animate_porcupine.jpg	1	4	1	non-food_animate_porcupine	0	X	17	0	138	0		0	0	166.041140799993	166.141126600007
31256.75	0.0999814000097103	489	hunger	stimuli/non_foods\non-food_inanimate_bucket.jpg	1	4	1	non-food_inanimate_bucket	0	F	3	0	165	0		0	0	166.191139600007	166.291121000017
31294.25	0.0999805000028573	490	hunger	stimuli/foods\celery.jpg	1	4	1	celery	1	D	2	0	21	0		0	0	166.341132800007	166.44111330001
31331.75	0.100020599988056	491	hunger	stimuli/non_foods\non-food_inanimate_pine_cone.jpg	1	4	1	non-food_inanimate_pine_cone	0	L	8	0	200	0		0	0	166.491122900014	166.591143500002
31369.25	0.0999371999932919	492	hunger	stimuli/non_foods\non-food_animate_kangaroo.jpg	1	4	1	non-food_animate_kangaroo	0	P	11	0	122	0		0	0	166.641182000021	166.741119200015
31406.75	0.099987699999474	493	hunger	stimuli/non_foods\non-food_inanimate_lighter.jpg	1	4	1	non-food_inanimate_lighter	0	N	10	0	193	0		0	0	166.791132700018	166.891120400018
31444.25	0.0999834999965969	494	hunger	stimuli/foods\almonds.jpg	1	4	1	almonds	1	M	9	0	0	0		0	0	166.941135900008	167.041119400004
31481.75	0.0999873999971896	495	hunger	stimuli/non_foods\non-food_animate_llama.jpg	1	4	1	non-food_animate_llama	0	D	2	0	127	0		0	0	167.091128700005	167.191116100003
31519.25	0.0999908999947365	496	hunger	stimuli/foods\clams.jpg	1	4	1	clams	1	C	1	0	32	0		0	0	167.241127200017	167.341118100012
31556.75	0.0999830999935511	497	hunger	stimuli/non_foods\non-food_inanimate_stoplight.jpg	1	4	1	non-food_inanimate_stoplight	0	P	11	0	214	0		0	0	167.391130100004	167.491113199998
31594.25	0.099987699999474	498	hunger	stimuli/non_foods\non-food_animate_polar_bear.jpg	1	4	1	non-food_animate_polar_bear	0	T	14	0	137	0		0	0	167.541125599993	167.641113299993
31631.75	0.0999693999765441	499	hunger	stimuli/foods\oyster.jpg	1	4	1	oyster	1	R	12	0	233	0		0	0	167.691145300021	167.791114699998
31669.25	0.0999826999905054	500	hunger	stimuli/foods\egg.jpg	1	4	1	egg	1	H	5	0	45	0		0	0	167.841124500002	167.941107199993
31706.75	0.0999868999933824	501	hunger	stimuli/foods\cooked_ham.jpg	1	4	1	cooked_ham	1	S	13	0	35	0		0	0	167.991122600011	168.091109500005
31744.25	0.0999853999819607	502	hunger	stimuli/foods\mortadella.jpg	1	4	1	mortadella	1	M	9	0	83	0		0	0	168.141119700012	168.241105099994
31781.75	0.0999894000124186	503	hunger	stimuli/non_foods\non-food_inanimate_stapler.jpg	1	4	1	non-food_inanimate_stapler	0	V	15	0	213	0		0	0	168.291135000007	168.391124400019
31819.25	0.0999640999943949	504	hunger	stimuli/foods\apple.jpg	1	4	1	apple	1	B	0	0	1	0		0	0	168.441140900017	168.541105000011
31856.75	0.0999870999949053	505	hunger	stimuli/non_foods\non-food_animate_elephant.jpg	1	4	1	non-food_animate_elephant	0	E	20	1	111	0		0	0	168.591116199997	168.691103299992
31894.25	0.0999863000179175	506	hunger	stimuli/non_foods\non-food_inanimate_bed.jpg	1	4	1	non-food_inanimate_bed	0	P	11	0	160	0		0	0	168.741117199999	168.841103500017
31931.75	0.0999849000072572	507	hunger	stimuli/non_foods\non-food_inanimate_skirt.jpg	1	4	1	non-food_inanimate_skirt	0	M	9	0	209	0		0	0	168.891113499994	168.991098400002
31969.25	0.0999866999918595	508	hunger	stimuli/non_foods\non-food_inanimate_leaf.jpg	1	4	1	non-food_inanimate_leaf	0	L	8	0	192	1	a	0.54181670001708	1	169.04111250001	169.141099200002
32006.75	0.0999821999866981	509	hunger	stimuli/non_foods\non-food_inanimate_chandelier.jpg	1	4	1	non-food_inanimate_chandelier	0	H	5	0	173	0		0	0	169.19111710001	169.291099299997
32044.25	0.0999859999865294	510	hunger	stimuli/foods\mango.jpg	1	4	1	mango	1	C	1	0	80	0		0	0	169.341110000008	169.441095999995
32081.75	0.0999475000135135	511	hunger	stimuli/foods\banana.jpg	1	4	1	banana	1	S	13	0	9	0		0	0	169.491148100002	169.591095600015
32119.25	0.0999855999834836	512	hunger	stimuli/non_foods\non-food_animate_slug.jpg	1	4	1	non-food_animate_slug	0	C	1	0	148	0		0	0	169.641107800009	169.741093399993
32156.75	0.0999860999872908	513	hunger	stimuli/foods\frankfurter_and_provolone_salad.jpg	1	4	1	frankfurter_and_provolone_salad	1	B	0	0	49	0		0	0	169.791105400014	169.891091500001
32194.25	0.0999819000135176	514	hunger	stimuli/foods\lime.jpg	1	4	1	lime	1	S	13	0	76	0		0	0	169.941107899998	170.041089800012
32231.75	0.0999987999966834	515	hunger	stimuli/foods\carrot.jpg	1	4	1	carrot	1	T	14	0	19	0		0	0	170.091114300012	170.191113100009
32269.25	0.0999478000157978	516	hunger	stimuli/foods\mushroom.jpg	1	4	1	mushroom	1	K	7	0	85	0		0	0	170.241139399994	170.341087200009
32306.75	0.0999872000247706	517	hunger	stimuli/foods\potatoes.jpg	1	4	1	potatoes	1	J	6	0	248	0		0	0	170.391102099995	170.49108930002
32344.25	0.0999870999949053	518	hunger	stimuli/foods\peach.jpg	1	4	1	peach	1	X	17	0	238	0		0	0	170.541096400004	170.641083499999
32381.75	0.0999888000078499	519	hunger	stimuli/non_foods\non-food_animate_chicken.jpg	1	4	1	non-food_animate_chicken	0	C	1	0	101	0		0	0	170.691097800009	170.791086600017
32419.25	0.0999857000133488	520	hunger	stimuli/foods\nectarine.jpg	1	4	1	nectarine	1	L	8	0	87	0		0	0	170.841096499993	170.941082200006
32456.75	0.0999880000017583	521	hunger	stimuli/foods\strawberry.jpg	1	4	1	strawberry	1	H	5	0	272	0		0	0	170.991094500001	171.091082500003
32494.25	0.0999984000227414	522	hunger	stimuli/foods\ginger_root.jpg	1	4	1	ginger_root	1	K	7	0	57	0		0	0	171.141094499995	171.241092900018
32531.75	0.0999616000044625	523	hunger	stimuli/non_foods\non-food_animate_grasshopper.jpg	1	4	1	non-food_animate_grasshopper	0	T	14	0	117	0		0	0	171.291118199995	171.3910798
32569.25	0.099983299995074	524	hunger	stimuli/foods\hazelnuts.jpg	1	4	1	hazelnuts	1	B	0	0	65	0		0	0	171.4410928	171.541076099995
32606.75	0.0999878000002354	525	hunger	stimuli/foods\kiwi.jpg	1	4	1	kiwi	1	M	9	0	69	0		0	0	171.591088799993	171.691076599993
32644.25	0.0999989999982063	526	hunger	stimuli/foods\cinnamon.jpg	1	4	1	cinnamon	1	K	7	0	30	0		0	0	171.741080800013	171.841079800011
32681.75	0.100022600003285	527	hunger	stimuli/non_foods\non-food_inanimate_broom.jpg	1	4	1	non-food_inanimate_broom	0	X	17	0	164	0		0	0	171.891075799998	171.991098400002
32719.25	0.0999837000272237	528	hunger	stimuli/non_foods\non-food_inanimate_padlock.jpg	1	4	1	non-food_inanimate_padlock	0	M	9	0	199	0		0	0	172.041079599992	172.14106330002
32756.75	0.0999851999804378	529	hunger	stimuli/foods\waffle.jpg	1	4	1	waffle	1	L	8	0	278	0		0	0	172.191076200019	172.291061399999
32794.25	0.0999860000156332	530	hunger	stimuli/non_foods\non-food_inanimate_bowling_ball.jpg	1	4	1	non-food_inanimate_bowling_ball	0	Z	18	0	162	0		0	0	172.341077699995	172.441063700011
32831.75	0.0999843000026885	531	hunger	stimuli/non_foods\non-food_animate_giraffe.jpg	1	4	1	non-food_animate_giraffe	0	N	10	0	115	0		0	0	172.491076100006	172.591060400009
32869.25	0.099986599991098	532	hunger	stimuli/non_foods\non-food_animate_iguana.jpg	1	4	1	non-food_animate_iguana	0	L	8	0	121	0		0	0	172.64108500001	172.741071600001
32906.75	0.099990600021556	533	hunger	stimuli/non_foods\non-food_inanimate_shell.jpg	1	4	1	non-food_inanimate_shell	0	J	6	0	206	0		0	0	172.791064599995	172.891055200016
32944.25	0.100000700011151	534	hunger	stimuli/non_foods\non-food_animate_parrot.jpg	1	4	1	non-food_animate_parrot	0	M	9	0	133	0		0	0	172.941078700009	173.04107940002
32981.75	0.0999828999920283	535	hunger	stimuli/foods\raw_sausage.jpg	1	4	1	raw_sausage	1	C	1	0	254	0		0	0	173.091078900005	173.191061799997
33019.25	0.0999841999728233	536	hunger	stimuli/foods\prawn.jpg	1	4	1	prawn	1	H	5	0	249	0		0	0	173.24107790002	173.341062099993
33056.75	0.0999833000241779	537	hunger	stimuli/foods\wafer.jpg	1	4	1	wafer	1	T	14	0	277	0		0	0	173.391075399995	173.491058700019
33094.25	0.0999904999916907	538	hunger	stimuli/foods\oregano.jpg	1	4	1	oregano	1	L	8	0	231	0		0	0	173.54107180002	173.641062300012
33131.75	0.10000019997824	539	hunger	stimuli/non_foods\non-food_inanimate_desk.jpg	1	4	1	non-food_inanimate_desk	0	O	22	1	178	0		0	0	173.691095000017	173.791095199995
33169.25	0.0999646999989636	540	hunger	stimuli/non_foods\non-food_animate_dachshund.jpg	1	4	1	non-food_animate_dachshund	0	N	10	0	104	0		0	0	173.84108340001	173.941048100009
33206.75	0.0999833999958355	541	hunger	stimuli/foods\chestnut.jpg	1	4	1	chestnut	1	P	11	0	24	0		0	0	173.991062500019	174.091045900015
33244.25	0.0999836999981198	542	hunger	stimuli/non_foods\non-food_inanimate_cactus_pot_plant.jpg	1	4	1	non-food_inanimate_cactus_pot_plant	0	R	12	0	169	0		0	0	174.141061300004	174.241045000002
33281.75	0.099981100007426	543	hunger	stimuli/foods\fried_zucchini.jpg	1	4	1	fried_zucchini	1	G	4	0	51	1	a	0.593346499983454	1	174.291062200005	174.391043300013
33319.25	0.0999809000059031	544	hunger	stimuli/non_foods\non-food_animate_pigeon.jpg	1	4	1	non-food_animate_pigeon	0	B	0	0	136	0		0	0	174.441066900006	174.541047800012
33356.75	0.0999883000040427	545	hunger	stimuli/foods\swordfish.jpg	1	4	1	swordfish	1	J	6	0	273	0		0	0	174.591060000006	174.69104830001
33394.25	0.0999950999976136	546	hunger	stimuli/foods\coffee_beans.jpg	1	4	1	coffee_beans	1	N	10	0	34	0		0	0	174.741064300004	174.841059400002
33431.75	0.0999860999872908	547	hunger	stimuli/foods\risotto_with_peas_and_asparagus_tips.jpg	1	4	1	risotto_with_peas_and_asparagus_tips	1	C	1	0	259	0		0	0	174.891058600013	174.9910447
33469.25	0.0999641999951564	548	hunger	stimuli/foods\cannoli.jpg	1	4	1	cannoli	1	P	11	0	17	0		0	0	175.041064200021	175.141028400016
33506.75	0.0999694999773055	549	hunger	stimuli/foods\broccoli.jpg	1	4	1	broccoli	1	L	8	0	13	0		0	0	175.191064700019	175.291034199996
33544.25	0.0999868999933824	550	hunger	stimuli/non_foods\non-food_animate_Causasian_man.jpg	1	4	1	non-food_animate_Causasian_man	0	C	1	0	89	0		0	0	175.341048800008	175.441035700002
33581.75	0.10000299999956	551	hunger	stimuli/non_foods\non-food_inanimate_construction_helment.jpg	1	4	1	non-food_inanimate_construction_helment	0	J	6	0	175	0		0	0	175.491042300011	175.591045300011
33619.25	0.0999764000007417	552	hunger	stimuli/foods\meatballs.jpg	1	4	1	meatballs	1	V	15	0	81	0		0	0	175.641052599996	175.741028999997
33656.75	0.0999889000086114	553	hunger	stimuli/non_foods\non-food_animate_skunk.jpg	1	4	1	non-food_animate_skunk	0	S	13	0	147	0		0	0	175.791042900004	175.891031800013
33694.25	0.0999862999888137	554	hunger	stimuli/foods\pepperoni_pizza.jpg	1	4	1	pepperoni_pizza	1	K	7	0	241	0		0	0	175.941052600014	176.041038900003
33731.75	0.0999836999981198	555	hunger	stimuli/foods\potato_and_green_bean_salad.jpg	1	4	1	potato_and_green_bean_salad	1	J	6	0	246	0		0	0	176.091051800002	176.1910355
33769.25	0.10002220000024	556	hunger	stimuli/non_foods\non-food_animate_deer.jpg	1	4	1	non-food_animate_deer	0	C	1	0	105	0		0	0	176.241018900007	176.341041100008
33806.75	0.0999812000081874	557	hunger	stimuli/non_foods\non-food_animate_gorilla.jpg	1	4	1	non-food_animate_gorilla	0	D	2	0	116	0		0	0	176.391050100006	176.491031300015
33844.25	0.0999850000080187	558	hunger	stimuli/foods\donut.jpg	1	4	1	donut	1	W	16	0	44	0		0	0	176.541043500009	176.641028500017
33881.75	0.0999860000156332	559	hunger	stimuli/non_foods\non-food_animate_lion.jpg	1	4	1	non-food_animate_lion	0	L	8	0	125	0		0	0	176.691043500003	176.791029500018
36227.5	0.0999645999982022	560	hunger	stimuli/foods\broccoli.jpg	1	5	1	broccoli	1	M	9	0	13	0		0	0	186.074313899997	186.174278499995
36265	0.0999848999781534	561	hunger	stimuli/non_foods\non-food_animate_skunk.jpg	1	5	1	non-food_animate_skunk	0	H	5	0	147	0		0	0	186.224290400016	186.324275299994
36302.5	0.0999884000048041	562	hunger	stimuli/foods\waffle.jpg	1	5	1	waffle	1	P	11	0	278	0		0	0	186.37429040001	186.474278800015
36340	0.099991900002351	563	hunger	stimuli/foods\coconut.jpg	1	5	1	coconut	1	T	14	0	33	0		0	0	186.524289499997	186.6242814
36377.5	0.0999473000119906	564	hunger	stimuli/foods\honey.jpg	1	5	1	honey	1	P	11	0	66	0		0	0	186.674328099994	186.774275400006
36415	0.099995199998375	565	hunger	stimuli/non_foods\non-food_animate_bat.jpg	1	5	1	non-food_animate_bat	0	G	4	0	94	0		0	0	186.824285800016	186.924281000014
36452.5	0.0999492999981157	566	hunger	stimuli/foods\cauliflower.jpg	1	5	1	cauliflower	1	V	15	0	20	0		0	0	186.974290500017	187.074239800015
36490	0.0999852999811992	567	hunger	stimuli/non_foods\non-food_animate_gorilla.jpg	1	5	1	non-food_animate_gorilla	0	N	10	0	116	0		0	0	187.124284200021	187.224269500002
36527.5	0.099987300025532	568	hunger	stimuli/non_foods\non-food_animate_caterpillar.jpg	1	5	1	non-food_animate_caterpillar	0	H	5	0	99	0		0	0	187.274281399994	187.374268700019
36565	0.0999870999949053	569	hunger	stimuli/foods\cooked_prawn.jpg	1	5	1	cooked_prawn	1	G	4	0	36	0		0	0	187.424277600017	187.524264700012
36602.5	0.0999815000104718	570	hunger	stimuli/non_foods\non-food_inanimate_scissors.jpg	1	5	1	non-food_inanimate_scissors	0	X	17	0	205	0		0	0	187.574280700006	187.674262200017
36640	0.0999843000026885	571	hunger	stimuli/non_foods\non-food_animate_dolphin.jpg	1	5	1	non-food_animate_dolphin	0	R	12	0	106	0		0	0	187.724277200003	187.824261500005
36677.5	0.0999807000043802	572	hunger	stimuli/non_foods\non-food_animate_peacock.jpg	1	5	1	non-food_animate_peacock	0	T	14	0	134	0		0	0	187.874278400006	187.97425910001
36715	0.0999861000163946	573	hunger	stimuli/non_foods\non-food_animate_squirrel.jpg	1	5	1	non-food_animate_squirrel	0	F	3	0	150	0		0	0	188.024274700001	188.124260800018
36752.5	0.099984799977392	574	hunger	stimuli/non_foods\non-food_animate_rhino.jpg	1	5	1	non-food_animate_rhino	0	S	13	0	141	0		0	0	188.174273500015	188.274258299993
36790	0.0999987999966834	575	hunger	stimuli/non_foods\non-food_inanimate_buds.jpg	1	5	1	non-food_inanimate_buds	0	J	6	0	166	0		0	0	188.324270200013	188.42426900001
36827.5	0.0999587000114843	576	hunger	stimuli/non_foods\non-food_inanimate_lighter.jpg	1	5	1	non-food_inanimate_lighter	0	M	9	0	193	0		0	0	188.474288700003	188.574247400014
36865	0.0999821000150405	577	hunger	stimuli/foods\peach.jpg	1	5	1	peach	1	R	12	0	238	0		0	0	188.624265799997	188.724247900012
36902.5	0.0999862999888137	578	hunger	stimuli/foods\asparagus.jpg	1	5	1	asparagus	1	W	16	0	4	0		0	0	188.774260300008	188.874246599997
36940	0.099981499981368	579	hunger	stimuli/foods\brownie.jpg	1	5	1	brownie	1	N	10	0	14	0		0	0	188.924258000014	189.024239499995
36977.5	0.0999883000040427	580	hunger	stimuli/foods\taco.jpg	1	5	1	taco	1	W	16	0	274	0		0	0	189.07425450001	189.174242800014
37015	0.0999998000042979	581	hunger	stimuli/non_foods\non-food_inanimate_couch.jpg	1	5	1	non-food_inanimate_couch	0	K	7	0	176	0		0	0	189.224249699997	189.324249500001
37052.5	0.0999899999878835	582	hunger	stimuli/non_foods\non-food_animate_baby_sitting.jpg	1	5	1	non-food_animate_baby_sitting	0	W	16	0	93	0		0	0	189.374260700017	189.474250700005
37090	0.099982399988221	583	hunger	stimuli/non_foods\non-food_animate_tortoise.jpg	1	5	1	non-food_animate_tortoise	0	H	5	0	153	0		0	0	189.524280900019	189.624263300007
37127.5	0.099982000014279	584	hunger	stimuli/foods\grapes.jpg	1	5	1	grapes	1	X	17	0	60	0		0	0	189.674257000006	189.77423900002
37165	0.0999885000055656	585	hunger	stimuli/foods\oregano.jpg	1	5	1	oregano	1	K	7	0	231	0		0	0	189.824253600003	189.924242100009
37202.5	0.0999918000015896	586	hunger	stimuli/foods\figs.jpg	1	5	1	figs	1	J	6	0	48	0		0	0	189.974250700005	190.074242500006
37240	0.100004900014028	587	hunger	stimuli/non_foods\non-food_animate_runner.jpg	1	5	1	non-food_animate_runner	0	W	16	0	142	0		0	0	190.124255300005	190.224260200019
37277.5	0.0999504000064917	588	hunger	stimuli/foods\chocolate_pudding.jpg	1	5	1	chocolate_pudding	1	S	13	0	29	0		0	0	190.274288999994	190.3742394
37315	0.0999830999935511	589	hunger	stimuli/foods\museli_bars.jpg	1	5	1	museli_bars	1	Z	18	0	84	0		0	0	190.424253600009	190.524236700003
37352.5	0.09998440000345	590	hunger	stimuli/non_foods\non-food_animate_Asian_man.jpg	1	5	1	non-food_animate_Asian_man	0	P	11	0	88	0		0	0	190.574248899997	190.6742333
37390	0.0999847000057343	591	hunger	stimuli/non_foods\non-food_animate_sea_turtle.jpg	1	5	1	non-food_animate_sea_turtle	0	M	9	0	144	0		0	0	190.724249599996	190.824234300002
37427.5	0.0999843000026885	592	hunger	stimuli/foods\nectarine.jpg	1	5	1	nectarine	1	S	13	0	87	0		0	0	190.8742509	190.974235200003
37465	0.0999859999865294	593	hunger	stimuli/foods\lollies.jpg	1	5	1	lollies	1	L	8	0	78	0		0	0	191.024245400011	191.124231399997
37502.5	0.0999826999905054	594	hunger	stimuli/non_foods\non-food_animate_sea_lion.jpg	1	5	1	non-food_animate_sea_lion	0	F	3	0	143	0		0	0	191.174246900016	191.274229600007
37540	0.0999719999963418	595	hunger	stimuli/non_foods\non-food_inanimate_hammer.jpg	1	5	1	non-food_inanimate_hammer	0	N	10	0	186	0		0	0	191.324255500018	191.424227500014
37577.5	0.0999893999833148	596	hunger	stimuli/foods\fruit_flan.jpg	1	5	1	fruit_flan	1	Z	18	0	53	0		0	0	191.474241000018	191.574230400001
37615	0.0999825999897439	597	hunger	stimuli/non_foods\non-food_animate_seahorse.jpg	1	5	1	non-food_animate_seahorse	0	C	1	0	145	0		0	0	191.624245500017	191.724228100007
37652.5	0.0999846000049729	598	hunger	stimuli/foods\chocolate_pralines.jpg	1	5	1	chocolate_pralines	1	G	4	0	28	0		0	0	191.774239599996	191.874224200001
37690	0.100017299992032	599	hunger	stimuli/non_foods\non-food_animate_ladybug.jpg	1	5	1	non-food_animate_ladybug	0	V	15	0	124	0		0	0	191.924253000005	192.024270299997
37727.5	0.0999664000119083	600	hunger	stimuli/non_foods\non-food_inanimate_shell.jpg	1	5	1	non-food_inanimate_shell	0	P	11	0	206	0		0	0	192.074252799997	192.174219200009
37765	0.0999880000017583	601	hunger	stimuli/non_foods\non-food_inanimate_waterlily.jpg	1	5	1	non-food_inanimate_waterlily	0	R	12	0	226	0		0	0	192.224231800006	192.324219800008
37802.5	0.0999884000048041	602	hunger	stimuli/non_foods\non-food_animate_penguin.jpg	1	5	1	non-food_animate_penguin	0	K	7	0	135	0		0	0	192.374233900016	192.474222300021
37840	0.0999574000015855	603	hunger	stimuli/non_foods\non-food_inanimate_stapler.jpg	1	5	1	non-food_inanimate_stapler	0	P	11	0	213	0		0	0	192.524261000013	192.624218400015
37877.5	0.0999868999933824	604	hunger	stimuli/foods\meatballs.jpg	1	5	1	meatballs	1	V	15	0	81	0		0	0	192.674231800018	192.774218700011
37915	0.0999735000077635	605	hunger	stimuli/non_foods\non-food_animate_duck.jpg	1	5	1	non-food_animate_duck	0	O	22	1	109	0		0	0	192.824239500012	192.92421300002
37952.5	0.0999842000019271	606	hunger	stimuli/non_foods\non-food_inanimate_padlock.jpg	1	5	1	non-food_inanimate_padlock	0	X	17	0	199	0		0	0	192.974227900006	193.074212100008
37990	0.0999732000054792	607	hunger	stimuli/foods\pea_pod.jpg	1	5	1	pea_pod	1	T	14	0	237	0		0	0	193.124242799997	193.224216000002
38027.5	0.0999883000040427	608	hunger	stimuli/non_foods\non-food_inanimate_suitcase.jpg	1	5	1	non-food_inanimate_suitcase	0	P	11	0	215	1	a	0.443186299991794	1	193.274222100008	193.374210400012
38065	0.0999854000110645	609	hunger	stimuli/foods\cherry.jpg	1	5	1	cherry	1	H	5	0	23	0		0	0	193.424224799994	193.524210200005
38102.5	0.0999824999889825	610	hunger	stimuli/foods\cupcake.jpg	1	5	1	cupcake	1	M	9	0	42	0		0	0	193.574220900016	193.674203400005
38140	0.0999828999920283	611	hunger	stimuli/non_foods\non-food_animate_slug.jpg	1	5	1	non-food_animate_slug	0	H	5	0	148	0		0	0	193.724235300004	193.824218199996
38177.5	0.0999526000232436	612	hunger	stimuli/non_foods\non-food_animate_monkey.jpg	1	5	1	non-food_animate_monkey	0	T	14	0	130	0		0	0	193.874253999995	193.974206600018
38215	0.0999858000141103	613	hunger	stimuli/foods\pork_and_rice.jpg	1	5	1	pork_and_rice	1	P	11	0	245	0		0	0	194.024216699996	194.12420250001
38252.5	0.0999867999926209	614	hunger	stimuli/foods\pancakes.jpg	1	5	1	pancakes	1	Z	18	0	234	0		0	0	194.174214700004	194.274201499997
38290	0.0999830999935511	615	hunger	stimuli/foods\lettuce.jpg	1	5	1	lettuce	1	K	7	0	75	0		0	0	194.324215900007	194.424199000001
38327.5	0.0999836999981198	616	hunger	stimuli/non_foods\non-food_inanimate_skirt.jpg	1	5	1	non-food_inanimate_skirt	0	T	14	0	209	0		0	0	194.474214400019	194.574198100017
38365	0.0999860000156332	617	hunger	stimuli/foods\pasta_carbonara.jpg	1	5	1	pasta_carbonara	1	C	1	0	236	0		0	0	194.624215499993	194.724201500008
38402.5	0.0999850000080187	618	hunger	stimuli/non_foods\non-food_animate_bee.jpg	1	5	1	non-food_animate_bee	0	X	17	0	95	0		0	0	194.774210700009	194.874195700017
38440	0.0999707000155468	619	hunger	stimuli/non_foods\non-food_animate_deer.jpg	1	5	1	non-food_animate_deer	0	K	7	0	105	0		0	0	194.924228699994	195.02419940001
38477.5	0.099982399988221	620	hunger	stimuli/non_foods\non-food_animate_raccoon.jpg	1	5	1	non-food_animate_raccoon	0	C	1	0	139	0		0	0	195.074215900007	195.174198299996
38515	0.0999744999862742	621	hunger	stimuli/foods\prawn.jpg	1	5	1	prawn	1	K	7	0	249	0		0	0	195.224209600012	195.324184099998
38552.5	0.0999817000119947	622	hunger	stimuli/non_foods\non-food_inanimate_chair.jpg	1	5	1	non-food_inanimate_chair	0	J	6	0	172	0		0	0	195.374197800003	195.474179500015
38590	0.0999881000025198	623	hunger	stimuli/foods\lentils.jpg	1	5	1	lentils	1	D	2	0	74	0		0	0	195.524196300015	195.624184400018
38627.5	0.099989899987122	624	hunger	stimuli/non_foods\non-food_animate_millipede.jpg	1	5	1	non-food_animate_millipede	0	L	8	0	129	0		0	0	195.674192700011	195.774182599998
38665	0.0999861999880522	625	hunger	stimuli/foods\watermelon.jpg	1	5	1	watermelon	1	W	16	0	279	0		0	0	195.824193800014	195.924180000002
38702.5	0.0999868000217248	626	hunger	stimuli/non_foods\non-food_animate_chicken.jpg	1	5	1	non-food_animate_chicken	0	G	4	0	101	0		0	0	195.974191999994	196.074178800016
38740	0.0999749000184238	627	hunger	stimuli/non_foods\non-food_inanimate_nest.jpg	1	5	1	non-food_inanimate_nest	0	X	17	0	196	0		0	0	196.124193900003	196.224168800021
38777.5	0.100004899984924	628	hunger	stimuli/non_foods\non-food_inanimate_alarm_clock.jpg	1	5	1	non-food_inanimate_alarm_clock	0	L	8	0	158	0		0	0	196.274180500011	196.374185399996
38815	0.099989700014703	629	hunger	stimuli/non_foods\non-food_inanimate_sun_flower.jpg	1	5	1	non-food_inanimate_sun_flower	0	H	5	0	216	0		0	0	196.424190499994	196.524180200009
38852.5	0.099986400018679	630	hunger	stimuli/foods\bagel.jpg	1	5	1	bagel	1	G	4	0	6	0		0	0	196.574194899993	196.674181300012
38890	0.0999767000030261	631	hunger	stimuli/foods\corncob.jpg	1	5	1	corncob	1	X	17	0	37	0		0	0	196.72420170001	196.824178400013
38927.5	0.099987699999474	632	hunger	stimuli/foods\carrot.jpg	1	5	1	carrot	1	N	10	0	19	0		0	0	196.874191800016	196.974179500015
38965	0.0999878000002354	633	hunger	stimuli/non_foods\non-food_inanimate_toilet.jpg	1	5	1	non-food_inanimate_toilet	0	G	4	0	220	0		0	0	197.024190900003	197.124178700004
39002.5	0.0999882000032812	634	hunger	stimuli/foods\papaya.jpg	1	5	1	papaya	1	V	15	0	235	0		0	0	197.174190799997	197.274179
39040	0.0999633999890648	635	hunger	stimuli/non_foods\non-food_inanimate_protractor.jpg	1	5	1	non-food_inanimate_protractor	0	F	3	0	201	0		0	0	197.324207800004	197.424171199993
39077.5	0.0999734999786597	636	hunger	stimuli/foods\spring_onions.jpg	1	5	1	spring_onions	1	L	8	0	269	0		0	0	197.474190900015	197.574164399994
39115	0.100017100019613	637	hunger	stimuli/non_foods\non-food_inanimate_towel.jpg	1	5	1	non-food_inanimate_towel	0	J	6	0	221	0		0	0	197.624181399995	197.724198500015
39152.5	0.0999854999827221	638	hunger	stimuli/foods\fennel.jpg	1	5	1	fennel	1	P	11	0	47	0		0	0	197.774177600018	197.874163100001
39190	0.0999743999855127	639	hunger	stimuli/non_foods\non-food_inanimate_briefcase.jpg	1	5	1	non-food_inanimate_briefcase	0	X	17	0	163	0		0	0	197.924186000018	198.024160400004
39227.5	0.0999855000118259	640	hunger	stimuli/non_foods\non-food_inanimate_bicycle.jpg	1	5	1	non-food_inanimate_bicycle	0	F	3	0	161	0		0	0	198.074175999995	198.174161500006
39265	0.0999828999920283	641	hunger	stimuli/non_foods\non-food_inanimate_canoe.jpg	1	5	1	non-food_inanimate_canoe	0	M	9	0	170	0		0	0	198.224175800016	198.324158700008
39302.5	0.0999899000162259	642	hunger	stimuli/non_foods\non-food_inanimate_bed.jpg	1	5	1	non-food_inanimate_bed	0	J	6	0	160	0		0	0	198.374171200005	198.474161100021
39340	0.0999837999988813	643	hunger	stimuli/foods\potato_chips.jpg	1	5	1	potato_chips	1	H	5	0	247	0		0	0	198.524172500009	198.624156300008
39377.5	0.100009499990847	644	hunger	stimuli/non_foods\non-food_inanimate_moss.jpg	1	5	1	non-food_inanimate_moss	0	K	7	0	194	0		0	0	198.67415180002	198.774161300011
39415	0.0999856000125874	645	hunger	stimuli/non_foods\non-food_inanimate_horn.jpg	1	5	1	non-food_inanimate_horn	0	L	8	0	190	0		0	0	198.824173700006	198.924159300019
39452.5	0.0999815999821294	646	hunger	stimuli/foods\mortadella.jpg	1	5	1	mortadella	1	M	9	0	83	0		0	0	198.974175800016	199.074157399999
39490	0.0999394000100438	647	hunger	stimuli/non_foods\non-food_animate_hummingbird.jpg	1	5	1	non-food_animate_hummingbird	0	F	3	0	120	0		0	0	199.124215599993	199.224155000004
39527.5	0.0999864999903366	648	hunger	stimuli/non_foods\non-food_inanimate_fern.jpg	1	5	1	non-food_inanimate_fern	0	J	6	0	180	0		0	0	199.274171800003	199.374158299994
39565	0.0999846000049729	649	hunger	stimuli/foods\smoked_ham.jpg	1	5	1	smoked_ham	1	B	0	0	266	0		0	0	199.424168600002	199.524153200007
