onset	duration	eventnumber	hunger_condition	stimfilename	blockno	trialno	is_faststream	stim	food_idx	letter	letter_idx	istarget	image_number	response	keypressed	rt	correct	time_stimon	time_stimoff
9392.25	0.0999861999880522	0	satiated	stimuli/foods\hazelnuts.jpg	1	1	1	hazelnuts	1	S	13	0	65	0		0	0	57.0581026000436	57.1580888000317
9429.75	0.100011899950914	1	satiated	stimuli/non_foods\non-food_animate_frog.jpg	1	1	1	non-food_animate_frog	0	X	17	0	113	0		0	0	57.2081101000076	57.3081219999585
9467.25	0.0999875999987125	2	satiated	stimuli/foods\wafer.jpg	1	1	1	wafer	1	G	4	0	277	0		0	0	57.3580904999981	57.4580780999968
9504.75	0.0999675000784919	3	satiated	stimuli/foods\risotto_with_peas_and_asparagus_tips.jpg	1	1	1	risotto_with_peas_and_asparagus_tips	1	D	2	0	259	0		0	0	57.5081004999811	57.6080680000596
9542.25	0.0999657000647858	4	satiated	stimuli/foods\taco.jpg	1	1	1	taco	1	S	13	0	274	0		0	0	57.6581123999786	57.7580781000433
9579.75	0.0999890000093728	5	satiated	stimuli/foods\fried_zucchini.jpg	1	1	1	fried_zucchini	1	Z	18	0	51	0		0	0	57.8080912999576	57.908080299967
9617.25	0.0999769000336528	6	satiated	stimuli/non_foods\non-food_animate_dolphin.jpg	1	1	1	non-food_animate_dolphin	0	M	9	0	106	0		0	0	57.9580956000136	58.0580725000473
9654.75	0.0999879000009969	7	satiated	stimuli/non_foods\non-food_animate_mouse.jpg	1	1	1	non-food_animate_mouse	0	W	16	0	131	0		0	0	58.1080808000406	58.2080687000416
9692.25	0.100004500010982	8	satiated	stimuli/non_foods\non-food_inanimate_teddy_bear.jpg	1	1	1	non-food_inanimate_teddy_bear	0	S	13	0	218	0		0	0	58.2580623000395	58.3580668000504
9729.75	0.0999859999865294	9	satiated	stimuli/foods\chocolate_chip_cookies.jpg	1	1	1	chocolate_chip_cookies	1	D	2	0	27	0		0	0	58.4080850000028	58.5080709999893
9767.25	0.0999855999834836	10	satiated	stimuli/foods\cherry.jpg	1	1	1	cherry	1	C	1	0	23	0		0	0	58.5580848000245	58.658070400008
9804.75	0.0999854999827221	11	satiated	stimuli/foods\green_beans.jpg	1	1	1	green_beans	1	L	8	0	61	0		0	0	58.7080837000394	58.8080692000221
9842.25	0.0999882000032812	12	satiated	stimuli/non_foods\non-food_animate_skunk.jpg	1	1	1	non-food_animate_skunk	0	N	10	0	147	0		0	0	58.8580817000475	58.9580699000508
9880	0.0997264999896288	13	satiated	stimuli/foods\peach.jpg	1	1	1	peach	1	L	8	0	238	0		0	0	59.0083447999787	59.1080712999683
9917.25	0.0999751000199467	14	satiated	stimuli/foods\onion.jpg	1	1	1	onion	1	F	3	0	229	0		0	0	59.1580817999784	59.2580568999983
9954.75	0.0999849000945687	15	satiated	stimuli/non_foods\non-food_animate_ant.jpg	1	1	1	non-food_animate_ant	0	Z	18	0	91	0		0	0	59.3080770999659	59.4080620000605
9992.25	0.0999475999269634	16	satiated	stimuli/non_foods\non-food_inanimate_towel.jpg	1	1	1	non-food_inanimate_towel	0	K	7	0	221	0		0	0	59.4581148000434	59.5580623999704
10029.75	0.0999783999286592	17	satiated	stimuli/foods\pork_and_rice.jpg	1	1	1	pork_and_rice	1	T	14	0	245	0		0	0	59.6080803000368	59.7080586999655
10067.25	0.099985699984245	18	satiated	stimuli/non_foods\non-food_animate_polar_bear.jpg	1	1	1	non-food_animate_polar_bear	0	V	15	0	137	0		0	0	59.7580725000007	59.858058199985
10104.75	0.0999689999734983	19	satiated	stimuli/non_foods\non-food_animate_green_bug.jpg	1	1	1	non-food_animate_green_bug	0	D	2	0	118	0		0	0	59.9080707000103	60.0080396999838
10142.25	0.100010699941777	20	satiated	stimuli/non_foods\non-food_animate_pigeon.jpg	1	1	1	non-food_animate_pigeon	0	L	8	0	136	0		0	0	60.0580721000442	60.158082799986
10179.75	0.0999751000199467	21	satiated	stimuli/non_foods\non-food_animate_bat.jpg	1	1	1	non-food_animate_bat	0	R	12	0	94	0		0	0	60.2080794000067	60.3080545000266
10217.25	0.0999888000078499	22	satiated	stimuli/non_foods\non-food_animate_dachshund.jpg	1	1	1	non-food_animate_dachshund	0	M	9	0	104	0		0	0	60.35804620001	60.4580350000178
10254.75	0.0999739000108093	23	satiated	stimuli/foods\baked_lamb_with_potatoes.jpg	1	1	1	baked_lamb_with_potatoes	1	P	11	0	8	0		0	0	60.5080585000105	60.6080324000213
10292.25	0.0999697000952438	24	satiated	stimuli/non_foods\non-food_animate_cat.jpg	1	1	1	non-food_animate_cat	0	J	6	0	98	0		0	0	60.6580645999638	60.7580343000591
10329.75	0.0999846999766305	25	satiated	stimuli/foods\spring_onions.jpg	1	1	1	spring_onions	1	C	1	0	269	0		0	0	60.8080523000099	60.9080369999865
10367.25	0.0999776999233291	26	satiated	stimuli/foods\coconut.jpg	1	1	1	coconut	1	J	6	0	33	0		0	0	60.9580537000438	61.0580313999671
10404.75	0.0999793999362737	27	satiated	stimuli/non_foods\non-food_inanimate_broom.jpg	1	1	1	non-food_inanimate_broom	0	S	13	0	164	0		0	0	61.1080526000587	61.208031999995
10442.25	0.0999918000306934	28	satiated	stimuli/foods\ginger_root.jpg	1	1	1	ginger_root	1	C	1	0	57	0		0	0	61.2580436000135	61.3580354000442
10479.75	0.0999834999674931	29	satiated	stimuli/non_foods\non-food_inanimate_suitcase.jpg	1	1	1	non-food_inanimate_suitcase	0	P	11	0	215	0		0	0	61.408047700068	61.5080312000355
10517.25	0.0999947999371216	30	satiated	stimuli/non_foods\non-food_inanimate_briefcase.jpg	1	1	1	non-food_inanimate_briefcase	0	H	5	0	163	0		0	0	61.5580415000441	61.6580362999812
10554.75	0.0999918000306934	31	satiated	stimuli/non_foods\non-food_inanimate_nest.jpg	1	1	1	non-food_inanimate_nest	0	V	15	0	196	0		0	0	61.7080492000096	61.8080410000402
10592.25	0.099956399993971	32	satiated	stimuli/foods\chilli.jpg	1	1	1	chilli	1	R	12	0	25	0		0	0	61.8580643000314	61.9580207000254
10629.75	0.100001399987377	33	satiated	stimuli/non_foods\non-food_animate_deer.jpg	1	1	1	non-food_animate_deer	0	J	6	0	105	0		0	0	62.0080414999975	62.1080428999849
10667.25	0.0999850999796763	34	satiated	stimuli/non_foods\non-food_inanimate_shell.jpg	1	1	1	non-food_inanimate_shell	0	S	13	0	206	0		0	0	62.1580464000581	62.2580315000378
10704.75	0.0999838999705389	35	satiated	stimuli/non_foods\non-food_inanimate_horn.jpg	1	1	1	non-food_inanimate_horn	0	R	12	0	190	0		0	0	62.3080447000684	62.408028600039
10742.25	0.0999863999895751	36	satiated	stimuli/non_foods\non-food_animate_iguana.jpg	1	1	1	non-food_animate_iguana	0	C	1	0	121	0		0	0	62.4580396000529	62.5580260000424
10779.75	0.0999692999757826	37	satiated	stimuli/foods\clams.jpg	1	1	1	clams	1	K	7	0	32	0		0	0	62.6080484000267	62.7080177000025
10817.25	0.0999965000664815	38	satiated	stimuli/non_foods\non-food_animate_Causasian_man.jpg	1	1	1	non-food_animate_Causasian_man	0	T	14	0	89	0		0	0	62.7580261999974	62.8580227000639
10854.75	0.0999669999582693	39	satiated	stimuli/non_foods\non-food_inanimate_couch.jpg	1	1	1	non-food_inanimate_couch	0	P	11	0	176	0		0	0	62.9080606000498	63.0080276000081
10892.25	0.0999880000017583	40	satiated	stimuli/foods\brussel_sprouts.jpg	1	1	1	brussel_sprouts	1	I	21	1	15	0		0	0	63.0580211000051	63.1580091000069
10929.75	0.0999767000321299	41	satiated	stimuli/foods\potato_chips.jpg	1	1	1	potato_chips	1	H	5	0	247	0		0	0	63.2080347000156	63.3080114000477
10967.25	0.0999816000694409	42	satiated	stimuli/non_foods\non-food_inanimate_stoplight.jpg	1	1	1	non-food_inanimate_stoplight	0	Z	18	0	214	0		0	0	63.3580238999566	63.458005500026
11004.75	0.100005500018597	43	satiated	stimuli/non_foods\non-food_animate_kangaroo.jpg	1	1	1	non-food_animate_kangaroo	0	H	5	0	122	1	a	0.541825799969956	1	63.5080218999647	63.6080273999833
11042.25	0.0999733000062406	44	satiated	stimuli/foods\fruit_salad.jpg	1	1	1	fruit_salad	1	W	16	0	55	0		0	0	63.6580425000284	63.7580158000346
11079.75	0.0999762999126688	45	satiated	stimuli/foods\roasted_chicken.jpg	1	1	1	roasted_chicken	1	J	6	0	261	0		0	0	63.8080264000455	63.9080026999582
11117.25	0.0999881000025198	46	satiated	stimuli/non_foods\non-food_inanimate_hay.jpg	1	1	1	non-food_inanimate_hay	0	S	13	0	187	0		0	0	63.9580144999782	64.0580025999807
11154.75	0.0999853000976145	47	satiated	stimuli/non_foods\non-food_inanimate_cactus_pot_plant.jpg	1	1	1	non-food_inanimate_cactus_pot_plant	0	J	6	0	169	0		0	0	64.1080251999665	64.2080105000641
11192.25	0.0999847000930458	48	satiated	stimuli/non_foods\non-food_animate_seahorse.jpg	1	1	1	non-food_animate_seahorse	0	V	15	0	145	0		0	0	64.2580214999616	64.3580062000547
11229.75	0.0999944999348372	49	satiated	stimuli/non_foods\non-food_animate_peacock.jpg	1	1	1	non-food_animate_peacock	0	M	9	0	134	0		0	0	64.4080128000351	64.5080072999699
11267.25	0.0999879000009969	50	satiated	stimuli/foods\radish.jpg	1	1	1	radish	1	W	16	0	251	0		0	0	64.5580154999625	64.6580033999635
11304.75	0.0999896000139415	51	satiated	stimuli/non_foods\non-food_inanimate_tree.jpg	1	1	1	non-food_inanimate_tree	0	T	14	0	223	0		0	0	64.7080169999972	64.8080066000111
11342.25	0.0999728000024334	52	satiated	stimuli/foods\chocolate_pudding.jpg	1	1	1	chocolate_pudding	1	W	16	0	29	0		0	0	64.8580279999878	64.9580007999903
11379.75	0.0999657999491319	53	satiated	stimuli/foods\lemon_meringue_pie.jpg	1	1	1	lemon_meringue_pie	1	H	5	0	73	0		0	0	65.0080131000141	65.1079788999632
11417.25	0.0999826999614015	54	satiated	stimuli/non_foods\non-food_animate_slug.jpg	1	1	1	non-food_animate_slug	0	W	16	0	148	0		0	0	65.1579973000335	65.2579799999949
11454.75	0.100007600034587	55	satiated	stimuli/non_foods\non-food_inanimate_padlock.jpg	1	1	1	non-food_inanimate_padlock	0	J	6	0	199	0		0	0	65.3080016999738	65.4080093000084
11492.25	0.0999752000207081	56	satiated	stimuli/foods\red_beans.jpg	1	1	1	red_beans	1	Z	18	0	255	0		0	0	65.4580168999964	65.5579921000171
11529.75	0.0999848999781534	57	satiated	stimuli/foods\pasta_carbonara.jpg	1	1	1	pasta_carbonara	1	R	12	0	236	0		0	0	65.608007300063	65.7079922000412
11567.25	0.0999857999850065	58	satiated	stimuli/non_foods\non-food_animate_hummingbird.jpg	1	1	1	non-food_animate_hummingbird	0	T	14	0	120	0		0	0	65.7580031000543	65.8579889000393
11604.75	0.0999861999880522	59	satiated	stimuli/non_foods\non-food_animate_caterpillar.jpg	1	1	1	non-food_animate_caterpillar	0	D	2	0	99	0		0	0	65.9080020000692	66.0079882000573
11642.25	0.0999863999895751	60	satiated	stimuli/foods\hamburger.jpg	1	1	1	hamburger	1	C	1	0	64	0		0	0	66.0580014999723	66.1579878999619
11679.75	0.0999889998929575	61	satiated	stimuli/foods\museli_bars.jpg	1	1	1	museli_bars	1	M	9	0	84	0		0	0	66.2079950000625	66.3079839999555
11717.25	0.0999873999971896	62	satiated	stimuli/non_foods\non-food_inanimate_grass.jpg	1	1	1	non-food_inanimate_grass	0	R	12	0	184	0		0	0	66.357993899961	66.4579812999582
11754.75	0.100000399979763	63	satiated	stimuli/foods\grapes.jpg	1	1	1	grapes	1	L	8	0	60	0		0	0	66.5079957999988	66.6079961999785
11792.25	0.0999853999819607	64	satiated	stimuli/foods\baked_cod_with_carrots_and_green_beans.jpg	1	1	1	baked_cod_with_carrots_and_green_beans	1	B	0	0	7	0		0	0	66.6579930000007	66.7579783999827
11829.75	0.0999869999941438	65	satiated	stimuli/foods\cooked_ham.jpg	1	1	1	cooked_ham	1	X	17	0	35	0		0	0	66.8079914000118	66.907978400006
11867.25	0.0999891000101343	66	satiated	stimuli/non_foods\non-food_inanimate_skirt.jpg	1	1	1	non-food_inanimate_skirt	0	H	5	0	209	0		0	0	66.957985999994	67.0579751000041
11904.75	0.0999712999910116	67	satiated	stimuli/non_foods\non-food_animate_ladybug.jpg	1	1	1	non-food_animate_ladybug	0	M	9	0	124	0		0	0	67.1079894000432	67.2079607000342
11942.25	0.0999728000024334	68	satiated	stimuli/non_foods\non-food_animate_mammoth.jpg	1	1	1	non-food_animate_mammoth	0	X	17	0	128	0		0	0	67.2580002000323	67.3579730000347
11979.75	0.0999849999789149	69	satiated	stimuli/non_foods\non-food_animate_ram.jpg	1	1	1	non-food_animate_ram	0	R	12	0	140	0		0	0	67.407985100057	67.5079701000359
12017.25	0.0999780000420287	70	satiated	stimuli/foods\spinach.jpg	1	1	1	spinach	1	J	6	0	268	0		0	0	67.5579925000202	67.6579705000622
12054.75	0.0999859999865294	71	satiated	stimuli/foods\cucumber.jpg	1	1	1	cucumber	1	M	9	0	41	0		0	0	67.7079824999673	67.8079684999539
12092.25	0.0999806999461725	72	satiated	stimuli/non_foods\non-food_inanimate_button.jpg	1	1	1	non-food_inanimate_button	0	F	3	0	168	0		0	0	67.8579765000613	67.9579572000075
12129.75	0.0999788000481203	73	satiated	stimuli/foods\omelette.jpg	1	1	1	omelette	1	R	12	0	228	0		0	0	68.0079782999819	68.10795710003
12167.25	0.0999714999925345	74	satiated	stimuli/foods\steak.jpg	1	1	1	steak	1	C	1	0	270	0		0	0	68.1579625000013	68.2579339999938
12204.75	0.0999998999759555	75	satiated	stimuli/non_foods\non-food_inanimate_bed.jpg	1	1	1	non-food_inanimate_bed	0	H	5	0	160	0		0	0	68.3079626000253	68.4079625000013
12242.25	0.0999868999933824	76	satiated	stimuli/non_foods\non-food_inanimate_watering_can.jpg	1	1	1	non-food_inanimate_watering_can	0	R	12	0	225	0		0	0	68.4579700999893	68.5579569999827
12279.75	0.0999882000032812	77	satiated	stimuli/foods\swordfish.jpg	1	1	1	swordfish	1	G	4	0	273	0		0	0	68.6079702000134	68.7079584000167
12317.25	0.0999880000017583	78	satiated	stimuli/non_foods\non-food_inanimate_protractor.jpg	1	1	1	non-food_inanimate_protractor	0	L	8	0	201	0		0	0	68.7579684000229	68.8579564000247
12354.75	0.10000780003611	79	satiated	stimuli/non_foods\non-food_inanimate_cupboard.jpg	1	1	1	non-food_inanimate_cupboard	0	F	3	0	177	0		0	0	68.9079650000203	69.0079728000565
12392.25	0.0999462000327185	80	satiated	stimuli/foods\apple.jpg	1	1	1	apple	1	B	0	0	1	0		0	0	69.0580069000134	69.1579531000461
12429.75	0.0999857999850065	81	satiated	stimuli/foods\eggplant.jpg	1	1	1	eggplant	1	P	11	0	46	0		0	0	69.2079622000456	69.3079480000306
12467.25	0.0999860999872908	82	satiated	stimuli/foods\hotdog.jpg	1	1	1	hotdog	1	S	13	0	67	0		0	0	69.3579598000506	69.4579459000379
12504.75	0.0999881000025198	83	satiated	stimuli/foods\savory_pie.jpg	1	1	1	savory_pie	1	V	15	0	265	0		0	0	69.5079611999681	69.6079492999706
12542.25	0.0999866999918595	84	satiated	stimuli/non_foods\non-food_animate_squirrel.jpg	1	1	1	non-food_animate_squirrel	0	D	2	0	150	0		0	0	69.6579550000606	69.7579417000525
12579.75	0.0999873999971896	85	satiated	stimuli/foods\kiwi.jpg	1	1	1	kiwi	1	S	13	0	69	0		0	0	69.807954799966	69.9079421999631
12617.25	0.0999855999834836	86	satiated	stimuli/foods\grapefruits.jpg	1	1	1	grapefruits	1	N	10	0	59	0		0	0	69.957955299993	70.0579408999765
12654.75	0.099969300092198	87	satiated	stimuli/foods\blackberry.jpg	1	1	1	blackberry	1	L	8	0	11	0		0	0	70.1079647999723	70.2079341000644
12692.25	0.0999787000473589	88	satiated	stimuli/foods\figs.jpg	1	1	1	figs	1	X	17	0	48	0		0	0	70.257960399962	70.3579391000094
12729.75	0.0999844999751076	89	satiated	stimuli/foods\almonds.jpg	1	1	1	almonds	1	C	1	0	0	0		0	0	70.4079491000157	70.5079335999908
12767.25	0.100001499988139	90	satiated	stimuli/foods\potato_and_green_bean_salad.jpg	1	1	1	potato_and_green_bean_salad	1	A	19	1	246	0		0	0	70.5579193000449	70.657920800033
12804.75	0.100014499970712	91	satiated	stimuli/foods\stew_with_potatoes_and_carrots.jpg	1	1	1	stew_with_potatoes_and_carrots	1	S	13	0	271	0		0	0	70.7079267000081	70.8079411999788
12842.25	0.099963300046511	92	satiated	stimuli/non_foods\non-food_inanimate_speakers.jpg	1	1	1	non-food_inanimate_speakers	0	K	7	0	212	0		0	0	70.8579657999799	70.9579291000264
12879.75	0.0999902000185102	93	satiated	stimuli/foods\tomato.jpg	1	1	1	tomato	1	W	16	0	276	0		0	0	71.0079400000395	71.107930200058
12917.25	0.0999822000740096	94	satiated	stimuli/non_foods\non-food_animate_sea_lion.jpg	1	1	1	non-food_animate_sea_lion	0	C	1	0	143	0		0	0	71.1579425999662	71.2579248000402
12954.75	0.0999931000405923	95	satiated	stimuli/non_foods\non-food_inanimate_rack.jpg	1	1	1	non-food_inanimate_rack	0	K	7	0	202	1	a	0.743316899985075	1	71.3079235999612	71.4079167000018
12992.25	0.099985699984245	96	satiated	stimuli/foods\banana.jpg	1	1	1	banana	1	G	4	0	9	0		0	0	71.4579396999907	71.5579253999749
13029.75	0.0999862999888137	97	satiated	stimuli/non_foods\non-food_animate_duck.jpg	1	1	1	non-food_animate_duck	0	X	17	0	109	0		0	0	71.6079356999835	71.7079219999723
13067.25	0.0999905000207946	98	satiated	stimuli/foods\ice_cream.jpg	1	1	1	ice_cream	1	G	4	0	68	0		0	0	71.7579308999702	71.857921399991
13104.75	0.0999739000108093	99	satiated	stimuli/non_foods\non-food_inanimate_folding_chair.jpg	1	1	1	non-food_inanimate_folding_chair	0	C	1	0	182	0		0	0	71.9079456999898	72.0079196000006
13142.25	0.0999828999629244	100	satiated	stimuli/non_foods\non-food_animate_elephant.jpg	1	1	1	non-food_animate_elephant	0	K	7	0	111	0		0	0	72.0579309000168	72.1579137999797
13179.75	0.0999885000055656	101	satiated	stimuli/foods\cannoli.jpg	1	1	1	cannoli	1	N	10	0	17	0		0	0	72.2079257000005	72.3079142000061
13217.25	0.0999838999705389	102	satiated	stimuli/non_foods\non-food_inanimate_pine_cone.jpg	1	1	1	non-food_inanimate_pine_cone	0	T	14	0	200	0		0	0	72.3579280000413	72.4579119000118
13254.75	0.100018600001931	103	satiated	stimuli/foods\cupcake.jpg	1	1	1	cupcake	1	S	13	0	42	0		0	0	72.507927800063	72.607946400065
13292.25	0.0999718999955803	104	satiated	stimuli/foods\pineapple.jpg	1	1	1	pineapple	1	W	16	0	243	0		0	0	72.6579373000422	72.7579092000378
13329.75	0.0999901000177488	105	satiated	stimuli/non_foods\non-food_inanimate_leaf.jpg	1	1	1	non-food_inanimate_leaf	0	Z	18	0	192	0		0	0	72.8079176000319	72.9079077000497
13367.25	0.0999846000922844	106	satiated	stimuli/non_foods\non-food_inanimate_skateboard.jpg	1	1	1	non-food_inanimate_skateboard	0	G	4	0	208	0		0	0	72.9579207999632	73.0579054000555
13404.75	0.0999837000854313	107	satiated	stimuli/foods\fried_calamari.jpg	1	1	1	fried_calamari	1	X	17	0	50	0		0	0	73.1079190999735	73.2079028000589
13442.25	0.0999840000877157	108	satiated	stimuli/foods\gnocchi.jpg	1	1	1	gnocchi	1	Z	18	0	58	0		0	0	73.2579157999717	73.3578998000594
13479.75	0.0999849999789149	109	satiated	stimuli/non_foods\non-food_animate_horse.jpg	1	1	1	non-food_animate_horse	0	L	8	0	119	0		0	0	73.4079151999904	73.5079001999693
13517.25	0.0999880000017583	110	satiated	stimuli/foods\dates.jpg	1	1	1	dates	1	O	22	1	43	0		0	0	73.5579109999817	73.6578989999834
13554.75	0.0999789000488818	111	satiated	stimuli/non_foods\non-food_inanimate_drum_set.jpg	1	1	1	non-food_inanimate_drum_set	0	V	15	0	179	0		0	0	73.7079213999677	73.8079003000166
13592.25	0.0999575000023469	112	satiated	stimuli/non_foods\non-food_inanimate_tulip.jpg	1	1	1	non-food_inanimate_tulip	0	R	12	0	224	0		0	0	73.8579116000328	73.9578691000352
13629.75	0.0999852999811992	113	satiated	stimuli/foods\green_olives.jpg	1	1	1	green_olives	1	G	4	0	62	0		0	0	74.0079068000196	74.1078921000008
13667.25	0.099987699999474	114	satiated	stimuli/foods\chocolate_pralines.jpg	1	1	1	chocolate_pralines	1	K	7	0	28	0		0	0	74.1579085000558	74.2578962000553
13704.75	0.099985699984245	115	satiated	stimuli/non_foods\non-food_animate_millipede.jpg	1	1	1	non-food_animate_millipede	0	M	9	0	129	0		0	0	74.3079211000586	74.4079068000428
13742.25	0.100011900067329	116	satiated	stimuli/non_foods\non-food_inanimate_tent.jpg	1	1	1	non-food_inanimate_tent	0	Z	18	0	219	0		0	0	74.4578760999721	74.5578880000394
13779.75	0.0999864999903366	117	satiated	stimuli/non_foods\non-food_inanimate_bush.jpg	1	1	1	non-food_inanimate_bush	0	T	14	0	167	0		0	0	74.6079009000678	74.7078874000581
13817.25	0.100004800013267	118	satiated	stimuli/foods\salami.jpg	1	1	1	salami	1	R	12	0	263	0		0	0	74.7578796000453	74.8578844000585
13854.75	0.0999884000048041	119	satiated	stimuli/foods\pomegranate.jpg	1	1	1	pomegranate	1	G	4	0	244	0		0	0	74.9078894000268	75.0078778000316
13892.25	0.099992600036785	120	satiated	stimuli/foods\papaya.jpg	1	1	1	papaya	1	S	13	0	235	0		0	0	75.0578778999625	75.1578704999993
13929.75	0.0999866999918595	121	satiated	stimuli/foods\brie.jpg	1	1	1	brie	1	X	17	0	12	0		0	0	75.2078870000551	75.3078737000469
13967.25	0.0999854999827221	122	satiated	stimuli/foods\capsicum.jpg	1	1	1	capsicum	1	P	11	0	18	0		0	0	75.3578953000251	75.4578808000078
14004.75	0.0999609000282362	123	satiated	stimuli/non_foods\non-food_animate_llama.jpg	1	1	1	non-food_animate_llama	0	K	7	0	127	0		0	0	75.5079088000348	75.607869700063
14042.25	0.0999918999150395	124	satiated	stimuli/non_foods\non-food_inanimate_chair.jpg	1	1	1	non-food_inanimate_chair	0	F	3	0	172	0		0	0	75.6578782000579	75.7578700999729
14079.75	0.0999803000595421	125	satiated	stimuli/foods\artichoke.jpg	1	1	1	artichoke	1	N	10	0	3	1	a	0	0	75.8078833000036	75.9078636000631
14117.25	0.100007000030018	126	satiated	stimuli/foods\beetroots.jpg	1	1	1	beetroots	1	R	12	0	10	0		0	0	75.9578743999591	76.0578813999891
14154.75	0.0999457000289112	127	satiated	stimuli/foods\mango.jpg	1	1	1	mango	1	P	11	0	80	0		0	0	76.107916799956	76.2078624999849
14192.25	0.100010400055908	128	satiated	stimuli/foods\chocolate_bar.jpg	1	1	1	chocolate_bar	1	J	6	0	26	0		0	0	76.2578565999866	76.3578670000425
14229.75	0.0999879000009969	129	satiated	stimuli/foods\lamb_chops.jpg	1	1	1	lamb_chops	1	G	4	0	70	0		0	0	76.4078770000488	76.5078649000498
14267.25	0.0999858001014218	130	satiated	stimuli/non_foods\non-food_inanimate_buds.jpg	1	1	1	non-food_inanimate_buds	0	C	1	0	166	0		0	0	76.557878499967	76.6578643000685
14304.75	0.0999870999949053	131	satiated	stimuli/foods\mushroom.jpg	1	1	1	mushroom	1	B	0	0	85	0		0	0	76.7078757999698	76.8078628999647
14342.25	0.0999892000108957	132	satiated	stimuli/non_foods\non-food_animate_eagle.jpg	1	1	1	non-food_animate_eagle	0	W	16	0	110	0		0	0	76.857874999987	76.9578641999979
14379.75	0.0999663999537006	133	satiated	stimuli/non_foods\non-food_animate_rhino.jpg	1	1	1	non-food_animate_rhino	0	B	0	0	141	0		0	0	77.0078752000118	77.1078415999655
14417.25	0.100000699982047	134	satiated	stimuli/foods\cabbage.jpg	1	1	1	cabbage	1	N	10	0	16	0		0	0	77.1578596000327	77.2578603000147
14454.75	0.0999618000350893	135	satiated	stimuli/non_foods\non-food_inanimate_fire_extinguisher.jpg	1	1	1	non-food_inanimate_fire_extinguisher	0	D	2	0	181	0		0	0	77.307886900031	77.4078487000661
14492.25	0.0999664999544621	136	satiated	stimuli/non_foods\non-food_inanimate_soccer_ball.jpg	1	1	1	non-food_inanimate_soccer_ball	0	K	7	0	210	0		0	0	77.4578562000534	77.5578227000078
14529.75	0.0999868999933824	137	satiated	stimuli/foods\lettuce.jpg	1	1	1	lettuce	1	Z	18	0	75	0		0	0	77.6078609999968	77.7078478999902
14567.25	0.0999960000626743	138	satiated	stimuli/foods\croissant.jpg	1	1	1	croissant	1	P	11	0	40	0		0	0	77.7578575999942	77.8578536000568
14604.75	0.0999591000145301	139	satiated	stimuli/foods\brownie.jpg	1	1	1	brownie	1	F	3	0	14	0		0	0	77.9078827999765	78.007841899991
17317.25	0.0999734000070021	140	satiated	stimuli/non_foods\non-food_animate_fox.jpg	1	2	1	non-food_animate_fox	0	F	3	0	112	0		0	0	88.7577405000338	88.8577139000408
17354.75	0.0999519999604672	141	satiated	stimuli/non_foods\non-food_animate_german_shepherd.jpg	1	2	1	non-food_animate_german_shepherd	0	S	13	0	114	0		0	0	88.9077628999949	89.0077148999553
17392.25	0.0999786000465974	142	satiated	stimuli/foods\avocado.jpg	1	2	1	avocado	1	W	16	0	5	0		0	0	89.0577329000225	89.1577115000691
17429.75	0.0999657999491319	143	satiated	stimuli/non_foods\non-food_animate_owl.jpg	1	2	1	non-food_animate_owl	0	C	1	0	132	0		0	0	89.2077276000055	89.3076933999546
17467.25	0.0999801000580192	144	satiated	stimuli/foods\red_cabbage.jpg	1	2	1	red_cabbage	1	W	16	0	256	0		0	0	89.357733599958	89.457713700016
17504.75	0.0999612000305206	145	satiated	stimuli/foods\cereal.jpg	1	2	1	cereal	1	R	12	0	22	0		0	0	89.5077516000019	89.6077128000325
17542.25	0.0999743000138551	146	satiated	stimuli/non_foods\non-food_animate_bee.jpg	1	2	1	non-food_animate_bee	0	N	10	0	95	0		0	0	89.6577300999779	89.7577043999918
17579.75	0.0999792000511661	147	satiated	stimuli/foods\egg.jpg	1	2	1	egg	1	M	9	0	45	0		0	0	89.8077271999791	89.9077064000303
17617.25	0.0999862999888137	148	satiated	stimuli/non_foods\non-food_animate_chicken.jpg	1	2	1	non-food_animate_chicken	0	W	16	0	101	0		0	0	89.9577141000191	90.0577004000079
17654.75	0.0999864001059905	149	satiated	stimuli/non_foods\non-food_inanimate_clover.jpg	1	2	1	non-food_inanimate_clover	0	L	8	0	174	0		0	0	90.1077189999633	90.2077054000692
17692.25	0.0999871999956667	150	satiated	stimuli/non_foods\non-food_inanimate_table.jpg	1	2	1	non-food_inanimate_table	0	K	7	0	217	0		0	0	90.2577122000512	90.3576994000468
17729.75	0.0999921000329778	151	satiated	stimuli/non_foods\non-food_animate_cow.jpg	1	2	1	non-food_animate_cow	0	H	5	0	103	0		0	0	90.4077151999809	90.5077073000139
17767.25	0.0999757999088615	152	satiated	stimuli/non_foods\non-food_inanimate_bicycle.jpg	1	2	1	non-food_inanimate_bicycle	0	S	13	0	161	0		0	0	90.5577213000506	90.6576970999595
17804.75	0.0999569999985397	153	satiated	stimuli/non_foods\non-food_animate_swan.jpg	1	2	1	non-food_animate_swan	0	J	6	0	152	0		0	0	90.7077478000429	90.8077048000414
17842.25	0.0999894000124186	154	satiated	stimuli/foods\frankfurter_and_provolone_salad.jpg	1	2	1	frankfurter_and_provolone_salad	1	W	16	0	49	0		0	0	90.8577047999715	90.957694199984
17879.75	0.0999844999751076	155	satiated	stimuli/non_foods\non-food_inanimate_desk.jpg	1	2	1	non-food_inanimate_desk	0	H	5	0	178	0		0	0	91.00770810002	91.1076925999951
17917.25	0.0999932000413537	156	satiated	stimuli/non_foods\non-food_animate_camel.jpg	1	2	1	non-food_animate_camel	0	R	12	0	97	0		0	0	91.1577007999877	91.257694000029
17954.75	0.0999999999767169	157	satiated	stimuli/foods\pepperoni_pizza.jpg	1	2	1	pepperoni_pizza	1	K	7	0	241	0		0	0	91.3077309000073	91.407730899984
17992.25	0.100007299915887	158	satiated	stimuli/non_foods\non-food_animate_dragonfly.jpg	1	2	1	non-food_animate_dragonfly	0	X	17	0	108	0		0	0	91.4576892000623	91.5576964999782
18029.75	0.0999885000055656	159	satiated	stimuli/foods\bagel.jpg	1	2	1	bagel	1	D	2	0	6	0		0	0	91.6077050999738	91.7076935999794
18067.25	0.0999870999949053	160	satiated	stimuli/non_foods\non-food_animate_lizard.jpg	1	2	1	non-food_animate_lizard	0	P	11	0	126	0		0	0	91.7577061000047	91.8576931999996
18104.75	0.099984799977392	161	satiated	stimuli/foods\oven-roasted_tomatoes.jpg	1	2	1	oven-roasted_tomatoes	1	T	14	0	232	0		0	0	91.9077079000417	92.0076927000191
18142.25	0.0999862999888137	162	satiated	stimuli/non_foods\non-food_animate_woman.jpg	1	2	1	non-food_animate_woman	0	G	4	0	154	0		0	0	92.0577006000094	92.1576868999982
18179.75	0.0999831999652088	163	satiated	stimuli/foods\grilled_chicken_breast.jpg	1	2	1	grilled_chicken_breast	1	W	16	0	63	0		0	0	92.2077040000586	92.3076872000238
18217.25	0.0999560999916866	164	satiated	stimuli/non_foods\non-food_inanimate_sun_flower.jpg	1	2	1	non-food_inanimate_sun_flower	0	L	8	0	216	0		0	0	92.35769850004	92.4576546000317
18254.75	0.0999759000260383	165	satiated	stimuli/foods\pickles.jpg	1	2	1	pickles	1	Z	18	0	242	0		0	0	92.5077013999689	92.607677299995
18292.25	0.0999846999766305	166	satiated	stimuli/non_foods\non-food_animate_monkey.jpg	1	2	1	non-food_animate_monkey	0	M	9	0	130	0		0	0	92.6576885000104	92.757673199987
18329.75	0.0999824999598786	167	satiated	stimuli/foods\meatballs.jpg	1	2	1	meatballs	1	B	0	0	81	0		0	0	92.8076891000383	92.9076715999981
18367.25	0.099991700029932	168	satiated	stimuli/foods\rice.jpg	1	2	1	rice	1	S	13	0	257	0		0	0	92.9576970000053	93.0576887000352
18404.75	0.100001999991946	169	satiated	stimuli/foods\lollies.jpg	1	2	1	lollies	1	F	3	0	78	0		0	0	93.1076758999843	93.2076778999763
18442.25	0.0999872999964282	170	satiated	stimuli/foods\toasted_bread_with_tomatoes.jpg	1	2	1	toasted_bread_with_tomatoes	1	R	12	0	275	0		0	0	93.2576912000077	93.3576785000041
18479.75	0.0999855999834836	171	satiated	stimuli/non_foods\non-food_animate_snail.jpg	1	2	1	non-food_animate_snail	0	D	2	0	149	0		0	0	93.4076903000241	93.5076759000076
18517.25	0.0999862999888137	172	satiated	stimuli/foods\lasagna.jpg	1	2	1	lasagna	1	S	13	0	71	0		0	0	93.5576858000131	93.6576721000019
18554.75	0.0999761999119073	173	satiated	stimuli/non_foods\non-food_inanimate_cap.jpg	1	2	1	non-food_inanimate_cap	0	L	8	0	171	0		0	0	93.7076867000433	93.8076628999552
18592.25	0.0999984000809491	174	satiated	stimuli/non_foods\non-food_animate_student_female.jpg	1	2	1	non-food_animate_student_female	0	C	1	0	151	0		0	0	93.857658199966	93.9576566000469
18629.75	0.099995500058867	175	satiated	stimuli/foods\raisins.jpg	1	2	1	raisins	1	S	13	0	252	0		0	0	94.0076707999688	94.1076663000276
18667.25	0.0999885998899117	176	satiated	stimuli/non_foods\non-food_animate_young_girl.jpg	1	2	1	non-food_animate_young_girl	0	W	16	0	157	0		0	0	94.157680900069	94.2576694999589
18704.75	0.0999866001075134	177	satiated	stimuli/non_foods\non-food_inanimate_jeans.jpg	1	2	1	non-food_inanimate_jeans	0	M	9	0	191	0		0	0	94.3076786999591	94.4076653000666
18742.25	0.0999881000025198	178	satiated	stimuli/foods\oyster.jpg	1	2	1	oyster	1	W	16	0	233	0		0	0	94.4576778999763	94.5576659999788
18779.75	0.0999579000053927	179	satiated	stimuli/non_foods\non-food_animate_penguin.jpg	1	2	1	non-food_animate_penguin	0	N	10	0	135	0		0	0	94.6076767999912	94.7076346999966
18817.25	0.100001099985093	180	satiated	stimuli/non_foods\non-food_animate_gorilla.jpg	1	2	1	non-food_animate_gorilla	0	L	8	0	116	0		0	0	94.7576716999756	94.8576727999607
18854.75	0.0999482000479475	181	satiated	stimuli/foods\oregano.jpg	1	2	1	oregano	1	D	2	0	231	0		0	0	94.9076994999778	95.0076477000257
18892.25	0.0999833999667317	182	satiated	stimuli/foods\garlic.jpg	1	2	1	garlic	1	B	0	0	56	0		0	0	95.0576571000274	95.1576404999942
18929.75	0.0999897998990491	183	satiated	stimuli/foods\cooked_prawn.jpg	1	2	1	cooked_prawn	1	D	2	0	36	0		0	0	95.207657800056	95.3076475999551
18967.25	0.0999934000428766	184	satiated	stimuli/foods\lemon.jpg	1	2	1	lemon	1	R	12	0	72	0		0	0	95.3576578999637	95.4576513000065
19004.75	0.099985699984245	185	satiated	stimuli/non_foods\non-food_inanimate_moss.jpg	1	2	1	non-food_inanimate_moss	0	N	10	0	194	0		0	0	95.5076634000288	95.6076491000131
19042.25	0.0999845999758691	186	satiated	stimuli/non_foods\non-food_inanimate_nettle.jpg	1	2	1	non-food_inanimate_nettle	0	R	12	0	197	0		0	0	95.657662600046	95.7576472000219
19079.75	0.0999839999713004	187	satiated	stimuli/non_foods\non-food_animate_parrot.jpg	1	2	1	non-food_animate_parrot	0	M	9	0	133	0		0	0	95.8076600000495	95.9076440000208
19117.25	0.0999840000877157	188	satiated	stimuli/non_foods\non-food_inanimate_orchid.jpg	1	2	1	non-food_inanimate_orchid	0	L	8	0	198	0		0	0	95.9576602999587	96.0576443000464
19154.75	0.0999848000938073	189	satiated	stimuli/foods\linguine_with_clams.jpg	1	2	1	linguine_with_clams	1	H	5	0	77	0		0	0	96.1076583999675	96.2076432000613
19192.25	0.0999849000945687	190	satiated	stimuli/non_foods\non-food_animate_lion.jpg	1	2	1	non-food_animate_lion	0	W	16	0	125	0		0	0	96.2576551999664	96.357640100061
19229.75	0.0999837999697775	191	satiated	stimuli/non_foods\non-food_animate_young_boy.jpg	1	2	1	non-food_animate_young_boy	0	R	12	0	156	0		0	0	96.4076557999942	96.507639599964
19267.25	0.100025300052948	192	satiated	stimuli/non_foods\non-food_animate_clown.jpg	1	2	1	non-food_animate_clown	0	N	10	0	102	0		0	0	96.5576538000023	96.6576791000552
19304.75	0.0999501999467611	193	satiated	stimuli/non_foods\non-food_animate_grasshopper.jpg	1	2	1	non-food_animate_grasshopper	0	R	12	0	117	0		0	0	96.7076838000212	96.8076339999679
19342.25	0.0999910000246018	194	satiated	stimuli/non_foods\non-food_inanimate_gloves.jpg	1	2	1	non-food_inanimate_gloves	0	B	0	0	183	0		0	0	96.8576451999834	96.957636200008
19379.75	0.0999822999583557	195	satiated	stimuli/foods\mandarin.jpg	1	2	1	mandarin	1	K	7	0	79	0		0	0	97.0076496000402	97.1076318999985
19417.25	0.0999854999827221	196	satiated	stimuli/non_foods\non-food_inanimate_ring.jpg	1	2	1	non-food_inanimate_ring	0	D	2	0	203	0		0	0	97.1576433000155	97.2576287999982
19454.75	0.0999863999895751	197	satiated	stimuli/foods\apricot.jpg	1	2	1	apricot	1	C	1	0	2	0		0	0	97.307643600041	97.4076300000306
19492.25	0.0999843999743462	198	satiated	stimuli/non_foods\non-food_animate_seal.jpg	1	2	1	non-food_animate_seal	0	Z	18	0	146	0		0	0	97.4576435000636	97.5576279000379
19529.75	0.099987699999474	199	satiated	stimuli/foods\lime.jpg	1	2	1	lime	1	S	13	0	76	0		0	0	97.6076378000434	97.7076255000429
19567.25	0.0999560999916866	200	satiated	stimuli/non_foods\non-food_inanimate_headphones.jpg	1	2	1	non-food_inanimate_headphones	0	T	14	0	188	0		0	0	97.7576651000418	97.8576212000335
19604.75	0.0999858001014218	201	satiated	stimuli/non_foods\non-food_animate_killer_whale.jpg	1	2	1	non-food_animate_killer_whale	0	D	2	0	123	0		0	0	97.9076357999584	98.0076216000598
19642.25	0.0999831999652088	202	satiated	stimuli/foods\salmon.jpg	1	2	1	salmon	1	M	9	0	264	0		0	0	98.0576372999931	98.1576204999583
19679.75	0.0999583000084385	203	satiated	stimuli/non_foods\non-food_animate_baby_sitting.jpg	1	2	1	non-food_animate_baby_sitting	0	D	2	0	93	0		0	0	98.2076367000118	98.3075950000202
19717.25	0.0999998999759555	204	satiated	stimuli/non_foods\non-food_animate_baby_crawling.jpg	1	2	1	non-food_animate_baby_crawling	0	V	15	0	92	0		0	0	98.3576211000327	98.4576210000087
19754.75	0.0999542000936344	205	satiated	stimuli/foods\pumpkin.jpg	1	2	1	pumpkin	1	T	14	0	250	0		0	0	98.5076546999626	98.6076089000562
19792.25	0.0999831999652088	206	satiated	stimuli/foods\celery.jpg	1	2	1	celery	1	R	12	0	21	0		0	0	98.6576195000671	98.7576027000323
19829.75	0.099987699999474	207	satiated	stimuli/foods\watermelon.jpg	1	2	1	watermelon	1	S	13	0	279	0		0	0	98.8076179999625	98.907605699962
19867.25	0.0999853999819607	208	satiated	stimuli/non_foods\non-food_inanimate_toilet.jpg	1	2	1	non-food_inanimate_toilet	0	C	1	0	220	0		0	0	98.9576286000665	99.0576140000485
19904.75	0.0999834999674931	209	satiated	stimuli/non_foods\non-food_inanimate_short_sleeved_shirt.jpg	1	2	1	non-food_inanimate_short_sleeved_shirt	0	H	5	0	207	0		0	0	99.10762600007	99.2076095000375
19942.25	0.0999745998997241	210	satiated	stimuli/foods\rice_cake.jpg	1	2	1	rice_cake	1	X	17	0	258	0		0	0	99.257621100056	99.3575956999557
19979.75	0.0999872999964282	211	satiated	stimuli/foods\chestnut.jpg	1	2	1	chestnut	1	L	8	0	24	0		0	0	99.4076204999583	99.5076077999547
20017.25	0.0999783000443131	212	satiated	stimuli/non_foods\non-food_animate_butterfly.jpg	1	2	1	non-food_animate_butterfly	0	N	10	0	96	0		0	0	99.5576260000234	99.6576043000678
20054.75	0.0999862999888137	213	satiated	stimuli/non_foods\non-food_inanimate_construction_helment.jpg	1	2	1	non-food_inanimate_construction_helment	0	W	16	0	175	0		0	0	99.7076178999851	99.8076041999739
20092.25	0.0999846999766305	214	satiated	stimuli/non_foods\non-food_inanimate_chandelier.jpg	1	2	1	non-food_inanimate_chandelier	0	P	11	0	173	0		0	0	99.8576149999863	99.9575996999629
20129.75	0.0999726000009105	215	satiated	stimuli/foods\prawn.jpg	1	2	1	prawn	1	W	16	0	249	0		0	0	100.007611399982	100.107583999983
20167.25	0.0999779000412673	216	satiated	stimuli/foods\fennel.jpg	1	2	1	fennel	1	B	0	0	47	0		0	0	100.157621199964	100.257599100005
20204.75	0.0999814999522641	217	satiated	stimuli/non_foods\non-food_inanimate_bamboo.jpg	1	2	1	non-food_inanimate_bamboo	0	H	5	0	159	0		0	0	100.307615000056	100.407596500008
20242.25	0.099984799977392	218	satiated	stimuli/non_foods\non-food_inanimate_fern.jpg	1	2	1	non-food_inanimate_fern	0	K	7	0	180	0		0	0	100.457609200035	100.557594000013
20279.75	0.0999915999127552	219	satiated	stimuli/non_foods\non-food_animate_runner.jpg	1	2	1	non-food_animate_runner	0	M	9	0	142	0		0	0	100.607594500063	100.707586099976
20317.25	0.0999989999691024	220	satiated	stimuli/non_foods\non-food_animate_Asian_man.jpg	1	2	1	non-food_animate_Asian_man	0	K	7	0	88	0		0	0	100.757591800066	100.857590800035
20354.75	0.0999860999872908	221	satiated	stimuli/foods\lentils.jpg	1	2	1	lentils	1	M	9	0	74	0		0	0	100.907603400061	101.007589500048
20392.25	0.0999841999728233	222	satiated	stimuli/foods\mortadella.jpg	1	2	1	mortadella	1	E	20	1	83	0		0	0	101.057600300061	101.157584500033
20429.75	0.0999846999766305	223	satiated	stimuli/non_foods\non-food_animate_cheetah.jpg	1	2	1	non-food_animate_cheetah	0	L	8	0	100	0		0	0	101.207592800027	101.307577500003
20467.25	0.0999727000016719	224	satiated	stimuli/non_foods\non-food_inanimate_hammer.jpg	1	2	1	non-food_inanimate_hammer	0	X	17	0	186	0		0	0	101.357598799979	101.457571499981
20504.75	0.0999971999553964	225	satiated	stimuli/non_foods\non-food_animate_giraffe.jpg	1	2	1	non-food_animate_giraffe	0	B	0	0	115	0		0	0	101.507586600026	101.607583799982
20542.25	0.0999880000017583	226	satiated	stimuli/foods\cream_donuts.jpg	1	2	1	cream_donuts	1	Z	18	0	39	1	a	0.691893599927425	1	101.657595199998	101.7575832
20579.75	0.0999830999644473	227	satiated	stimuli/foods\pancakes.jpg	1	2	1	pancakes	1	R	12	0	234	0		0	0	101.807594200014	101.907577299979
20617.25	0.0999702999833971	228	satiated	stimuli/foods\cracker.jpg	1	2	1	cracker	1	B	0	0	38	0		0	0	101.957597000059	102.057567300042
20654.75	0.0999731000047177	229	satiated	stimuli/non_foods\non-food_inanimate_highlighter.jpg	1	2	1	non-food_inanimate_highlighter	0	L	8	0	189	0		0	0	102.107590700034	102.207563800039
20692.25	0.0999889000086114	230	satiated	stimuli/foods\pear.jpg	1	2	1	pear	1	Z	18	0	239	0		0	0	102.257575500058	102.357564400067
20729.75	0.0999840999720618	231	satiated	stimuli/foods\honey.jpg	1	2	1	honey	1	V	15	0	66	0		0	0	102.407572200056	102.507556300028
20767.25	0.0999857999850065	232	satiated	stimuli/non_foods\non-food_inanimate_toy_airplane.jpg	1	2	1	non-food_inanimate_toy_airplane	0	Z	18	0	222	0		0	0	102.557574199978	102.657559999963
20804.75	0.0999891000101343	233	satiated	stimuli/foods\potatoes.jpg	1	2	1	potatoes	1	D	2	0	248	0		0	0	102.707574800006	102.807563900016
20842.25	0.099978500045836	234	satiated	stimuli/non_foods\non-food_inanimate_socks.jpg	1	2	1	non-food_inanimate_socks	0	Z	18	0	211	0		0	0	102.857570399996	102.957548900042
20879.75	0.0999841999728233	235	satiated	stimuli/foods\fruit_pie.jpg	1	2	1	fruit_pie	1	N	10	0	54	0		0	0	103.007572100032	103.107556300005
20917.25	0.0999623999232426	236	satiated	stimuli/non_foods\non-food_inanimate_guitar.jpg	1	2	1	non-food_inanimate_guitar	0	L	8	0	185	0		0	0	103.157584600034	103.257546999957
20954.75	0.0999661999521777	237	satiated	stimuli/non_foods\non-food_animate_sea_turtle.jpg	1	2	1	non-food_animate_sea_turtle	0	R	12	0	144	0		0	0	103.307566000032	103.407532199984
20992.25	0.0999862999888137	238	satiated	stimuli/non_foods\non-food_inanimate_rope.jpg	1	2	1	non-food_inanimate_rope	0	F	3	0	204	0		0	0	103.45757530001	103.557561599999
21029.75	0.0999894000124186	239	satiated	stimuli/non_foods\non-food_animate_donkey.jpg	1	2	1	non-food_animate_donkey	0	B	0	0	107	0		0	0	103.607571400004	103.707560800016
21067.25	0.099989700014703	240	satiated	stimuli/non_foods\non-food_inanimate_alarm_clock.jpg	1	2	1	non-food_inanimate_alarm_clock	0	P	11	0	158	0		0	0	103.757580999983	103.857570699998
21104.75	0.0999645999399945	241	satiated	stimuli/non_foods\non-food_animate_yellow_bug.jpg	1	2	1	non-food_animate_yellow_bug	0	J	6	0	155	0		0	0	103.907588600065	104.007553200005
21142.25	0.0999809999484569	242	satiated	stimuli/foods\raw_sausage.jpg	1	2	1	raw_sausage	1	S	13	0	254	0		0	0	104.057569800061	104.15755080001
21179.75	0.0999693999765441	243	satiated	stimuli/foods\cinnamon.jpg	1	2	1	cinnamon	1	H	5	0	30	0		0	0	104.207564200042	104.307533600018
21217.25	0.0999881000025198	244	satiated	stimuli/non_foods\non-food_animate_tortoise.jpg	1	2	1	non-food_animate_tortoise	0	K	7	0	153	0		0	0	104.357562400051	104.457550500054
21254.75	0.0999853000976145	245	satiated	stimuli/non_foods\non-food_inanimate_stapler.jpg	1	2	1	non-food_inanimate_stapler	0	H	5	0	213	0		0	0	104.507562199957	104.607547500054
21292.25	0.0999840000877157	246	satiated	stimuli/non_foods\non-food_inanimate_canoe.jpg	1	2	1	non-food_inanimate_canoe	0	J	6	0	170	0		0	0	104.657560099964	104.757544100052
21329.75	0.100001199985854	247	satiated	stimuli/non_foods\non-food_inanimate_bowling_ball.jpg	1	2	1	non-food_inanimate_bowling_ball	0	P	11	0	162	0		0	0	104.807558299974	104.907559499959
21367.25	0.0999716999940574	248	satiated	stimuli/foods\coffee_beans.jpg	1	2	1	coffee_beans	1	W	16	0	34	0		0	0	104.957567000063	105.057538700057
21404.75	0.0999864999903366	249	satiated	stimuli/non_foods\non-food_animate_porcupine.jpg	1	2	1	non-food_animate_porcupine	0	M	9	0	138	0		0	0	105.1075556	105.20754209999
21442.25	0.0999866999918595	250	satiated	stimuli/foods\smoked_ham.jpg	1	2	1	smoked_ham	1	R	12	0	266	0		0	0	105.257551199989	105.357537899981
21479.75	0.0999944999348372	251	satiated	stimuli/foods\nectarine.jpg	1	2	1	nectarine	1	T	14	0	87	0		0	0	105.40755210002	105.507546599954
21517.25	0.0999796000542119	252	satiated	stimuli/foods\mussels.jpg	1	2	1	mussels	1	M	9	0	86	0		0	0	105.557556699961	105.657536300016
21554.75	0.0999706999864429	253	satiated	stimuli/foods\fruit_flan.jpg	1	2	1	fruit_flan	1	R	12	0	53	0		0	0	105.707560200011	105.807530899998
21592.25	0.0999904000200331	254	satiated	stimuli/foods\orange.jpg	1	2	1	orange	1	Z	18	0	230	0		0	0	105.857545000035	105.957535400055
21629.75	0.099980799946934	255	satiated	stimuli/non_foods\non-food_inanimate_lighter.jpg	1	2	1	non-food_inanimate_lighter	0	V	15	0	193	0		0	0	106.007544900058	106.107525700005
21667.25	0.0999889000086114	256	satiated	stimuli/non_foods\non-food_inanimate_nailpolish.jpg	1	2	1	non-food_inanimate_nailpolish	0	K	7	0	195	0		0	0	106.157541000051	106.25752990006
21704.75	0.0999869001097977	257	satiated	stimuli/non_foods\non-food_animate_raccoon.jpg	1	2	1	non-food_animate_raccoon	0	U	23	1	139	0		0	0	106.307540499954	106.407527400064
21742.25	0.0999881000025198	258	satiated	stimuli/foods\risotto_with_zucchini.jpg	1	2	1	risotto_with_zucchini	1	R	12	0	260	0		0	0	106.457535900059	106.557524000062
21779.75	0.0999969000695273	259	satiated	stimuli/foods\minestrone_soup.jpg	1	2	1	minestrone_soup	1	N	10	0	82	0		0	0	106.607535899966	106.707532800036
21817.25	0.0999954000581056	260	satiated	stimuli/foods\donut.jpg	1	2	1	donut	1	H	5	0	44	1	a	0.443282300024293	1	106.757535599987	106.857531000045
21854.75	0.0999894000124186	261	satiated	stimuli/foods\corncob.jpg	1	2	1	corncob	1	X	17	0	37	0		0	0	106.907532399986	107.007521799998
21892.25	0.0999857999850065	262	satiated	stimuli/non_foods\non-food_inanimate_waterlily.jpg	1	2	1	non-food_inanimate_waterlily	0	G	4	0	226	0		0	0	107.057531400002	107.157517199987
21929.75	0.10001439996995	263	satiated	stimuli/foods\raw_ham.jpg	1	2	1	raw_ham	1	D	2	0	253	0		0	0	107.207531600026	107.307545999996
21967.25	0.0999683999689296	264	satiated	stimuli/foods\fries.jpg	1	2	1	fries	1	F	3	0	52	0		0	0	107.357543500024	107.457511899993
22004.75	0.0999883000040427	265	satiated	stimuli/foods\carrot.jpg	1	2	1	carrot	1	G	4	0	19	0		0	0	107.507525300025	107.607513600029
22042.25	0.0999522999627516	266	satiated	stimuli/foods\broccoli.jpg	1	2	1	broccoli	1	N	10	0	13	0		0	0	107.657526100054	107.757478400017
22079.75	0.0999889000086114	267	satiated	stimuli/non_foods\non-food_inanimate_bucket.jpg	1	2	1	non-food_inanimate_bucket	0	F	3	0	165	0		0	0	107.80752110004	107.907510000048
22117.25	0.0999711999902502	268	satiated	stimuli/foods\strawberry.jpg	1	2	1	strawberry	1	V	15	0	272	0		0	0	107.957521300064	108.057492500055
22154.75	0.0999963999493048	269	satiated	stimuli/foods\waffle.jpg	1	2	1	waffle	1	X	17	0	278	0		0	0	108.107510400005	108.207506799954
22192.25	0.0999824000755325	270	satiated	stimuli/foods\asparagus.jpg	1	2	1	asparagus	1	V	15	0	4	0		0	0	108.257516899961	108.357499300037
22229.75	0.0999823999591172	271	satiated	stimuli/foods\cinnamon_sroll.jpg	1	2	1	cinnamon_sroll	1	C	1	0	31	0		0	0	108.407512700069	108.507495100028
22267.25	0.0999862999888137	272	satiated	stimuli/foods\cauliflower.jpg	1	2	1	cauliflower	1	J	6	0	20	0		0	0	108.557515699998	108.657501999987
22304.75	0.100012799957767	273	satiated	stimuli/foods\peas.jpg	1	2	1	peas	1	T	14	0	240	0		0	0	108.707489400054	108.807502200012
22342.25	0.0999889000086114	274	satiated	stimuli/non_foods\non-food_inanimate_scissors.jpg	1	2	1	non-food_inanimate_scissors	0	W	16	0	205	0		0	0	108.857510500005	108.957499400014
22379.75	0.099987699999474	275	satiated	stimuli/foods\spaghetti_with_meat_sauce.jpg	1	2	1	spaghetti_with_meat_sauce	1	C	1	0	267	0		0	0	109.007510300027	109.107498000027
22417.25	0.0999667999567464	276	satiated	stimuli/non_foods\non-food_inanimate_wrench.jpg	1	2	1	non-food_inanimate_wrench	0	R	12	0	227	0		0	0	109.157524100039	109.257490899996
22454.75	0.0999469000380486	277	satiated	stimuli/foods\rockmelon.jpg	1	2	1	rockmelon	1	L	8	0	262	0		0	0	109.307546299999	109.407493200037
22492.25	0.0999872999964282	278	satiated	stimuli/non_foods\non-food_animate_alligator.jpg	1	2	1	non-food_animate_alligator	0	S	13	0	90	0		0	0	109.457501800032	109.557489100029
22529.75	0.0999853999819607	279	satiated	stimuli/foods\pea_pod.jpg	1	2	1	pea_pod	1	X	17	0	237	0		0	0	109.607503000065	109.707488400047
23375.75	0.0999802999431267	280	satiated	stimuli/non_foods\non-food_animate_woman.jpg	1	3	1	non-food_animate_woman	0	S	13	0	154	0		0	0	112.990804300061	113.090784600005
23413	0.0999674999620765	281	satiated	stimuli/non_foods\non-food_inanimate_fire_extinguisher.jpg	1	3	1	non-food_inanimate_fire_extinguisher	0	G	4	0	181	0		0	0	113.140796100022	113.240763599984
23450.5	0.0999874999979511	282	satiated	stimuli/non_foods\non-food_animate_horse.jpg	1	3	1	non-food_animate_horse	0	M	9	0	119	0		0	0	113.29079540004	113.390782900038
23488.25	0.0999490000540391	283	satiated	stimuli/foods\fruit_salad.jpg	1	3	1	fruit_salad	1	H	5	0	55	0		0	0	113.440819500014	113.540768500068
23525.5	0.0999823999591172	284	satiated	stimuli/non_foods\non-food_animate_young_girl.jpg	1	3	1	non-food_animate_young_girl	0	G	4	0	157	0		0	0	113.590798899997	113.690781299956
23563	0.0999675000784919	285	satiated	stimuli/non_foods\non-food_inanimate_jeans.jpg	1	3	1	non-food_inanimate_jeans	0	K	7	0	191	0		0	0	113.740792699973	113.840760200052
23600.5	0.0999868999933824	286	satiated	stimuli/non_foods\non-food_animate_bat.jpg	1	3	1	non-food_animate_bat	0	S	13	0	94	0		0	0	113.890779500012	113.990766400006
23638	0.0999812999507412	287	satiated	stimuli/non_foods\non-food_inanimate_toy_airplane.jpg	1	3	1	non-food_inanimate_toy_airplane	0	M	9	0	222	0		0	0	114.040794500033	114.140775799984
23675.5	0.0999727000016719	288	satiated	stimuli/foods\brownie.jpg	1	3	1	brownie	1	K	7	0	14	0		0	0	114.190795400064	114.290768100065
23713	0.0999845999758691	289	satiated	stimuli/foods\donut.jpg	1	3	1	donut	1	H	5	0	44	0		0	0	114.340781599982	114.440766199958
23750.5	0.0999769000336528	290	satiated	stimuli/foods\pumpkin.jpg	1	3	1	pumpkin	1	B	0	0	250	0		0	0	114.490781800007	114.59075870004
23788	0.0999812000663951	291	satiated	stimuli/non_foods\non-food_animate_seahorse.jpg	1	3	1	non-food_animate_seahorse	0	W	16	0	145	0		0	0	114.640772199957	114.740753400023
23825.5	0.0999841000884771	292	satiated	stimuli/non_foods\non-food_inanimate_nest.jpg	1	3	1	non-food_inanimate_nest	0	G	4	0	196	0		0	0	114.790770499967	114.890754600056
23863	0.0999686999712139	293	satiated	stimuli/foods\potato_chips.jpg	1	3	1	potato_chips	1	M	9	0	247	0		0	0	114.940777600044	115.040746300016
23900.5	0.0999976000748575	294	satiated	stimuli/foods\bagel.jpg	1	3	1	bagel	1	L	8	0	6	0		0	0	115.090764499968	115.190762100043
23938	0.0999622000381351	295	satiated	stimuli/non_foods\non-food_animate_lizard.jpg	1	3	1	non-food_animate_lizard	0	T	14	0	126	0		0	0	115.240796900005	115.340759100043
23975.5	0.0999830999644473	296	satiated	stimuli/foods\kiwi.jpg	1	3	1	kiwi	1	L	8	0	69	0		0	0	115.390771200066	115.49075430003
24013	0.099983400083147	297	satiated	stimuli/non_foods\non-food_animate_cow.jpg	1	3	1	non-food_animate_cow	0	S	13	0	103	0		0	0	115.540770699969	115.640754100052
24050.5	0.0999826000770554	298	satiated	stimuli/foods\rockmelon.jpg	1	3	1	rockmelon	1	R	12	0	262	0		0	0	115.690770699992	115.790753300069
24088	0.100005300017074	299	satiated	stimuli/non_foods\non-food_inanimate_couch.jpg	1	3	1	non-food_inanimate_couch	0	G	4	0	176	0		0	0	115.84076609998	115.940771399997
24125.75	0.0999551999848336	300	satiated	stimuli/foods\spinach.jpg	1	3	1	spinach	1	C	1	0	268	0		0	0	115.990795099991	116.090750299976
24163	0.0999833999667317	301	satiated	stimuli/foods\cucumber.jpg	1	3	1	cucumber	1	J	6	0	41	0		0	0	116.140765000018	116.240748399985
24200.5	0.0999839999713004	302	satiated	stimuli/foods\fennel.jpg	1	3	1	fennel	1	F	3	0	47	0		0	0	116.290761100012	116.390745099983
24238	0.0999779000412673	303	satiated	stimuli/non_foods\non-food_animate_ant.jpg	1	3	1	non-food_animate_ant	0	C	1	0	91	0		0	0	116.440759000019	116.54073690006
24275.5	0.0999844999751076	304	satiated	stimuli/foods\pear.jpg	1	3	1	pear	1	K	7	0	239	0		0	0	116.590752599994	116.690737099969
24313	0.0999893000116572	305	satiated	stimuli/foods\avocado.jpg	1	3	1	avocado	1	N	10	0	5	0		0	0	116.740745699964	116.840734999976
24350.5	0.0999818999553099	306	satiated	stimuli/non_foods\non-food_inanimate_broom.jpg	1	3	1	non-food_inanimate_broom	0	R	12	0	164	0		0	0	116.890750900027	116.990732799983
24388	0.0999709999887273	307	satiated	stimuli/non_foods\non-food_animate_butterfly.jpg	1	3	1	non-food_animate_butterfly	0	Z	18	0	96	0		0	0	117.040753300069	117.140724300058
24425.5	0.0999974999576807	308	satiated	stimuli/non_foods\non-food_animate_Causasian_man.jpg	1	3	1	non-food_animate_Causasian_man	0	F	3	0	89	0		0	0	117.190741099999	117.290738599957
24463	0.0999881000025198	309	satiated	stimuli/foods\fruit_pie.jpg	1	3	1	fruit_pie	1	S	13	0	54	0		0	0	117.340747599956	117.440735699958
24500.5	0.100000699982047	310	satiated	stimuli/foods\cabbage.jpg	1	3	1	cabbage	1	N	10	0	16	0		0	0	117.49074769998	117.590748399962
24538	0.0999558999901637	311	satiated	stimuli/non_foods\non-food_animate_chicken.jpg	1	3	1	non-food_animate_chicken	0	B	0	0	101	0		0	0	117.640763300005	117.740719199996
24575.5	0.0999954000581056	312	satiated	stimuli/non_foods\non-food_animate_student_female.jpg	1	3	1	non-food_animate_student_female	0	Z	18	0	151	0		0	0	117.790728299995	117.890723700053
24613	0.0999820000724867	313	satiated	stimuli/non_foods\non-food_animate_penguin.jpg	1	3	1	non-food_animate_penguin	0	V	15	0	135	0		0	0	117.940739799989	118.040721800062
24650.5	0.0999836000846699	314	satiated	stimuli/foods\red_cabbage.jpg	1	3	1	red_cabbage	1	H	5	0	256	0		0	0	118.09073419997	118.190717800055
24688	0.0999840000877157	315	satiated	stimuli/foods\brie.jpg	1	3	1	brie	1	R	12	0	12	0		0	0	118.240729899961	118.340713900048
24725.5	0.0999820000724867	316	satiated	stimuli/non_foods\non-food_inanimate_bowling_ball.jpg	1	3	1	non-food_inanimate_bowling_ball	0	D	2	0	162	0		0	0	118.390741799958	118.490723800031
24763	0.0999788999324664	317	satiated	stimuli/foods\apple.jpg	1	3	1	apple	1	N	10	0	1	0		0	0	118.54073680006	118.640715699992
24800.5	0.0999870999949053	318	satiated	stimuli/non_foods\non-food_inanimate_grass.jpg	1	3	1	non-food_inanimate_grass	0	V	15	0	184	0		0	0	118.690727600013	118.790714700008
24838	0.099969300092198	319	satiated	stimuli/foods\salmon.jpg	1	3	1	salmon	1	M	9	0	264	0		0	0	118.840748799965	118.940718100057
24875.5	0.0999875999987125	320	satiated	stimuli/non_foods\non-food_inanimate_waterlily.jpg	1	3	1	non-food_inanimate_waterlily	0	K	7	0	226	0		0	0	118.990729999961	119.09071759996
24913	0.0999782000435516	321	satiated	stimuli/non_foods\non-food_inanimate_teddy_bear.jpg	1	3	1	non-food_inanimate_teddy_bear	0	S	13	0	218	0		0	0	119.140726599959	119.240704800002
24950.5	0.100008999928832	322	satiated	stimuli/non_foods\non-food_animate_grasshopper.jpg	1	3	1	non-food_animate_grasshopper	0	T	14	0	117	0		0	0	119.290720700053	119.390729699982
24988	0.0999555999878794	323	satiated	stimuli/foods\fried_calamari.jpg	1	3	1	fried_calamari	1	G	4	0	50	0		0	0	119.440745300031	119.540700900019
25025.5	0.0999779000412673	324	satiated	stimuli/foods\mushroom.jpg	1	3	1	mushroom	1	S	13	0	85	0		0	0	119.590724600013	119.690702500055
25063	0.099994899937883	325	satiated	stimuli/non_foods\non-food_animate_ram.jpg	1	3	1	non-food_animate_ram	0	J	6	0	140	0		0	0	119.740713500069	119.840708400006
25100.5	0.0999884000048041	326	satiated	stimuli/foods\pepperoni_pizza.jpg	1	3	1	pepperoni_pizza	1	Z	18	0	241	0		0	0	119.890722500044	119.990710900049
25138	0.0999826000770554	327	satiated	stimuli/foods\spaghetti_with_meat_sauce.jpg	1	3	1	spaghetti_with_meat_sauce	1	M	9	0	267	0		0	0	120.040709899971	120.140692500048
25175.5	0.0999936000443995	328	satiated	stimuli/non_foods\non-food_animate_yellow_bug.jpg	1	3	1	non-food_animate_yellow_bug	0	G	4	0	155	0		0	0	120.190709799994	120.290703400038
25213	0.0999609999125823	329	satiated	stimuli/non_foods\non-food_inanimate_chair.jpg	1	3	1	non-food_inanimate_chair	0	V	15	0	172	0		0	0	120.34071540006	120.440676399972
25250.5	0.0999849999789149	330	satiated	stimuli/non_foods\non-food_animate_sea_turtle.jpg	1	3	1	non-food_animate_sea_turtle	0	H	5	0	144	0		0	0	120.490706900018	120.590691899997
25288	0.100006999913603	331	satiated	stimuli/non_foods\non-food_animate_seal.jpg	1	3	1	non-food_animate_seal	0	F	3	0	146	0		0	0	120.640691900044	120.740698899957
25325.5	0.0999887000070885	332	satiated	stimuli/non_foods\non-food_animate_gorilla.jpg	1	3	1	non-food_animate_gorilla	0	Z	18	0	116	0		0	0	120.79070839996	120.890697099967
25363	0.0999890000093728	333	satiated	stimuli/non_foods\non-food_animate_duck.jpg	1	3	1	non-food_animate_duck	0	L	8	0	109	0		0	0	120.940705099958	121.040694099967
25400.5	0.0999980000779033	334	satiated	stimuli/non_foods\non-food_animate_rhino.jpg	1	3	1	non-food_animate_rhino	0	W	16	0	141	0		0	0	121.090704299975	121.190702300053
25438	0.0999439000152051	335	satiated	stimuli/non_foods\non-food_animate_cheetah.jpg	1	3	1	non-food_animate_cheetah	0	S	13	0	100	0		0	0	121.240746199968	121.340690099983
25475.5	0.0999861999880522	336	satiated	stimuli/non_foods\non-food_inanimate_padlock.jpg	1	3	1	non-food_inanimate_padlock	0	F	3	0	199	0		0	0	121.390703100013	121.490689300001
25513	0.0999821999575943	337	satiated	stimuli/non_foods\non-food_inanimate_drum_set.jpg	1	3	1	non-food_inanimate_drum_set	0	I	21	1	179	0		0	0	121.540705100051	121.640687300009
25550.5	0.0999776000389829	338	satiated	stimuli/foods\grilled_chicken_breast.jpg	1	3	1	grilled_chicken_breast	1	P	11	0	63	0		0	0	121.690697200014	121.790674800053
25588	0.0999815000686795	339	satiated	stimuli/non_foods\non-food_inanimate_sun_flower.jpg	1	3	1	non-food_inanimate_sun_flower	0	B	0	0	216	0		0	0	121.840690799989	121.940672300057
25625.5	0.0999971000710502	340	satiated	stimuli/foods\wafer.jpg	1	3	1	wafer	1	M	9	0	277	1	a	0.541908200015314	1	121.990688599995	122.090685700066
25663	0.0999950000550598	341	satiated	stimuli/foods\omelette.jpg	1	3	1	omelette	1	G	4	0	228	0		0	0	122.140683699981	122.240678700036
25700.5	0.0999855999834836	342	satiated	stimuli/foods\baked_cod_with_carrots_and_green_beans.jpg	1	3	1	baked_cod_with_carrots_and_green_beans	1	M	9	0	7	0		0	0	122.290695099975	122.390680699958
25738	0.0999865001067519	343	satiated	stimuli/non_foods\non-food_inanimate_headphones.jpg	1	3	1	non-food_inanimate_headphones	0	S	13	0	188	0		0	0	122.44069009996	122.540676600067
25775.5	0.0999881000025198	344	satiated	stimuli/non_foods\non-food_inanimate_buds.jpg	1	3	1	non-food_inanimate_buds	0	L	8	0	166	0		0	0	122.590687199961	122.690675299964
25813	0.0999852999811992	345	satiated	stimuli/non_foods\non-food_inanimate_rack.jpg	1	3	1	non-food_inanimate_rack	0	P	11	0	202	0		0	0	122.740688199992	122.840673499973
25850.5	0.100005200016312	346	satiated	stimuli/non_foods\non-food_inanimate_desk.jpg	1	3	1	non-food_inanimate_desk	0	K	7	0	178	0		0	0	122.890687800013	122.990693000029
25888	0.099943200009875	347	satiated	stimuli/non_foods\non-food_animate_bee.jpg	1	3	1	non-food_animate_bee	0	D	2	0	95	0		0	0	123.040727899992	123.140671100002
25925.5	0.0999837999697775	348	satiated	stimuli/foods\cinnamon.jpg	1	3	1	cinnamon	1	W	16	0	30	0		0	0	123.190684100031	123.290667900001
25963	0.0999601000221446	349	satiated	stimuli/foods\minestrone_soup.jpg	1	3	1	minestrone_soup	1	J	6	0	82	0		0	0	123.340681000031	123.440641100053
26000.5	0.10000019997824	350	satiated	stimuli/foods\ginger_root.jpg	1	3	1	ginger_root	1	R	12	0	57	0		0	0	123.490677500027	123.590677700005
26038	0.0999846999766305	351	satiated	stimuli/foods\brussel_sprouts.jpg	1	3	1	brussel_sprouts	1	Z	18	0	15	0		0	0	123.640678600059	123.740663300036
26075.5	0.0999883000040427	352	satiated	stimuli/foods\grapefruits.jpg	1	3	1	grapefruits	1	L	8	0	59	0		0	0	123.790675900062	123.890664200066
26113	0.100007500033826	353	satiated	stimuli/foods\coffee_beans.jpg	1	3	1	coffee_beans	1	Z	18	0	34	0		0	0	123.940654100035	124.040661600069
26150.5	0.0999723999993876	354	satiated	stimuli/non_foods\non-food_animate_dachshund.jpg	1	3	1	non-food_animate_dachshund	0	I	21	1	104	0		0	0	124.090684200055	124.190656600054
26188	0.099976799916476	355	satiated	stimuli/foods\blackberry.jpg	1	3	1	blackberry	1	H	5	0	11	0		0	0	124.240679600043	124.34065639996
26225.5	0.0999820000724867	356	satiated	stimuli/non_foods\non-food_inanimate_nailpolish.jpg	1	3	1	non-food_inanimate_nailpolish	0	D	2	0	195	0		0	0	124.390670199995	124.490652200067
26263	0.0999915000284091	357	satiated	stimuli/non_foods\non-food_animate_frog.jpg	1	3	1	non-food_animate_frog	0	B	0	0	113	1	a	0.541806999943219	1	124.540667399997	124.640658900025
26300.5	0.0999862001044676	358	satiated	stimuli/non_foods\non-food_inanimate_gloves.jpg	1	3	1	non-food_inanimate_gloves	0	N	10	0	183	0		0	0	124.690674299956	124.790660500061
26338	0.0999616000335664	359	satiated	stimuli/foods\papaya.jpg	1	3	1	papaya	1	D	2	0	235	0		0	0	124.840687499964	124.940649099997
26375.5	0.0999873999971896	360	satiated	stimuli/foods\green_beans.jpg	1	3	1	green_beans	1	B	0	0	61	0		0	0	124.990661100019	125.090648500016
26413	0.0999887000070885	361	satiated	stimuli/non_foods\non-food_animate_baby_sitting.jpg	1	3	1	non-food_animate_baby_sitting	0	J	6	0	93	0		0	0	125.140659200028	125.240647900035
26450.5	0.0999839999713004	362	satiated	stimuli/non_foods\non-food_inanimate_bucket.jpg	1	3	1	non-food_inanimate_bucket	0	P	11	0	165	0		0	0	125.290659900056	125.390643900027
26488	0.0999804999446496	363	satiated	stimuli/foods\beetroots.jpg	1	3	1	beetroots	1	W	16	0	10	0		0	0	125.440658400068	125.540638900013
26525.5	0.100009700050578	364	satiated	stimuli/foods\onion.jpg	1	3	1	onion	1	G	4	0	229	0		0	0	125.590631900006	125.690641600057
26563	0.0999887000070885	365	satiated	stimuli/foods\swordfish.jpg	1	3	1	swordfish	1	K	7	0	273	0		0	0	125.740645300015	125.840634000022
26600.5	0.0999632999300957	366	satiated	stimuli/non_foods\non-food_inanimate_clover.jpg	1	3	1	non-food_inanimate_clover	0	T	14	0	174	0		0	0	125.890675500035	125.990638799965
26638	0.10000089998357	367	satiated	stimuli/foods\stew_with_potatoes_and_carrots.jpg	1	3	1	stew_with_potatoes_and_carrots	1	W	16	0	271	0		0	0	126.04062590003	126.140626800014
26675.5	0.0999833999667317	368	satiated	stimuli/foods\lemon.jpg	1	3	1	lemon	1	C	1	0	72	0		0	0	126.190643000067	126.290626400034
26713	0.0999912000261247	369	satiated	stimuli/foods\oyster.jpg	1	3	1	oyster	1	T	14	0	233	0		0	0	126.340635200031	126.440626400057
26750.5	0.0999752999050543	370	satiated	stimuli/foods\orange.jpg	1	3	1	orange	1	P	11	0	230	0		0	0	126.490650500054	126.59062579996
26788	0.0999668000731617	371	satiated	stimuli/foods\pancakes.jpg	1	3	1	pancakes	1	Z	18	0	234	0		0	0	126.640649899957	126.74061670003
26825.5	0.0999913000268862	372	satiated	stimuli/foods\honey.jpg	1	3	1	honey	1	R	12	0	66	0		0	0	126.790638000006	126.890629300033
26863	0.0999726000009105	373	satiated	stimuli/non_foods\non-food_animate_camel.jpg	1	3	1	non-food_animate_camel	0	Z	18	0	97	0		0	0	126.94063940004	127.040612000041
26900.5	0.099983699969016	374	satiated	stimuli/foods\potatoes.jpg	1	3	1	potatoes	1	C	1	0	248	0		0	0	127.090632100007	127.190615799977
26938	0.0999815999530256	375	satiated	stimuli/foods\lemon_meringue_pie.jpg	1	3	1	lemon_meringue_pie	1	K	7	0	73	0		0	0	127.240629800013	127.340611399966
26975.5	0.0999874999979511	376	satiated	stimuli/non_foods\non-food_inanimate_short_sleeved_shirt.jpg	1	3	1	non-food_inanimate_short_sleeved_shirt	0	Z	18	0	207	0		0	0	127.39062760002	127.490615100018
27013	0.099999799975194	377	satiated	stimuli/foods\red_beans.jpg	1	3	1	red_beans	1	L	8	0	255	0		0	0	127.540621399996	127.640621199971
27050.5	0.0999611999141052	378	satiated	stimuli/foods\hamburger.jpg	1	3	1	hamburger	1	M	9	0	64	0		0	0	127.690657900064	127.790619099978
27088	0.100004400010221	379	satiated	stimuli/non_foods\non-food_animate_Asian_man.jpg	1	3	1	non-food_animate_Asian_man	0	J	6	0	88	0		0	0	127.840630599996	127.940635000006
27125.5	0.0999855000991374	380	satiated	stimuli/non_foods\non-food_animate_polar_bear.jpg	1	3	1	non-food_animate_polar_bear	0	N	10	0	137	0		0	0	127.990622099955	128.090607600054
27163	0.0999812999507412	381	satiated	stimuli/non_foods\non-food_animate_runner.jpg	1	3	1	non-food_animate_runner	0	K	7	0	142	0		0	0	128.14061760006	128.240598900011
27200.5	0.0999737000092864	382	satiated	stimuli/non_foods\non-food_animate_llama.jpg	1	3	1	non-food_animate_llama	0	O	22	1	127	0		0	0	128.290640600026	128.390614300035
27238	0.0999741000123322	383	satiated	stimuli/non_foods\non-food_animate_pigeon.jpg	1	3	1	non-food_animate_pigeon	0	C	1	0	136	0		0	0	128.440632999991	128.540607100003
27275.5	0.10001540009398	384	satiated	stimuli/foods\ice_cream.jpg	1	3	1	ice_cream	1	J	6	0	68	0		0	0	128.590594899957	128.690610300051
27313	0.0999874999979511	385	satiated	stimuli/foods\toasted_bread_with_tomatoes.jpg	1	3	1	toasted_bread_with_tomatoes	1	B	0	0	275	1	a	0.54179909999948	1	128.740617000032	128.84060450003
27350.5	0.0999884000048041	386	satiated	stimuli/foods\clams.jpg	1	3	1	clams	1	J	6	0	32	0		0	0	128.890618100064	128.990606500069
27388	0.0999752000207081	387	satiated	stimuli/foods\cauliflower.jpg	1	3	1	cauliflower	1	Z	18	0	20	0		0	0	129.040626400034	129.140601600055
27425.5	0.0999939000466838	388	satiated	stimuli/non_foods\non-food_inanimate_stapler.jpg	1	3	1	non-food_inanimate_stapler	0	F	3	0	213	0		0	0	129.190605800017	129.290599700063
27463	0.099974500015378	389	satiated	stimuli/non_foods\non-food_inanimate_cactus_pot_plant.jpg	1	3	1	non-food_inanimate_cactus_pot_plant	0	D	2	0	169	0		0	0	129.340616000001	129.440590500017
27500.5	0.0999766000313684	390	satiated	stimuli/non_foods\non-food_inanimate_button.jpg	1	3	1	non-food_inanimate_button	0	M	9	0	168	0		0	0	129.490613900009	129.59059050004
27538	0.0999765999149531	391	satiated	stimuli/non_foods\non-food_inanimate_toilet.jpg	1	3	1	non-food_inanimate_toilet	0	R	12	0	220	0		0	0	129.640602500062	129.740579099976
27575.5	0.0999991000862792	392	satiated	stimuli/non_foods\non-food_inanimate_table.jpg	1	3	1	non-food_inanimate_table	0	B	0	0	217	0		0	0	129.79058739997	129.890586500056
27613	0.100007099914365	393	satiated	stimuli/non_foods\non-food_animate_skunk.jpg	1	3	1	non-food_animate_skunk	0	Z	18	0	147	0		0	0	129.940594100044	130.040601199958
27650.5	0.0999661999521777	394	satiated	stimuli/foods\savory_pie.jpg	1	3	1	savory_pie	1	M	9	0	265	0		0	0	130.090618700022	130.190584899974
27688	0.100001299986616	395	satiated	stimuli/non_foods\non-food_animate_lion.jpg	1	3	1	non-food_animate_lion	0	D	2	0	125	0		0	0	130.240588200046	130.340589500032
27725.5	0.0999869999941438	396	satiated	stimuli/non_foods\non-food_animate_eagle.jpg	1	3	1	non-food_animate_eagle	0	X	17	0	110	0		0	0	130.390599000035	130.490586000029
27763	0.0999798999400809	397	satiated	stimuli/non_foods\non-food_animate_ladybug.jpg	1	3	1	non-food_animate_ladybug	0	T	14	0	124	0		0	0	130.540600300068	130.640580200008
27800.5	0.0999885000055656	398	satiated	stimuli/foods\lasagna.jpg	1	3	1	lasagna	1	B	0	0	71	0		0	0	130.690588900005	130.79057740001
27838	0.0999940999317914	399	satiated	stimuli/foods\broccoli.jpg	1	3	1	broccoli	1	K	7	0	13	0		0	0	130.840589900035	130.940583999967
27875.5	0.0999870999949053	400	satiated	stimuli/foods\garlic.jpg	1	3	1	garlic	1	D	2	0	56	0		0	0	130.990597199998	131.090584299993
27913	0.0999895000131801	401	satiated	stimuli/foods\mortadella.jpg	1	3	1	mortadella	1	R	12	0	83	0		0	0	131.140591499978	131.240580999991
27950.5	0.0999517000745982	402	satiated	stimuli/foods\cream_donuts.jpg	1	3	1	cream_donuts	1	B	0	0	39	0		0	0	131.290618699975	131.39057040005
27988	0.0999826999614015	403	satiated	stimuli/foods\dates.jpg	1	3	1	dates	1	X	17	0	43	0		0	0	131.44058220007	131.540564900031
28025.5	0.0999912999104708	404	satiated	stimuli/non_foods\non-food_animate_peacock.jpg	1	3	1	non-food_animate_peacock	0	L	8	0	134	0		0	0	131.590577700059	131.690568999969
28063	0.100016900105402	405	satiated	stimuli/non_foods\non-food_inanimate_skateboard.jpg	1	3	1	non-food_inanimate_skateboard	0	K	7	0	208	0		0	0	131.740561299957	131.840578200063
28100.5	0.0999753000214696	406	satiated	stimuli/non_foods\non-food_animate_dolphin.jpg	1	3	1	non-food_animate_dolphin	0	W	16	0	106	0		0	0	131.890592899988	131.99056820001
28138	0.0999884000048041	407	satiated	stimuli/non_foods\non-food_inanimate_moss.jpg	1	3	1	non-food_inanimate_moss	0	R	12	0	194	0		0	0	132.04058000003	132.140568400035
28175.5	0.0999858999857679	408	satiated	stimuli/foods\green_olives.jpg	1	3	1	green_olives	1	M	9	0	62	0		0	0	132.190580200055	132.29056610004
28213	0.0999871999956667	409	satiated	stimuli/foods\meatballs.jpg	1	3	1	meatballs	1	Z	18	0	81	0		0	0	132.340577000054	132.440564200049
28250.5	0.0999859999865294	410	satiated	stimuli/non_foods\non-food_animate_clown.jpg	1	3	1	non-food_animate_clown	0	F	3	0	102	0		0	0	132.490578399971	132.590564399958
28288	0.0999851000960916	411	satiated	stimuli/non_foods\non-food_inanimate_rope.jpg	1	3	1	non-food_inanimate_rope	0	W	16	0	204	0		0	0	132.640574899968	132.740560000064
28325.5	0.0999892000108957	412	satiated	stimuli/non_foods\non-food_inanimate_fern.jpg	1	3	1	non-food_inanimate_fern	0	R	12	0	180	0		0	0	132.790569999954	132.890559199965
28363	0.0999844999751076	413	satiated	stimuli/non_foods\non-food_animate_german_shepherd.jpg	1	3	1	non-food_animate_german_shepherd	0	T	14	0	114	0		0	0	132.940573400003	133.040557899978
28400.5	0.0999901000177488	414	satiated	stimuli/foods\salami.jpg	1	3	1	salami	1	L	8	0	263	0		0	0	133.090565899969	133.190555999987
28438	0.0999893000116572	415	satiated	stimuli/foods\peach.jpg	1	3	1	peach	1	B	0	0	238	0		0	0	133.240565799992	133.340555100003
28475.5	0.0999689999734983	416	satiated	stimuli/foods\corncob.jpg	1	3	1	corncob	1	C	1	0	37	0		0	0	133.390567100025	133.490536099998
28513	0.0999970999546349	417	satiated	stimuli/non_foods\non-food_animate_porcupine.jpg	1	3	1	non-food_animate_porcupine	0	H	5	0	138	0		0	0	133.540563100018	133.640560199972
28550.5	0.0999292000196874	418	satiated	stimuli/non_foods\non-food_inanimate_bicycle.jpg	1	3	1	non-food_inanimate_bicycle	0	L	8	0	161	0		0	0	133.690609400044	133.790538600064
28588	0.0999796000542119	419	satiated	stimuli/foods\steak.jpg	1	3	1	steak	1	P	11	0	270	0		0	0	133.840555800009	133.940535400063
30192.25	0.0999806000618264	420	satiated	stimuli/foods\prawn.jpg	1	4	1	prawn	1	P	11	0	249	0		0	0	140.257164899958	140.35714550002
30229.75	0.099989700014703	421	satiated	stimuli/foods\nectarine.jpg	1	4	1	nectarine	1	M	9	0	87	0		0	0	140.407158100046	140.507147800061
30267.25	0.0999840999720618	422	satiated	stimuli/foods\capsicum.jpg	1	4	1	capsicum	1	L	8	0	18	0		0	0	140.557154000038	140.65713810001
30304.75	0.0999770999187604	423	satiated	stimuli/non_foods\non-food_inanimate_socks.jpg	1	4	1	non-food_inanimate_socks	0	D	2	0	211	0		0	0	140.70715250005	140.807129599969
30342.25	0.100001799990423	424	satiated	stimuli/foods\radish.jpg	1	4	1	radish	1	P	11	0	251	0		0	0	140.85713550006	140.957137300051
30379.75	0.099981400067918	425	satiated	stimuli/non_foods\non-food_animate_tortoise.jpg	1	4	1	non-food_animate_tortoise	0	F	3	0	153	0		0	0	141.007149399957	141.107130800025
30417.25	0.0999890000093728	426	satiated	stimuli/non_foods\non-food_inanimate_cupboard.jpg	1	4	1	non-food_inanimate_cupboard	0	M	9	0	177	0		0	0	141.157146299956	141.257135299966
30454.75	0.099953499971889	427	satiated	stimuli/foods\baked_lamb_with_potatoes.jpg	1	4	1	baked_lamb_with_potatoes	1	P	11	0	8	0		0	0	141.307153000031	141.407106500003
30492.25	0.0999863999895751	428	satiated	stimuli/foods\gnocchi.jpg	1	4	1	gnocchi	1	J	6	0	58	0		0	0	141.457144499989	141.557130899979
30529.75	0.0999744000146165	429	satiated	stimuli/foods\chilli.jpg	1	4	1	chilli	1	H	5	0	25	0		0	0	141.607154699974	141.707129099988
30567.25	0.0999729000031948	430	satiated	stimuli/non_foods\non-food_animate_swan.jpg	1	4	1	non-food_animate_swan	0	K	7	0	152	0		0	0	141.757150899968	141.857123799971
30604.75	0.0999922000337392	431	satiated	stimuli/non_foods\non-food_animate_caterpillar.jpg	1	4	1	non-food_animate_caterpillar	0	C	1	0	99	0		0	0	141.907131699962	142.007123899995
30642.25	0.100000799982809	432	satiated	stimuli/non_foods\non-food_animate_young_boy.jpg	1	4	1	non-food_animate_young_boy	0	H	5	0	156	0		0	0	142.057122000027	142.15712280001
30679.75	0.0999804999446496	433	satiated	stimuli/non_foods\non-food_inanimate_highlighter.jpg	1	4	1	non-food_inanimate_highlighter	0	Z	18	0	189	0		0	0	142.207135300036	142.30711579998
30717.25	0.0999732000054792	434	satiated	stimuli/foods\pickles.jpg	1	4	1	pickles	1	M	9	0	242	0		0	0	142.357145300019	142.457118500024
30754.75	0.0999848999781534	435	satiated	stimuli/non_foods\non-food_inanimate_horn.jpg	1	4	1	non-food_inanimate_horn	0	J	6	0	190	0		0	0	142.507125400007	142.607110299985
30792.25	0.0999835000839084	436	satiated	stimuli/foods\eggplant.jpg	1	4	1	eggplant	1	H	5	0	46	0		0	0	142.657118599978	142.757102100062
30829.75	0.0999863999895751	437	satiated	stimuli/foods\egg.jpg	1	4	1	egg	1	R	12	0	45	0		0	0	142.807120100013	142.907106500003
30867.25	0.0999899000162259	438	satiated	stimuli/foods\coconut.jpg	1	4	1	coconut	1	F	3	0	33	0		0	0	142.957114499994	143.05710440001
30904.75	0.0999891000101343	439	satiated	stimuli/foods\chestnut.jpg	1	4	1	chestnut	1	H	5	0	24	0		0	0	143.107115700026	143.207104800036
30942.25	0.0999832999659702	440	satiated	stimuli/non_foods\non-food_animate_donkey.jpg	1	4	1	non-food_animate_donkey	0	G	4	0	107	0		0	0	143.257124800002	143.357108099968
30979.75	0.0999676000792533	441	satiated	stimuli/foods\cooked_prawn.jpg	1	4	1	cooked_prawn	1	R	12	0	36	0		0	0	143.407147299964	143.507114900043
31017.25	0.0999576000031084	442	satiated	stimuli/foods\chocolate_bar.jpg	1	4	1	chocolate_bar	1	P	11	0	26	0		0	0	143.557121200021	143.657078800024
31054.75	0.100006399909034	443	satiated	stimuli/non_foods\non-food_inanimate_ring.jpg	1	4	1	non-food_inanimate_ring	0	H	5	0	203	0		0	0	143.707093100064	143.807099499973
31092.25	0.0999871999956667	444	satiated	stimuli/foods\pea_pod.jpg	1	4	1	pea_pod	1	T	14	0	237	0		0	0	143.857124099974	143.957111299969
31129.75	0.100005200016312	445	satiated	stimuli/foods\raw_sausage.jpg	1	4	1	raw_sausage	1	B	0	0	254	0		0	0	144.007124299998	144.107129500015
31167.25	0.0999746000161394	446	satiated	stimuli/non_foods\non-food_animate_hummingbird.jpg	1	4	1	non-food_animate_hummingbird	0	C	1	0	120	0		0	0	144.157125300029	144.257099900045
31204.75	0.0999809000641108	447	satiated	stimuli/non_foods\non-food_animate_elephant.jpg	1	4	1	non-food_animate_elephant	0	S	13	0	111	0		0	0	144.307113899966	144.40709480003
31242.25	0.0999850000953302	448	satiated	stimuli/foods\risotto_with_zucchini.jpg	1	4	1	risotto_with_zucchini	1	X	17	0	260	0		0	0	144.457109899959	144.557094900054
31279.75	0.0999845999758691	449	satiated	stimuli/non_foods\non-food_animate_sea_lion.jpg	1	4	1	non-food_animate_sea_lion	0	C	1	0	143	0		0	0	144.607111299993	144.707095899968
31317.25	0.0999884000048041	450	satiated	stimuli/foods\lamb_chops.jpg	1	4	1	lamb_chops	1	S	13	0	70	0		0	0	144.757105999975	144.85709439998
31354.75	0.0999882000032812	451	satiated	stimuli/non_foods\non-food_inanimate_chandelier.jpg	1	4	1	non-food_inanimate_chandelier	0	F	3	0	173	0		0	0	144.90710479999	145.007092999993
31392.25	0.0999835999682546	452	satiated	stimuli/foods\museli_bars.jpg	1	4	1	museli_bars	1	P	11	0	84	0		0	0	145.057105400017	145.157088999986
31429.75	0.0999657000647858	453	satiated	stimuli/foods\chocolate_pralines.jpg	1	4	1	chocolate_pralines	1	Z	18	0	28	0		0	0	145.207111799973	145.307077500038
31467.25	0.0999976999592036	454	satiated	stimuli/non_foods\non-food_animate_parrot.jpg	1	4	1	non-food_animate_parrot	0	J	6	0	133	0		0	0	145.357090800069	145.457088500028
31504.75	0.100004300009459	455	satiated	stimuli/foods\fried_zucchini.jpg	1	4	1	fried_zucchini	1	B	0	0	51	0		0	0	145.507072999957	145.607077299966
31542.25	0.0999841000884771	456	satiated	stimuli/non_foods\non-food_inanimate_protractor.jpg	1	4	1	non-food_inanimate_protractor	0	J	6	0	201	0		0	0	145.657086099964	145.757070200052
31579.75	0.100026600062847	457	satiated	stimuli/non_foods\non-food_inanimate_skirt.jpg	1	4	1	non-food_inanimate_skirt	0	P	11	0	209	0		0	0	145.807084599975	145.907111200038
31617.25	0.0999572000000626	458	satiated	stimuli/foods\cereal.jpg	1	4	1	cereal	1	D	2	0	22	0		0	0	145.957118500024	146.057075700024
31654.75	0.0999907999066636	459	satiated	stimuli/non_foods\non-food_inanimate_guitar.jpg	1	4	1	non-food_inanimate_guitar	0	G	4	0	185	0		0	0	146.107090400066	146.207081199973
31692.25	0.0999850999796763	460	satiated	stimuli/non_foods\non-food_inanimate_canoe.jpg	1	4	1	non-food_inanimate_canoe	0	P	11	0	170	0		0	0	146.257093699998	146.357078799978
31729.75	0.099988600006327	461	satiated	stimuli/non_foods\non-food_inanimate_alarm_clock.jpg	1	4	1	non-food_inanimate_alarm_clock	0	T	14	0	158	0		0	0	146.407087199972	146.507075799978
31767.25	0.0999855999834836	462	satiated	stimuli/foods\mussels.jpg	1	4	1	mussels	1	W	16	0	86	0		0	0	146.557088500005	146.657074099989
31804.75	0.0999793999362737	463	satiated	stimuli/non_foods\non-food_inanimate_soccer_ball.jpg	1	4	1	non-food_inanimate_soccer_ball	0	K	7	0	210	0		0	0	146.70708870003	146.807068099966
31842.25	0.100013400078751	464	satiated	stimuli/non_foods\non-food_inanimate_shell.jpg	1	4	1	non-food_inanimate_shell	0	W	16	0	206	0		0	0	146.85709429998	146.957107700058
31879.75	0.0999694999773055	465	satiated	stimuli/non_foods\non-food_animate_snail.jpg	1	4	1	non-food_animate_snail	0	S	13	0	149	0		0	0	147.007102000061	147.107071500039
31917.25	0.099972500000149	466	satiated	stimuli/non_foods\non-food_animate_dragonfly.jpg	1	4	1	non-food_animate_dragonfly	0	A	19	1	108	0		0	0	147.157079200028	147.257051700028
31954.75	0.0999746999004856	467	satiated	stimuli/non_foods\non-food_inanimate_towel.jpg	1	4	1	non-food_inanimate_towel	0	M	9	0	221	0		0	0	147.307080700062	147.407055399963
31992.25	0.0999822999583557	468	satiated	stimuli/foods\cracker.jpg	1	4	1	cracker	1	D	2	0	38	0		0	0	147.457062200061	147.557044500019
32029.75	0.0999858999857679	469	satiated	stimuli/non_foods\non-food_animate_deer.jpg	1	4	1	non-food_animate_deer	0	S	13	0	105	1	a	0.541828999994323	1	147.607083600014	147.7070695
32067.25	0.0999617000343278	470	satiated	stimuli/foods\fries.jpg	1	4	1	fries	1	N	10	0	52	0		0	0	147.757088299957	147.857049999991
32104.75	0.0999852999811992	471	satiated	stimuli/non_foods\non-food_animate_owl.jpg	1	4	1	non-food_animate_owl	0	H	5	0	132	0		0	0	147.90707299998	148.007058299961
32142.25	0.0999766000313684	472	satiated	stimuli/foods\apricot.jpg	1	4	1	apricot	1	R	12	0	2	0		0	0	148.057072099997	148.157048700028
32179.75	0.0999871999956667	473	satiated	stimuli/foods\rice.jpg	1	4	1	rice	1	X	17	0	257	0		0	0	148.207060500048	148.307047700044
32217.25	0.0999831999652088	474	satiated	stimuli/foods\chocolate_pudding.jpg	1	4	1	chocolate_pudding	1	B	0	0	29	0		0	0	148.35705500003	148.457038199995
32254.75	0.099987699999474	475	satiated	stimuli/non_foods\non-food_animate_baby_crawling.jpg	1	4	1	non-food_animate_baby_crawling	0	H	5	0	92	0		0	0	148.507056400063	148.607044100063
32292.25	0.100005800020881	476	satiated	stimuli/foods\lettuce.jpg	1	4	1	lettuce	1	S	13	0	75	0		0	0	148.657043499989	148.757049300009
32329.75	0.0999814999522641	477	satiated	stimuli/foods\grapes.jpg	1	4	1	grapes	1	C	1	0	60	0		0	0	148.807063600048	148.907045100001
32367.25	0.0999853999819607	478	satiated	stimuli/foods\roasted_chicken.jpg	1	4	1	roasted_chicken	1	K	7	0	261	0		0	0	148.95706080005	149.057046200032
32404.75	0.099956399993971	479	satiated	stimuli/non_foods\non-food_animate_millipede.jpg	1	4	1	non-food_animate_millipede	0	R	12	0	129	0		0	0	149.107057800051	149.207014200045
32442.25	0.100019800011069	480	satiated	stimuli/non_foods\non-food_animate_monkey.jpg	1	4	1	non-food_animate_monkey	0	V	15	0	130	0		0	0	149.257042699959	149.35706249997
32479.75	0.099964200053364	481	satiated	stimuli/foods\pasta_carbonara.jpg	1	4	1	pasta_carbonara	1	S	13	0	236	0		0	0	149.407069599954	149.507033800008
32517.25	0.0999854999827221	482	satiated	stimuli/foods\artichoke.jpg	1	4	1	artichoke	1	X	17	0	3	0		0	0	149.557041099994	149.657026599976
32554.75	0.0999862999888137	483	satiated	stimuli/foods\raw_ham.jpg	1	4	1	raw_ham	1	F	3	0	253	0		0	0	149.707046100055	149.807032400044
32592.25	0.0999531999696046	484	satiated	stimuli/non_foods\non-food_animate_giraffe.jpg	1	4	1	non-food_animate_giraffe	0	G	4	0	115	0		0	0	149.857049199985	149.957002399955
32629.75	0.0999859999865294	485	satiated	stimuli/foods\cinnamon_sroll.jpg	1	4	1	cinnamon_sroll	1	V	15	0	31	0		0	0	150.007047099993	150.107033099979
32667.25	0.0999839999713004	486	satiated	stimuli/non_foods\non-food_inanimate_hammer.jpg	1	4	1	non-food_inanimate_hammer	0	S	13	0	186	0		0	0	150.15704760002	150.257031599991
32704.75	0.0999843999743462	487	satiated	stimuli/non_foods\non-food_inanimate_pine_cone.jpg	1	4	1	non-food_inanimate_pine_cone	0	V	15	0	200	0		0	0	150.30704330001	150.407027699985
32742.25	0.0999875999987125	488	satiated	stimuli/foods\rice_cake.jpg	1	4	1	rice_cake	1	S	13	0	258	0		0	0	150.457044000039	150.557031600038
32779.75	0.0999857999850065	489	satiated	stimuli/non_foods\non-food_animate_iguana.jpg	1	4	1	non-food_animate_iguana	0	R	12	0	121	0		0	0	150.607042200048	150.707028000033
32817.25	0.0999871999956667	490	satiated	stimuli/foods\peas.jpg	1	4	1	peas	1	X	17	0	240	0		0	0	150.757038100041	150.857025300036
32854.75	0.099982300074771	491	satiated	stimuli/non_foods\non-food_inanimate_nettle.jpg	1	4	1	non-food_inanimate_nettle	0	K	7	0	197	0		0	0	150.90703969996	151.007022000034
32892.25	0.0999860999872908	492	satiated	stimuli/non_foods\non-food_inanimate_suitcase.jpg	1	4	1	non-food_inanimate_suitcase	0	S	13	0	215	0		0	0	151.05703580007	151.157021900057
32929.75	0.0999909000238404	493	satiated	stimuli/foods\cooked_ham.jpg	1	4	1	cooked_ham	1	Z	18	0	35	0		0	0	151.207028700039	151.307019600063
32967.25	0.0999851000960916	494	satiated	stimuli/non_foods\non-food_animate_killer_whale.jpg	1	4	1	non-food_animate_killer_whale	0	C	1	0	123	0		0	0	151.35703059996	151.457015700056
33004.75	0.0999843999743462	495	satiated	stimuli/non_foods\non-food_inanimate_cap.jpg	1	4	1	non-food_inanimate_cap	0	X	17	0	171	0		0	0	151.50703019998	151.607014599955
33042.25	0.0999782000435516	496	satiated	stimuli/foods\oven-roasted_tomatoes.jpg	1	4	1	oven-roasted_tomatoes	1	C	1	0	232	0		0	0	151.657030000002	151.757008200046
33079.75	0.0999957999447361	497	satiated	stimuli/foods\cannoli.jpg	1	4	1	cannoli	1	X	17	0	17	0		0	0	151.807018400053	151.907014199998
33117.25	0.0999770000344142	498	satiated	stimuli/non_foods\non-food_animate_mouse.jpg	1	4	1	non-food_animate_mouse	0	T	14	0	131	0		0	0	151.957025400014	152.057002400048
33154.75	0.0999857999850065	499	satiated	stimuli/non_foods\non-food_animate_green_bug.jpg	1	4	1	non-food_animate_green_bug	0	V	15	0	118	0		0	0	152.107016499969	152.207002299954
33192.25	0.0999862999888137	500	satiated	stimuli/foods\risotto_with_peas_and_asparagus_tips.jpg	1	4	1	risotto_with_peas_and_asparagus_tips	1	M	9	0	259	0		0	0	152.25701349997	152.356999799958
33229.75	0.0999840999720618	501	satiated	stimuli/foods\lollies.jpg	1	4	1	lollies	1	C	1	0	78	0		0	0	152.40701580001	152.506999899982
33267.25	0.0999904000200331	502	satiated	stimuli/non_foods\non-food_animate_alligator.jpg	1	4	1	non-food_animate_alligator	0	D	2	0	90	0		0	0	152.557005299954	152.656995699974
33304.75	0.100002699997276	503	satiated	stimuli/foods\carrot.jpg	1	4	1	carrot	1	P	11	0	19	0		0	0	152.707009000005	152.807011700002
33342.25	0.100006000022404	504	satiated	stimuli/foods\pineapple.jpg	1	4	1	pineapple	1	G	4	0	243	0		0	0	152.85701529996	152.957021299982
33379.75	0.0999674000777304	505	satiated	stimuli/non_foods\non-food_inanimate_construction_helment.jpg	1	4	1	non-food_inanimate_construction_helment	0	Z	18	0	175	0		0	0	153.007029599976	153.106997000054
33417.25	0.0999892000108957	506	satiated	stimuli/non_foods\non-food_inanimate_tree.jpg	1	4	1	non-food_inanimate_tree	0	T	14	0	223	0		0	0	153.157013299991	153.257002500002
33454.75	0.0999821999575943	507	satiated	stimuli/foods\mandarin.jpg	1	4	1	mandarin	1	N	10	0	79	0		0	0	153.307011500001	153.406993699959
33492.25	0.0999867999926209	508	satiated	stimuli/non_foods\non-food_inanimate_tulip.jpg	1	4	1	non-food_inanimate_tulip	0	L	8	0	224	0		0	0	153.457004899974	153.556991699967
33529.75	0.0999823999591172	509	satiated	stimuli/foods\croissant.jpg	1	4	1	croissant	1	P	11	0	40	0		0	0	153.607010600041	153.706993
33567.25	0.0999875999987125	510	satiated	stimuli/non_foods\non-food_inanimate_wrench.jpg	1	4	1	non-food_inanimate_wrench	0	J	6	0	227	0		0	0	153.757004000014	153.856991600012
33604.75	0.099985699984245	511	satiated	stimuli/foods\taco.jpg	1	4	1	taco	1	W	16	0	274	0		0	0	153.907006300054	154.006992000039
33642.25	0.0999706999864429	512	satiated	stimuli/foods\pork_and_rice.jpg	1	4	1	pork_and_rice	1	Z	18	0	245	0		0	0	154.057018500054	154.156989200041
33679.75	0.099984799977392	513	satiated	stimuli/non_foods\non-food_inanimate_orchid.jpg	1	4	1	non-food_inanimate_orchid	0	R	12	0	198	0		0	0	154.207001000061	154.306985800038
33717.25	0.0999866999918595	514	satiated	stimuli/foods\banana.jpg	1	4	1	banana	1	C	1	0	9	0		0	0	154.356998500065	154.456985200057
33754.75	0.0999856000998989	515	satiated	stimuli/foods\fruit_flan.jpg	1	4	1	fruit_flan	1	H	5	0	53	0		0	0	154.506997299963	154.606982900063
33792.25	0.0999893000116572	516	satiated	stimuli/foods\raisins.jpg	1	4	1	raisins	1	W	16	0	252	0		0	0	154.657008599956	154.756997899967
33829.75	0.0999638999346644	517	satiated	stimuli/non_foods\non-food_inanimate_bamboo.jpg	1	4	1	non-food_inanimate_bamboo	0	F	3	0	159	0		0	0	154.807016500039	154.906980399974
33867.25	0.0999871999956667	518	satiated	stimuli/non_foods\non-food_animate_slug.jpg	1	4	1	non-food_animate_slug	0	L	8	0	148	0		0	0	154.956989399972	155.056976599968
33904.75	0.0999860999872908	519	satiated	stimuli/foods\cherry.jpg	1	4	1	cherry	1	H	5	0	23	0		0	0	155.106990100001	155.206976199988
33942.25	0.100000299979001	520	satiated	stimuli/non_foods\non-food_animate_kangaroo.jpg	1	4	1	non-food_animate_kangaroo	0	G	4	0	122	0		0	0	155.256963100052	155.356963400031
33979.75	0.0999666000716388	521	satiated	stimuli/non_foods\non-food_inanimate_folding_chair.jpg	1	4	1	non-food_inanimate_folding_chair	0	F	3	0	182	0		0	0	155.406983299996	155.506949900067
34017.25	0.0999838999705389	522	satiated	stimuli/non_foods\non-food_inanimate_scissors.jpg	1	4	1	non-food_inanimate_scissors	0	G	4	0	205	0		0	0	155.556989500066	155.656973400037
34054.75	0.0999865001067519	523	satiated	stimuli/foods\potato_and_green_bean_salad.jpg	1	4	1	potato_and_green_bean_salad	1	X	17	0	246	0		0	0	155.706986999954	155.806973500061
34092.25	0.0999580000061542	524	satiated	stimuli/foods\figs.jpg	1	4	1	figs	1	L	8	0	48	0		0	0	155.857004599995	155.956962600001
34129.75	0.0999784000450745	525	satiated	stimuli/non_foods\non-food_animate_squirrel.jpg	1	4	1	non-food_animate_squirrel	0	M	9	0	150	0		0	0	156.006974500022	156.106952900067
34167.25	0.0999901000177488	526	satiated	stimuli/foods\asparagus.jpg	1	4	1	asparagus	1	D	2	0	4	0		0	0	156.156969100004	156.256959200022
34204.75	0.0999940999317914	527	satiated	stimuli/non_foods\non-food_inanimate_stoplight.jpg	1	4	1	non-food_inanimate_stoplight	0	J	6	0	214	0		0	0	156.306972500053	156.406966599985
34242.25	0.100005600019358	528	satiated	stimuli/foods\spring_onions.jpg	1	4	1	spring_onions	1	C	1	0	269	0		0	0	156.456982000032	156.556987600052
34279.75	0.0999603999080136	529	satiated	stimuli/non_foods\non-food_inanimate_bush.jpg	1	4	1	non-food_inanimate_bush	0	P	11	0	167	0		0	0	156.606998200063	156.706958599971
34317.25	0.099986599991098	530	satiated	stimuli/foods\watermelon.jpg	1	4	1	watermelon	1	L	8	0	279	0		0	0	156.756972400006	156.856958999997
34354.75	0.0999866999918595	531	satiated	stimuli/non_foods\non-food_animate_cat.jpg	1	4	1	non-food_animate_cat	0	X	17	0	98	0		0	0	156.906970000011	157.006956700003
34392.25	0.0999885000055656	532	satiated	stimuli/non_foods\non-food_animate_raccoon.jpg	1	4	1	non-food_animate_raccoon	0	P	11	0	139	0		0	0	157.056965600001	157.156954100006
34429.75	0.0999854999827221	533	satiated	stimuli/non_foods\non-food_inanimate_leaf.jpg	1	4	1	non-food_inanimate_leaf	0	V	15	0	192	0		0	0	157.206968300045	157.306953800027
34467.25	0.0999882000032812	534	satiated	stimuli/foods\celery.jpg	1	4	1	celery	1	J	6	0	21	0		0	0	157.356966200052	157.456954400055
34504.75	0.100008099921979	535	satiated	stimuli/non_foods\non-food_inanimate_hay.jpg	1	4	1	non-food_inanimate_hay	0	Z	18	0	187	0		0	0	157.506963700056	157.606971799978
34542.25	0.0999751000199467	536	satiated	stimuli/non_foods\non-food_inanimate_lighter.jpg	1	4	1	non-food_inanimate_lighter	0	O	22	1	193	0		0	0	157.656972600031	157.756947700051
34579.75	0.0999881000025198	537	satiated	stimuli/foods\frankfurter_and_provolone_salad.jpg	1	4	1	frankfurter_and_provolone_salad	1	T	14	0	49	0		0	0	157.806957900058	157.906946000061
34617.25	0.0999875999987125	538	satiated	stimuli/foods\waffle.jpg	1	4	1	waffle	1	J	6	0	278	0		0	0	157.956958399969	158.056945999968
34654.75	0.0999941000482067	539	satiated	stimuli/non_foods\non-food_animate_mammoth.jpg	1	4	1	non-food_animate_mammoth	0	W	16	0	128	1	a	0.450157899991609	1	158.106953899958	158.206948000006
34692.25	0.0999879000009969	540	satiated	stimuli/foods\cupcake.jpg	1	4	1	cupcake	1	L	8	0	42	0		0	0	158.256943900022	158.356931800023
34729.75	0.0999759000260383	541	satiated	stimuli/foods\hazelnuts.jpg	1	4	1	hazelnuts	1	K	7	0	65	0		0	0	158.406956300023	158.506932200049
34767.25	0.0999986999668181	542	satiated	stimuli/foods\lime.jpg	1	4	1	lime	1	D	2	0	76	0		0	0	158.556940500042	158.656939200009
34804.75	0.0999879000009969	543	satiated	stimuli/foods\pomegranate.jpg	1	4	1	pomegranate	1	G	4	0	244	0		0	0	158.706950100022	158.806938000023
34842.25	0.0999931000405923	544	satiated	stimuli/foods\almonds.jpg	1	4	1	almonds	1	Z	18	0	0	0		0	0	158.856941599981	158.956934700022
34879.75	0.0999885000055656	545	satiated	stimuli/foods\oregano.jpg	1	4	1	oregano	1	T	14	0	231	0		0	0	159.006944800029	159.106933300034
34917.25	0.0999656000640243	546	satiated	stimuli/foods\linguine_with_clams.jpg	1	4	1	linguine_with_clams	1	W	16	0	77	0		0	0	159.156948599964	159.256914200028
34954.75	0.100005000014789	547	satiated	stimuli/foods\chocolate_chip_cookies.jpg	1	4	1	chocolate_chip_cookies	1	K	7	0	27	0		0	0	159.306940100039	159.406945100054
34992.25	0.0999712001066655	548	satiated	stimuli/non_foods\non-food_inanimate_tent.jpg	1	4	1	non-food_inanimate_tent	0	D	2	0	219	0		0	0	159.456956999958	159.556928200065
35029.75	0.0999915999127552	549	satiated	stimuli/foods\tomato.jpg	1	4	1	tomato	1	W	16	0	276	0		0	0	159.606937000062	159.706928599975
35067.25	0.0999903000192717	550	satiated	stimuli/foods\hotdog.jpg	1	4	1	hotdog	1	C	1	0	67	0		0	0	159.75693579996	159.856926099979
35104.75	0.0999924000352621	551	satiated	stimuli/non_foods\non-food_inanimate_speakers.jpg	1	4	1	non-food_inanimate_speakers	0	Z	18	0	212	0		0	0	159.906937199994	160.006929600029
35142.25	0.0999599000206217	552	satiated	stimuli/foods\strawberry.jpg	1	4	1	strawberry	1	D	2	0	272	0		0	0	160.056963299983	160.156923200004
35179.75	0.100011499947868	553	satiated	stimuli/foods\lentils.jpg	1	4	1	lentils	1	H	5	0	74	0		0	0	160.206908800057	160.306920300005
35217.25	0.0999799999408424	554	satiated	stimuli/non_foods\non-food_animate_fox.jpg	1	4	1	non-food_animate_fox	0	R	12	0	112	0		0	0	160.35693670006	160.456916700001
35254.75	0.0999880000017583	555	satiated	stimuli/non_foods\non-food_inanimate_watering_can.jpg	1	4	1	non-food_inanimate_watering_can	0	H	5	0	225	0		0	0	160.506930100033	160.606918100035
35292.25	0.0999851999804378	556	satiated	stimuli/non_foods\non-food_inanimate_bed.jpg	1	4	1	non-food_inanimate_bed	0	F	3	0	160	0		0	0	160.656929600053	160.756914800033
35329.75	0.0999831999652088	557	satiated	stimuli/foods\mango.jpg	1	4	1	mango	1	P	11	0	80	0		0	0	160.806928300066	160.906911500031
35367.25	0.0999835000839084	558	satiated	stimuli/non_foods\non-food_inanimate_briefcase.jpg	1	4	1	non-food_inanimate_briefcase	0	C	1	0	163	0		0	0	160.956929399981	161.056912900065
35404.75	0.0999853999819607	559	satiated	stimuli/foods\smoked_ham.jpg	1	4	1	smoked_ham	1	R	12	0	266	0		0	0	161.106922600069	161.206908000051
36142.25	0.0999751000199467	560	satiated	stimuli/foods\hazelnuts.jpg	1	5	1	hazelnuts	1	H	5	0	65	0		0	0	164.056899599964	164.156874699984
36179.75	0.099982799962163	561	satiated	stimuli/foods\mussels.jpg	1	5	1	mussels	1	S	13	0	86	0		0	0	164.206891000038	164.3068738
36217.25	0.0999832999659702	562	satiated	stimuli/foods\pomegranate.jpg	1	5	1	pomegranate	1	B	0	0	244	0		0	0	164.356889400049	164.456872700015
36254.75	0.0999783999286592	563	satiated	stimuli/non_foods\non-food_inanimate_highlighter.jpg	1	5	1	non-food_inanimate_highlighter	0	V	15	0	189	0		0	0	164.506886300049	164.606864699977
36292.25	0.099982300074771	564	satiated	stimuli/non_foods\non-food_animate_kangaroo.jpg	1	5	1	non-food_animate_kangaroo	0	W	16	0	122	0		0	0	164.656874999986	164.756857300061
36329.75	0.100015599979088	565	satiated	stimuli/non_foods\non-food_inanimate_grass.jpg	1	5	1	non-food_inanimate_grass	0	D	2	0	184	0		0	0	164.806886999984	164.906902599963
36367.25	0.0999849999789149	566	satiated	stimuli/foods\stew_with_potatoes_and_carrots.jpg	1	5	1	stew_with_potatoes_and_carrots	1	F	3	0	271	0		0	0	164.956883599982	165.056868599961
36404.75	0.0999821999575943	567	satiated	stimuli/foods\egg.jpg	1	5	1	egg	1	K	7	0	45	0		0	0	165.106883300003	165.20686549996
36442.25	0.0999884000048041	568	satiated	stimuli/foods\risotto_with_peas_and_asparagus_tips.jpg	1	5	1	risotto_with_peas_and_asparagus_tips	1	Z	18	0	259	0		0	0	165.256878499989	165.356866899994
36479.75	0.0999731998890638	569	satiated	stimuli/non_foods\non-food_inanimate_bamboo.jpg	1	5	1	non-food_inanimate_bamboo	0	N	10	0	159	0		0	0	165.406885500066	165.506858699955
36517.25	0.0999743000138551	570	satiated	stimuli/foods\pineapple.jpg	1	5	1	pineapple	1	J	6	0	243	0		0	0	165.556873900001	165.656848200015
36554.75	0.0999823999591172	571	satiated	stimuli/foods\fruit_flan.jpg	1	5	1	fruit_flan	1	Z	18	0	53	0		0	0	165.706877400051	165.80685980001
36592.25	0.0999859999865294	572	satiated	stimuli/non_foods\non-food_inanimate_horn.jpg	1	5	1	non-food_inanimate_horn	0	I	21	1	190	0		0	0	165.856860700063	165.95684670005
36629.75	0.0999875999987125	573	satiated	stimuli/foods\fennel.jpg	1	5	1	fennel	1	R	12	0	47	0		0	0	166.006869100034	166.106856700033
36667.25	0.0999848999781534	574	satiated	stimuli/foods\peach.jpg	1	5	1	peach	1	B	0	0	238	0		0	0	166.156868500053	166.256853400031
36704.75	0.099987699999474	575	satiated	stimuli/foods\pork_and_rice.jpg	1	5	1	pork_and_rice	1	P	11	0	245	0		0	0	166.306866100058	166.406853800057
36742.25	0.100004199892282	576	satiated	stimuli/foods\broccoli.jpg	1	5	1	broccoli	1	N	10	0	13	0		0	0	166.456848800066	166.556852999958
36779.75	0.0999739000108093	577	satiated	stimuli/foods\beetroots.jpg	1	5	1	beetroots	1	L	8	0	10	1	a	0.743226099992171	1	166.606873800047	166.706847700058
36817.25	0.0999887000070885	578	satiated	stimuli/non_foods\non-food_animate_cheetah.jpg	1	5	1	non-food_animate_cheetah	0	J	6	0	100	0		0	0	166.756861399976	166.856850099983
36854.75	0.099986599991098	579	satiated	stimuli/foods\omelette.jpg	1	5	1	omelette	1	K	7	0	228	0		0	0	166.9068615	167.006848099991
36892.25	0.0999875999987125	580	satiated	stimuli/non_foods\non-food_animate_Causasian_man.jpg	1	5	1	non-food_animate_Causasian_man	0	H	5	0	89	0		0	0	167.056857999996	167.156845599995
36929.75	0.0999868999933824	581	satiated	stimuli/foods\pea_pod.jpg	1	5	1	pea_pod	1	G	4	0	237	0		0	0	167.206876200042	167.306863100035
36967.25	0.0999555999878794	582	satiated	stimuli/non_foods\non-food_inanimate_desk.jpg	1	5	1	non-food_inanimate_desk	0	J	6	0	178	0		0	0	167.356885300018	167.456840900006
37004.75	0.0999885000055656	583	satiated	stimuli/non_foods\non-food_inanimate_socks.jpg	1	5	1	non-food_inanimate_socks	0	V	15	0	211	0		0	0	167.50685200002	167.606840500026
37042.25	0.0999831999652088	584	satiated	stimuli/foods\figs.jpg	1	5	1	figs	1	C	1	0	48	0		0	0	167.656854400062	167.756837600027
37079.75	0.0999835999682546	585	satiated	stimuli/foods\pear.jpg	1	5	1	pear	1	H	5	0	239	0		0	0	167.806850100053	167.906833700021
37117.25	0.0999674999620765	586	satiated	stimuli/non_foods\non-food_inanimate_moss.jpg	1	5	1	non-food_inanimate_moss	0	M	9	0	194	0		0	0	167.956844600034	168.056812099996
37154.75	0.0999848999781534	587	satiated	stimuli/foods\smoked_ham.jpg	1	5	1	smoked_ham	1	F	3	0	266	0		0	0	168.106849399977	168.206834299956
37192.25	0.099988600006327	588	satiated	stimuli/non_foods\non-food_animate_ladybug.jpg	1	5	1	non-food_animate_ladybug	0	M	9	0	124	0		0	0	168.256844299962	168.356832899968
37229.75	0.0999852999811992	589	satiated	stimuli/non_foods\non-food_inanimate_pine_cone.jpg	1	5	1	non-food_inanimate_pine_cone	0	R	12	0	200	0		0	0	168.406847900013	168.506833199994
37267.25	0.0999843999743462	590	satiated	stimuli/non_foods\non-food_animate_rhino.jpg	1	5	1	non-food_animate_rhino	0	P	11	0	141	0		0	0	168.556843099999	168.656827499974
37304.75	0.0999868999933824	591	satiated	stimuli/foods\avocado.jpg	1	5	1	avocado	1	M	9	0	5	0		0	0	168.706839999999	168.806826899992
37342.25	0.0999927000375465	592	satiated	stimuli/foods\onion.jpg	1	5	1	onion	1	J	6	0	229	0		0	0	168.856838600012	168.956831300049
37379.75	0.099983400083147	593	satiated	stimuli/non_foods\non-food_inanimate_speakers.jpg	1	5	1	non-food_inanimate_speakers	0	B	0	0	212	0		0	0	169.006828399957	169.10681180004
37417.25	0.099998600082472	594	satiated	stimuli/non_foods\non-food_animate_dragonfly.jpg	1	5	1	non-food_animate_dragonfly	0	F	3	0	108	0		0	0	169.156825599959	169.256824200042
37454.75	0.0999835999682546	595	satiated	stimuli/non_foods\non-food_inanimate_shell.jpg	1	5	1	non-food_inanimate_shell	0	K	7	0	206	0		0	0	169.306831100024	169.406814699993
37492.25	0.0999789999332279	596	satiated	stimuli/foods\apricot.jpg	1	5	1	apricot	1	R	12	0	2	0		0	0	169.456831300049	169.556810299982
37529.75	0.0999827000778168	597	satiated	stimuli/foods\potatoes.jpg	1	5	1	potatoes	1	M	9	0	248	0		0	0	169.606834899983	169.706817600061
37567.25	0.0999752999050543	598	satiated	stimuli/foods\pumpkin.jpg	1	5	1	pumpkin	1	T	14	0	250	0		0	0	169.756827200064	169.856802499969
37604.75	0.0999904999043792	599	satiated	stimuli/non_foods\non-food_animate_donkey.jpg	1	5	1	non-food_animate_donkey	0	J	6	0	107	0		0	0	169.906823900063	170.006814399967
37642.25	0.0999962000641972	600	satiated	stimuli/non_foods\non-food_animate_swan.jpg	1	5	1	non-food_animate_swan	0	G	4	0	152	0		0	0	170.056824299973	170.156820500037
37679.75	0.0999823999591172	601	satiated	stimuli/foods\cream_donuts.jpg	1	5	1	cream_donuts	1	D	2	0	39	0		0	0	170.206826600013	170.306808999972
37717.25	0.0999878000002354	602	satiated	stimuli/non_foods\non-food_animate_monkey.jpg	1	5	1	non-food_animate_monkey	0	M	9	0	130	0		0	0	170.35682310001	170.45681090001
37754.75	0.0999615000328049	603	satiated	stimuli/non_foods\non-food_animate_llama.jpg	1	5	1	non-food_animate_llama	0	T	14	0	127	0		0	0	170.506820300012	170.606781800045
37792.25	0.100024900049902	604	satiated	stimuli/non_foods\non-food_animate_horse.jpg	1	5	1	non-food_animate_horse	0	P	11	0	119	0		0	0	170.656798099983	170.756823000032
37829.75	0.0999686999712139	605	satiated	stimuli/foods\croissant.jpg	1	5	1	croissant	1	T	14	0	40	0		0	0	170.806836400065	170.906805100036
37867.25	0.0999869999941438	606	satiated	stimuli/non_foods\non-food_inanimate_rack.jpg	1	5	1	non-food_inanimate_rack	0	L	8	0	202	0		0	0	170.95680210006	171.056789100054
37904.75	0.0999746000161394	607	satiated	stimuli/foods\salami.jpg	1	5	1	salami	1	V	15	0	263	0		0	0	171.106810300029	171.206784900045
37942.25	0.100012300070375	608	satiated	stimuli/foods\radish.jpg	1	5	1	radish	1	G	4	0	251	0		0	0	171.256784399971	171.356796700042
37979.75	0.0999845000915229	609	satiated	stimuli/foods\hotdog.jpg	1	5	1	hotdog	1	X	17	0	67	0		0	0	171.406811499968	171.50679600006
38017.25	0.0999846000922844	610	satiated	stimuli/non_foods\non-food_animate_killer_whale.jpg	1	5	1	non-food_animate_killer_whale	0	F	3	0	123	0		0	0	171.556809199974	171.656793800066
38054.75	0.099988600006327	611	satiated	stimuli/non_foods\non-food_inanimate_drum_set.jpg	1	5	1	non-food_inanimate_drum_set	0	G	4	0	179	0		0	0	171.706804999965	171.806793599972
38092.25	0.0999922000337392	612	satiated	stimuli/non_foods\non-food_animate_dolphin.jpg	1	5	1	non-food_animate_dolphin	0	R	12	0	106	0		0	0	171.856802899973	171.956795100006
38129.75	0.0999822999583557	613	satiated	stimuli/non_foods\non-food_animate_porcupine.jpg	1	5	1	non-food_animate_porcupine	0	X	17	0	138	0		0	0	172.006805600016	172.106787899975
38167.25	0.0999901000177488	614	satiated	stimuli/non_foods\non-food_inanimate_broom.jpg	1	5	1	non-food_inanimate_broom	0	S	13	0	164	0		0	0	172.156797899981	172.256787999999
38204.75	0.0999819999560714	615	satiated	stimuli/non_foods\non-food_animate_giraffe.jpg	1	5	1	non-food_animate_giraffe	0	K	7	0	115	0		0	0	172.306802100036	172.406784099992
38242.25	0.099955299985595	616	satiated	stimuli/non_foods\non-food_animate_iguana.jpg	1	5	1	non-food_animate_iguana	0	W	16	0	121	0		0	0	172.456800300046	172.556755600031
38279.75	0.0999658000655472	617	satiated	stimuli/non_foods\non-food_inanimate_orchid.jpg	1	5	1	non-food_inanimate_orchid	0	A	19	1	198	0		0	0	172.606816399959	172.706782200024
38317.25	0.0999842999735847	618	satiated	stimuli/non_foods\non-food_animate_seal.jpg	1	5	1	non-food_animate_seal	0	N	10	0	146	0		0	0	172.756794500048	172.856778800022
38354.75	0.0999880000017583	619	satiated	stimuli/foods\spring_onions.jpg	1	5	1	spring_onions	1	F	3	0	269	0		0	0	172.906792200054	173.006780200056
38392.25	0.0999870001105592	620	satiated	stimuli/foods\cracker.jpg	1	5	1	cracker	1	N	10	0	38	1	a	0.541804700042121	1	173.056791299954	173.156778300065
38429.75	0.0999856000998989	621	satiated	stimuli/foods\banana.jpg	1	5	1	banana	1	D	2	0	9	0		0	0	173.206790099968	173.306775700068
38467.25	0.0999891000101343	622	satiated	stimuli/non_foods\non-food_animate_deer.jpg	1	5	1	non-food_animate_deer	0	V	15	0	105	0		0	0	173.35678599996	173.45677509997
38504.75	0.0999851999804378	623	satiated	stimuli/foods\peas.jpg	1	5	1	peas	1	K	7	0	240	0		0	0	173.506785399979	173.606770599959
38542.25	0.0999870999949053	624	satiated	stimuli/foods\waffle.jpg	1	5	1	waffle	1	W	16	0	278	0		0	0	173.656782999984	173.756770099979
38579.75	0.0999742000130937	625	satiated	stimuli/non_foods\non-food_animate_young_girl.jpg	1	5	1	non-food_animate_young_girl	0	R	12	0	157	0		0	0	173.806786400033	173.906760600046
38617.25	0.0999851999804378	626	satiated	stimuli/non_foods\non-food_inanimate_wrench.jpg	1	5	1	non-food_inanimate_wrench	0	J	6	0	227	0		0	0	173.956771300058	174.056756500038
38654.75	0.0999870999949053	627	satiated	stimuli/foods\oven-roasted_tomatoes.jpg	1	5	1	oven-roasted_tomatoes	1	T	14	0	232	0		0	0	174.10678250005	174.206769600045
38692.25	0.0999866999918595	628	satiated	stimuli/foods\lemon_meringue_pie.jpg	1	5	1	lemon_meringue_pie	1	K	7	0	73	0		0	0	174.256779000047	174.356765700039
38729.75	0.09994459990412	629	satiated	stimuli/non_foods\non-food_inanimate_skirt.jpg	1	5	1	non-food_inanimate_skirt	0	V	15	0	209	0		0	0	174.40679300006	174.506737599964
38767.25	0.0999888000078499	630	satiated	stimuli/foods\chocolate_pralines.jpg	1	5	1	chocolate_pralines	1	D	2	0	28	0		0	0	174.556774100056	174.656762900064
38804.75	0.0999868001090363	631	satiated	stimuli/non_foods\non-food_animate_bat.jpg	1	5	1	non-food_animate_bat	0	R	12	0	94	0		0	0	174.706773099955	174.806759900064
38842.25	0.0999883000040427	632	satiated	stimuli/non_foods\non-food_inanimate_bed.jpg	1	5	1	non-food_inanimate_bed	0	T	14	0	160	0		0	0	174.856769999955	174.956758299959
38879.75	0.0999811999499798	633	satiated	stimuli/non_foods\non-food_animate_hummingbird.jpg	1	5	1	non-food_animate_hummingbird	0	N	10	0	120	0		0	0	175.006773900008	175.106755099958
38917.25	0.0999835999682546	634	satiated	stimuli/non_foods\non-food_animate_clown.jpg	1	5	1	non-food_animate_clown	0	M	9	0	102	0		0	0	175.156770000001	175.25675359997
38954.75	0.0999900000169873	635	satiated	stimuli/foods\clams.jpg	1	5	1	clams	1	V	15	0	32	0		0	0	175.306764999987	175.406755000004
38992.25	0.0999711999902502	636	satiated	stimuli/foods\raw_sausage.jpg	1	5	1	raw_sausage	1	L	8	0	254	0		0	0	175.456777799991	175.556748999981
