onset	duration	eventnumber	hunger_condition	stimfilename	blockno	trialno	is_faststream	stim	food_idx	letter	letter_idx	istarget	image_number	response	keypressed	rt	correct	time_stimon	time_stimoff
4891	0.0999884000048041	0	satiated	stimuli/foods\mussels.jpg	1	1	1	mussels	1	T	14	0	86	0		0	0	33.046643699985	33.1466320999898
4928.5	0.100037300027907	1	satiated	stimuli/non_foods\non-food_animate_millipede.jpg	1	1	1	non-food_animate_millipede	0	G	4	0	129	0		0	0	33.1966615002602	33.2966988002881
4966	0.0999729000031948	2	satiated	stimuli/foods\spring_onions.jpg	1	1	1	spring_onions	1	M	9	0	269	0		0	0	33.3466628002934	33.4466357002966
5003.5	0.0999867999926209	3	satiated	stimuli/foods\figs.jpg	1	1	1	figs	1	V	15	0	48	0		0	0	33.4966442002915	33.5966310002841
5041	0.0999837997369468	4	satiated	stimuli/foods\pancakes.jpg	1	1	1	pancakes	1	X	17	0	234	0		0	0	33.6466427003033	33.7466265000403
5078.5	0.0999698997475207	5	satiated	stimuli/non_foods\non-food_inanimate_jeans.jpg	1	1	1	non-food_inanimate_jeans	0	P	11	0	191	0		0	0	33.7966614002362	33.8966312999837
5116	0.0999815999530256	6	satiated	stimuli/non_foods\non-food_inanimate_canoe.jpg	1	1	1	non-food_inanimate_canoe	0	N	10	0	170	0		0	0	33.9466411001049	34.0466227000579
5153.5	0.099991399794817	7	satiated	stimuli/foods\fruit_pie.jpg	1	1	1	fruit_pie	1	V	15	0	54	0		0	0	34.0966428001411	34.1966341999359
5191	0.0999820996075869	8	satiated	stimuli/foods\salami.jpg	1	1	1	salami	1	W	16	0	263	0		0	0	34.246649000328	34.3466310999356
5228.5	0.0999771002680063	9	satiated	stimuli/foods\tomato.jpg	1	1	1	tomato	1	J	6	0	276	0		0	0	34.3966455999762	34.4966227002442
5266	0.0999917001463473	10	satiated	stimuli/foods\fried_zucchini.jpg	1	1	1	fried_zucchini	1	G	4	0	51	0		0	0	34.5466300002299	34.6466217003763
5303.5	0.0999821000732481	11	satiated	stimuli/foods\linguine_with_clams.jpg	1	1	1	linguine_with_clams	1	O	22	1	77	0		0	0	34.696633100044	34.7966152001172
5341	0.100005699787289	12	satiated	stimuli/foods\cinnamon.jpg	1	1	1	cinnamon	1	B	0	0	30	0		0	0	34.8466289001517	34.946634599939
5378.5	0.0997871998697519	13	satiated	stimuli/non_foods\non-food_inanimate_scissors.jpg	1	1	1	non-food_inanimate_scissors	0	L	8	0	205	0		0	0	34.9968336001039	35.0966207999736
5416	0.0999532998539507	14	satiated	stimuli/non_foods\non-food_animate_sea_lion.jpg	1	1	1	non-food_animate_sea_lion	0	B	0	0	143	1	a	0.443338800221682	1	35.1466458002105	35.2465991000645
5453.5	0.0999730997718871	15	satiated	stimuli/non_foods\non-food_inanimate_clover.jpg	1	1	1	non-food_inanimate_clover	0	D	2	0	174	0		0	0	35.2966391001828	35.3966121999547
5491	0.0999872996471822	16	satiated	stimuli/non_foods\non-food_inanimate_leaf.jpg	1	1	1	non-food_inanimate_leaf	0	C	1	0	192	0		0	0	35.4466222003102	35.5466094999574
5528.5	0.0999912996776402	17	satiated	stimuli/non_foods\non-food_animate_grasshopper.jpg	1	1	1	non-food_animate_grasshopper	0	P	11	0	117	0		0	0	35.5966263003647	35.6966176000424
5566	0.099967900197953	18	satiated	stimuli/foods\pork_and_rice.jpg	1	1	1	pork_and_rice	1	M	9	0	245	0		0	0	35.7466504001059	35.8466183003038
5603.5	0.0999559001065791	19	satiated	stimuli/foods\chestnut.jpg	1	1	1	chestnut	1	C	1	0	24	0		0	0	35.8966328999959	35.9965888001025
5641	0.09998709987849	20	satiated	stimuli/non_foods\non-food_animate_german_shepherd.jpg	1	1	1	non-food_animate_german_shepherd	0	D	2	0	114	0		0	0	36.0466219000518	36.1466089999303
5678.5	0.0999822998419404	21	satiated	stimuli/foods\cucumber.jpg	1	1	1	cucumber	1	S	13	0	41	0		0	0	36.1966186002828	36.2966009001248
5716	0.0999839999713004	22	satiated	stimuli/non_foods\non-food_animate_lion.jpg	1	1	1	non-food_animate_lion	0	Z	18	0	125	0		0	0	36.3466147002764	36.4465987002477
5753.5	0.0999873001128435	23	satiated	stimuli/non_foods\non-food_inanimate_briefcase.jpg	1	1	1	non-food_inanimate_briefcase	0	X	17	0	163	0		0	0	36.4966116999276	36.5965990000404
5791	0.0999893001280725	24	satiated	stimuli/foods\savory_pie.jpg	1	1	1	savory_pie	1	N	10	0	265	0		0	0	36.6466080001555	36.7465973002836
5828.5	0.0999997002072632	25	satiated	stimuli/foods\avocado.jpg	1	1	1	avocado	1	R	12	0	5	0		0	0	36.7966102999635	36.8966100001708
5866	0.0999729000031948	26	satiated	stimuli/foods\risotto_with_zucchini.jpg	1	1	1	risotto_with_zucchini	1	X	17	0	260	0		0	0	36.9466198999435	37.0465927999467
5903.5	0.0999875999987125	27	satiated	stimuli/non_foods\non-food_animate_elephant.jpg	1	1	1	non-food_animate_elephant	0	T	14	0	111	0		0	0	37.0966044999659	37.1965920999646
5941	0.0999874002300203	28	satiated	stimuli/foods\fries.jpg	1	1	1	fries	1	O	22	1	52	0		0	0	37.2466043001041	37.3465917003341
5978.5	0.100001599639654	29	satiated	stimuli/foods\carrot.jpg	1	1	1	carrot	1	H	5	0	19	0		0	0	37.3966046003625	37.4966062000021
6016	0.0999715998768806	30	satiated	stimuli/non_foods\non-food_animate_penguin.jpg	1	1	1	non-food_animate_penguin	0	M	9	0	135	0		0	0	37.5466170003638	37.6465886002406
6053.5	0.0999838002026081	31	satiated	stimuli/non_foods\non-food_animate_camel.jpg	1	1	1	non-food_animate_camel	0	T	14	0	97	1	a	0.4432920999825	1	37.6966006001458	37.7965844003484
6091	0.0999978999607265	32	satiated	stimuli/foods\orange.jpg	1	1	1	orange	1	J	6	0	230	0		0	0	37.8465973003767	37.9465952003375
6128.5	0.10000570025295	33	satiated	stimuli/foods\roasted_chicken.jpg	1	1	1	roasted_chicken	1	K	7	0	261	0		0	0	37.996584800072	38.096590500325
6166	0.0999986003153026	34	satiated	stimuli/non_foods\non-food_inanimate_drum_set.jpg	1	1	1	non-food_inanimate_drum_set	0	P	11	0	179	0		0	0	38.1465807999484	38.2465794002637
6203.5	0.099984799977392	35	satiated	stimuli/non_foods\non-food_animate_owl.jpg	1	1	1	non-food_animate_owl	0	J	6	0	132	0		0	0	38.2965947003104	38.3965795002878
6241	0.0999868996441364	36	satiated	stimuli/foods\corncob.jpg	1	1	1	corncob	1	Z	18	0	37	0		0	0	38.4465932003222	38.5465800999664
6278.5	0.0999819003045559	37	satiated	stimuli/non_foods\non-food_animate_alligator.jpg	1	1	1	non-food_animate_alligator	0	R	12	0	90	0		0	0	38.5965942000039	38.6965761003084
6316	0.099987399764359	38	satiated	stimuli/foods\oregano.jpg	1	1	1	oregano	1	T	14	0	231	0		0	0	38.7465930003673	38.8465804001316
6353.5	0.0999848996289074	39	satiated	stimuli/foods\prawn.jpg	1	1	1	prawn	1	X	17	0	249	0		0	0	38.8965895003639	38.9965743999928
6391	0.0999841997399926	40	satiated	stimuli/foods\mandarin.jpg	1	1	1	mandarin	1	W	16	0	79	0		0	0	39.0465884003788	39.1465726001188
6428.5	0.100006399676204	41	satiated	stimuli/foods\coconut.jpg	1	1	1	coconut	1	C	1	0	33	0		0	0	39.1965848002583	39.2965911999345
6466	0.0999672999605536	42	satiated	stimuli/non_foods\non-food_animate_peacock.jpg	1	1	1	non-food_animate_peacock	0	N	10	0	134	0		0	0	39.3465994000435	39.446566700004
6503.5	0.0999777000397444	43	satiated	stimuli/non_foods\non-food_inanimate_folding_chair.jpg	1	1	1	non-food_inanimate_folding_chair	0	Z	18	0	182	0		0	0	39.496586299967	39.5965640000068
6541	0.0999734001234174	44	satiated	stimuli/foods\frankfurter_and_provolone_salad.jpg	1	1	1	frankfurter_and_provolone_salad	1	H	5	0	49	0		0	0	39.6465896000154	39.7465630001388
6578.5	0.0999838002026081	45	satiated	stimuli/foods\rockmelon.jpg	1	1	1	rockmelon	1	L	8	0	262	0		0	0	39.7965790000744	39.896562800277
6616	0.0999855999834836	46	satiated	stimuli/foods\cooked_ham.jpg	1	1	1	cooked_ham	1	S	13	0	35	0		0	0	39.9465768001974	40.0465624001808
6653.5	0.0999884996563196	47	satiated	stimuli/foods\brussel_sprouts.jpg	1	1	1	brussel_sprouts	1	M	9	0	15	0		0	0	40.096571800299	40.1965602999553
6691	0.0999825000762939	48	satiated	stimuli/foods\mortadella.jpg	1	1	1	mortadella	1	N	10	0	83	0		0	0	40.2465739999898	40.3465565000661
6728.5	0.0999837000854313	49	satiated	stimuli/non_foods\non-food_animate_iguana.jpg	1	1	1	non-food_animate_iguana	0	C	1	0	121	0		0	0	40.3965723002329	40.4965560003184
6766	0.0999717996455729	50	satiated	stimuli/foods\brownie.jpg	1	1	1	brownie	1	U	23	1	14	0		0	0	40.5465852003545	40.646557
6803.5	0.0999973998405039	51	satiated	stimuli/foods\cereal.jpg	1	1	1	cereal	1	N	10	0	22	0		0	0	40.6965674003586	40.7965648001991
6841	0.0999783002771437	52	satiated	stimuli/non_foods\non-food_animate_chicken.jpg	1	1	1	non-food_animate_chicken	0	F	3	0	101	0		0	0	40.8465770999901	40.9465554002672
6878.5	0.0999986999668181	53	satiated	stimuli/non_foods\non-food_animate_caterpillar.jpg	1	1	1	non-food_animate_caterpillar	0	D	2	0	99	0		0	0	40.9965643002652	41.096563000232
6916	0.099963600281626	54	satiated	stimuli/non_foods\non-food_animate_bat.jpg	1	1	1	non-food_animate_bat	0	K	7	0	94	1	a	0.691821799613535	1	41.1465847999789	41.2465484002605
6953.5	0.0999900000169873	55	satiated	stimuli/non_foods\non-food_animate_yellow_bug.jpg	1	1	1	non-food_animate_yellow_bug	0	D	2	0	155	0		0	0	41.2965591000393	41.3965491000563
6991	0.099985699634999	56	satiated	stimuli/non_foods\non-food_animate_frog.jpg	1	1	1	non-food_animate_frog	0	M	9	0	113	0		0	0	41.4465590002947	41.5465446999297
7028.5	0.0999737000092864	57	satiated	stimuli/foods\lasagna.jpg	1	1	1	lasagna	1	F	3	0	71	0		0	0	41.5965705001727	41.696544200182
7066	0.0999835003167391	58	satiated	stimuli/foods\potato_and_green_bean_salad.jpg	1	1	1	potato_and_green_bean_salad	1	N	10	0	246	0		0	0	41.746557299979	41.8465408002958
7103.5	0.0999949001707137	59	satiated	stimuli/foods\mango.jpg	1	1	1	mango	1	C	1	0	80	0		0	0	41.896556599997	41.9965515001677
7141	0.0999739002436399	60	satiated	stimuli/non_foods\non-food_inanimate_guitar.jpg	1	1	1	non-food_inanimate_guitar	0	B	0	0	185	0		0	0	42.0465657999739	42.1465397002175
7178.5	0.099985099863261	61	satiated	stimuli/non_foods\non-food_animate_hummingbird.jpg	1	1	1	non-food_animate_hummingbird	0	G	4	0	120	0		0	0	42.1965498002246	42.2965349000879
7216	0.0999834001995623	62	satiated	stimuli/non_foods\non-food_inanimate_padlock.jpg	1	1	1	non-food_inanimate_padlock	0	K	7	0	199	0		0	0	42.3465621001087	42.4465455003083
7253.5	0.0999730001203716	63	satiated	stimuli/non_foods\non-food_animate_porcupine.jpg	1	1	1	non-food_animate_porcupine	0	T	14	0	138	0		0	0	42.4965591002256	42.5965321003459
7291	0.0999838002026081	64	satiated	stimuli/foods\grapefruits.jpg	1	1	1	grapefruits	1	Z	18	0	59	0		0	0	42.6465479000472	42.7465317002498
7328.5	0.0999769000336528	65	satiated	stimuli/non_foods\non-food_animate_snail.jpg	1	1	1	non-food_animate_snail	0	D	2	0	149	0		0	0	42.7965583000332	42.8965352000669
7366	0.099972500000149	66	satiated	stimuli/foods\cracker.jpg	1	1	1	cracker	1	W	16	0	38	0		0	0	42.9465657002293	43.0465382002294
7403.5	0.0999658000655472	67	satiated	stimuli/non_foods\non-food_animate_mouse.jpg	1	1	1	non-food_animate_mouse	0	T	14	0	131	0		0	0	43.0965529000387	43.1965187001042
7441	0.099980799946934	68	satiated	stimuli/foods\cannoli.jpg	1	1	1	cannoli	1	V	15	0	17	0		0	0	43.2465538000688	43.3465346000157
7478.5	0.0999846998602152	69	satiated	stimuli/non_foods\non-food_animate_bee.jpg	1	1	1	non-food_animate_bee	0	X	17	0	95	0		0	0	43.3965496001765	43.4965343000367
7516	0.0999966999515891	70	satiated	stimuli/foods\red_cabbage.jpg	1	1	1	red_cabbage	1	C	1	0	256	0		0	0	43.5465387003496	43.6465354003012
7553.5	0.0999942999333143	71	satiated	stimuli/non_foods\non-food_animate_student_female.jpg	1	1	1	non-food_animate_student_female	0	T	14	0	151	0		0	0	43.696527400054	43.7965216999874
7591	0.0999835999682546	72	satiated	stimuli/foods\lemon_meringue_pie.jpg	1	1	1	lemon_meringue_pie	1	D	2	0	73	0		0	0	43.8465364002623	43.9465200002305
7628.5	0.0999707002192736	73	satiated	stimuli/non_foods\non-food_animate_fox.jpg	1	1	1	non-food_animate_fox	0	P	11	0	112	0		0	0	43.9965459001251	44.0965166003443
7666	0.0999847003258765	74	satiated	stimuli/non_foods\non-food_animate_horse.jpg	1	1	1	non-food_animate_horse	0	X	17	0	119	0		0	0	44.1465314999223	44.2465162002482
7703.5	0.0999794001691043	75	satiated	stimuli/foods\pineapple.jpg	1	1	1	pineapple	1	L	8	0	243	0		0	0	44.2965409001336	44.3965203003027
7741	0.0999803999438882	76	satiated	stimuli/non_foods\non-food_animate_kangaroo.jpg	1	1	1	non-food_animate_kangaroo	0	B	0	0	122	0		0	0	44.4465288002975	44.5465092002414
7778.5	0.0999697996303439	77	satiated	stimuli/non_foods\non-food_inanimate_grass.jpg	1	1	1	non-food_inanimate_grass	0	T	14	0	184	0		0	0	44.596542400308	44.6965121999383
7816	0.0999622000381351	78	satiated	stimuli/non_foods\non-food_animate_squirrel.jpg	1	1	1	non-food_animate_squirrel	0	F	3	0	150	0		0	0	44.7465454000048	44.846507600043
7853.5	0.0999845997430384	79	satiated	stimuli/non_foods\non-food_animate_dragonfly.jpg	1	1	1	non-food_animate_dragonfly	0	R	12	0	108	0		0	0	44.8965251003392	44.9965097000822
7891	0.0999809997156262	80	satiated	stimuli/non_foods\non-food_inanimate_bicycle.jpg	1	1	1	non-food_inanimate_bicycle	0	T	14	0	161	0		0	0	45.0465184003115	45.1464994000271
7928.5	0.0999814998358488	81	satiated	stimuli/foods\lettuce.jpg	1	1	1	lettuce	1	J	6	0	75	0		0	0	45.1965316003188	45.2965131001547
7966	0.1000099000521	82	satiated	stimuli/non_foods\non-food_animate_llama.jpg	1	1	1	non-food_animate_llama	0	G	4	0	127	0		0	0	45.3464967003092	45.4465066003613
8003.5	0.0999884996563196	83	satiated	stimuli/foods\potatoes.jpg	1	1	1	potatoes	1	R	12	0	248	0		0	0	45.4965274003334	45.5965158999898
8041	0.0999901001341641	84	satiated	stimuli/non_foods\non-food_inanimate_suitcase.jpg	1	1	1	non-food_inanimate_suitcase	0	K	7	0	215	0		0	0	45.6465142001398	45.746504300274
8078.5	0.099976500030607	85	satiated	stimuli/foods\ice_cream.jpg	1	1	1	ice_cream	1	R	12	0	68	0		0	0	45.7965343999676	45.8965108999982
8116	0.0999824004247785	86	satiated	stimuli/non_foods\non-food_inanimate_button.jpg	1	1	1	non-food_inanimate_button	0	G	4	0	168	0		0	0	45.9465256999247	46.0465081003495
8153.5	0.0999859999865294	87	satiated	stimuli/foods\minestrone_soup.jpg	1	1	1	minestrone_soup	1	Z	18	0	82	0		0	0	46.0965144000947	46.1965004000813
8191	0.0999782998114824	88	satiated	stimuli/non_foods\non-food_animate_ant.jpg	1	1	1	non-food_animate_ant	0	B	0	0	91	0		0	0	46.2465298003517	46.3465081001632
8228.5	0.0999620002694428	89	satiated	stimuli/non_foods\non-food_inanimate_pine_cone.jpg	1	1	1	non-food_inanimate_pine_cone	0	P	11	0	200	0		0	0	46.3965304000303	46.4964924002998
8266	0.0999937001615763	90	satiated	stimuli/foods\omelette.jpg	1	1	1	omelette	1	W	16	0	228	0		0	0	46.5465142000467	46.6465079002082
8303.5	0.0999770001508296	91	satiated	stimuli/non_foods\non-food_animate_cow.jpg	1	1	1	non-food_animate_cow	0	T	14	0	103	0		0	0	46.6965140001848	46.7964910003357
8341	0.0999878002330661	92	satiated	stimuli/non_foods\non-food_inanimate_construction_helment.jpg	1	1	1	non-food_inanimate_construction_helment	0	D	2	0	175	0		0	0	46.8465017001145	46.9464895003475
8378.5	0.0999960000626743	93	satiated	stimuli/foods\nectarine.jpg	1	1	1	nectarine	1	P	11	0	87	0		0	0	46.9965023002587	47.0964983003214
8416	0.0999814001843333	94	satiated	stimuli/non_foods\non-food_inanimate_fire_extinguisher.jpg	1	1	1	non-food_inanimate_fire_extinguisher	0	O	22	1	181	0		0	0	47.1465023001656	47.2464837003499
8453.5	0.0999880996532738	95	satiated	stimuli/non_foods\non-food_animate_pigeon.jpg	1	1	1	non-food_animate_pigeon	0	Z	18	0	136	0		0	0	47.2964993002824	47.3964873999357
8491	0.100021500140429	96	satiated	stimuli/non_foods\non-food_animate_lizard.jpg	1	1	1	non-food_animate_lizard	0	C	1	0	126	0		0	0	47.4464867999777	47.5465083001181
8528.5	0.0999417998827994	97	satiated	stimuli/non_foods\non-food_inanimate_skateboard.jpg	1	1	1	non-food_inanimate_skateboard	0	K	7	0	208	1	a	0.541850899811834	1	47.5965184001252	47.696460200008
8566	0.0999965998344123	98	satiated	stimuli/foods\clams.jpg	1	1	1	clams	1	F	3	0	32	0		0	0	47.7464954000898	47.8464919999242
8603.5	0.0999839999713004	99	satiated	stimuli/non_foods\non-food_inanimate_soccer_ball.jpg	1	1	1	non-food_inanimate_soccer_ball	0	V	15	0	210	0		0	0	47.8965034000576	47.9964874000289
8641	0.100003100000322	100	satiated	stimuli/non_foods\non-food_inanimate_horn.jpg	1	1	1	non-food_inanimate_horn	0	F	3	0	190	0		0	0	48.0464886999689	48.1464917999692
8678.5	0.0999734997749329	101	satiated	stimuli/foods\spinach.jpg	1	1	1	spinach	1	D	2	0	268	0		0	0	48.1965037002228	48.2964771999978
8716	0.0999827003106475	102	satiated	stimuli/foods\mushroom.jpg	1	1	1	mushroom	1	B	0	0	85	0		0	0	48.3464909000322	48.4464736003429
8753.5	0.100001699756831	103	satiated	stimuli/foods\chocolate_pralines.jpg	1	1	1	chocolate_pralines	1	F	3	0	28	0		0	0	48.4964832002297	48.5964848999865
8791	0.0999735998921096	104	satiated	stimuli/non_foods\non-food_inanimate_skirt.jpg	1	1	1	non-food_inanimate_skirt	0	X	17	0	209	0		0	0	48.6464955001138	48.7464691000059
8828.5	0.0999992997385561	105	satiated	stimuli/non_foods\non-food_inanimate_protractor.jpg	1	1	1	non-food_inanimate_protractor	0	W	16	0	201	0		0	0	48.7964810002595	48.8964802999981
8866	0.0999881001189351	106	satiated	stimuli/foods\gnocchi.jpg	1	1	1	gnocchi	1	T	14	0	58	0		0	0	48.9464797000401	49.046467800159
8903.5	0.099983099848032	107	satiated	stimuli/foods\garlic.jpg	1	1	1	garlic	1	D	2	0	56	0		0	0	49.0964927002788	49.1964758001268
8941	0.100003100000322	108	satiated	stimuli/foods\donut.jpg	1	1	1	donut	1	M	9	0	44	0		0	0	49.2464728001505	49.3464759001508
8978.5	0.0999818001873791	109	satiated	stimuli/foods\pomegranate.jpg	1	1	1	pomegranate	1	K	7	0	244	0		0	0	49.3964800001122	49.4964618002996
9016	0.0999863999895751	110	satiated	stimuli/foods\wafer.jpg	1	1	1	wafer	1	D	2	0	277	0		0	0	49.5464742002077	49.6464606001973
9053.5	0.0999844996258616	111	satiated	stimuli/non_foods\non-food_inanimate_gloves.jpg	1	1	1	non-food_inanimate_gloves	0	P	11	0	183	0		0	0	49.6964784003794	49.7964629000053
9091	0.100015100091696	112	satiated	stimuli/foods\lentils.jpg	1	1	1	lentils	1	W	16	0	74	0		0	0	49.8464748002589	49.9464899003506
9128.5	0.100015399977565	113	satiated	stimuli/foods\eggplant.jpg	1	1	1	eggplant	1	D	2	0	46	0		0	0	49.9964858000167	50.0965011999942
9166	0.0999741000123322	114	satiated	stimuli/non_foods\non-food_animate_young_boy.jpg	1	1	1	non-food_animate_young_boy	0	Z	18	0	156	0		0	0	50.1464820001274	50.2464561001398
9203.5	0.0999855999834836	115	satiated	stimuli/non_foods\non-food_inanimate_nettle.jpg	1	1	1	non-food_inanimate_nettle	0	B	0	0	197	0		0	0	50.2964650001377	50.3964506001212
9241	0.0999940000474453	116	satiated	stimuli/non_foods\non-food_inanimate_broom.jpg	1	1	1	non-food_inanimate_broom	0	D	2	0	164	0		0	0	50.446466400288	50.5464604003355
9278.5	0.0999878002330661	117	satiated	stimuli/foods\baked_cod_with_carrots_and_green_beans.jpg	1	1	1	baked_cod_with_carrots_and_green_beans	1	V	15	0	7	0		0	0	50.5964619000442	50.6964497002773
9316	0.0999823999591172	118	satiated	stimuli/non_foods\non-food_inanimate_speakers.jpg	1	1	1	non-food_inanimate_speakers	0	H	5	0	212	0		0	0	50.7464630003087	50.8464454002678
9353.5	0.0999893001280725	119	satiated	stimuli/non_foods\non-food_inanimate_tulip.jpg	1	1	1	non-food_inanimate_tulip	0	C	1	0	224	0		0	0	50.896459300071	50.9964486001991
9391	0.0999810001812875	120	satiated	stimuli/non_foods\non-food_animate_giraffe.jpg	1	1	1	non-food_animate_giraffe	0	K	7	0	115	0		0	0	51.046459400095	51.1464404002763
9428.5	0.0999875999987125	121	satiated	stimuli/non_foods\non-food_animate_tortoise.jpg	1	1	1	non-food_animate_tortoise	0	F	3	0	153	0		0	0	51.1964547000825	51.2964423000813
9466	0.0999885001219809	122	satiated	stimuli/non_foods\non-food_inanimate_bowling_ball.jpg	1	1	1	non-food_inanimate_bowling_ball	0	C	1	0	162	0		0	0	51.3464644001797	51.4464529003017
9503.5	0.099985099863261	123	satiated	stimuli/foods\museli_bars.jpg	1	1	1	museli_bars	1	R	12	0	84	0		0	0	51.4964561001398	51.596441200003
9541	0.1000188998878	124	satiated	stimuli/non_foods\non-food_animate_ram.jpg	1	1	1	non-food_animate_ram	0	C	1	0	140	0		0	0	51.6464520003647	51.7464709002525
9578.5	0.0999363004229963	125	satiated	stimuli/foods\watermelon.jpg	1	1	1	watermelon	1	J	6	0	279	0		0	0	51.7965001999401	51.8964365003631
9616	0.0999892996624112	126	satiated	stimuli/foods\blackberry.jpg	1	1	1	blackberry	1	V	15	0	11	0		0	0	51.9464474003762	52.0464367000386
9653.5	0.0999937001615763	127	satiated	stimuli/non_foods\non-food_animate_butterfly.jpg	1	1	1	non-food_animate_butterfly	0	D	2	0	96	0		0	0	52.0964517001994	52.196445400361
9691	0.0999836996197701	128	satiated	stimuli/foods\pepperoni_pizza.jpg	1	1	1	pepperoni_pizza	1	Z	18	0	241	0		0	0	52.2464559003711	52.3464395999908
9728.5	0.0999858002178371	129	satiated	stimuli/foods\grilled_chicken_breast.jpg	1	1	1	grilled_chicken_breast	1	R	12	0	63	0		0	0	52.3964446000755	52.4964304002933
9766	0.0999867999926209	130	satiated	stimuli/non_foods\non-food_inanimate_alarm_clock.jpg	1	1	1	non-food_inanimate_alarm_clock	0	T	14	0	158	0		0	0	52.5464465003461	52.6464333003387
9803.5	0.0999881001189351	131	satiated	stimuli/foods\cupcake.jpg	1	1	1	cupcake	1	M	9	0	42	0		0	0	52.6964388000779	52.7964269001968
9841	0.09998539974913	132	satiated	stimuli/foods\potato_chips.jpg	1	1	1	potato_chips	1	F	3	0	247	0		0	0	52.8464407003485	52.9464261000976
9878.5	0.0999828996136785	133	satiated	stimuli/foods\risotto_with_peas_and_asparagus_tips.jpg	1	1	1	risotto_with_peas_and_asparagus_tips	1	J	6	0	259	0		0	0	52.9964388003573	53.096421699971
9916	0.0999880000017583	134	satiated	stimuli/foods\smoked_ham.jpg	1	1	1	smoked_ham	1	H	5	0	266	0		0	0	53.1464460999705	53.2464340999722
9953.5	0.0999528998509049	135	satiated	stimuli/non_foods\non-food_animate_young_girl.jpg	1	1	1	non-food_animate_young_girl	0	D	2	0	157	0		0	0	53.2964742002077	53.3964271000586
9991	0.0999797997064888	136	satiated	stimuli/foods\chocolate_bar.jpg	1	1	1	chocolate_bar	1	S	13	0	26	0		0	0	53.4464390003122	53.5464188000187
10028.5	0.0999688999727368	137	satiated	stimuli/foods\swordfish.jpg	1	1	1	swordfish	1	X	17	0	273	1	a	0	0	53.5964549002238	53.6964238001965
10066	0.0999826998449862	138	satiated	stimuli/non_foods\non-food_animate_slug.jpg	1	1	1	non-food_animate_slug	0	G	4	0	148	0		0	0	53.7464334000833	53.8464160999283
10103.5	0.0999893001280725	139	satiated	stimuli/non_foods\non-food_animate_duck.jpg	1	1	1	non-food_animate_duck	0	M	9	0	109	0		0	0	53.8964279000647	53.9964172001928
10716	0.0999779999256134	140	satiated	stimuli/foods\honey.jpg	1	2	1	honey	1	P	11	0	66	0		0	0	56.3464124002494	56.446390400175
10753.5	0.0999954002909362	141	satiated	stimuli/foods\hazelnuts.jpg	1	2	1	hazelnuts	1	C	1	0	65	0		0	0	56.4964038999751	56.5963993002661
10791	0.0999601003713906	142	satiated	stimuli/foods\raw_sausage.jpg	1	2	1	raw_sausage	1	L	8	0	254	0		0	0	56.6464261999354	56.7463863003068
10828.5	0.0999838998541236	143	satiated	stimuli/foods\meatballs.jpg	1	2	1	meatballs	1	V	15	0	81	0		0	0	56.796399500221	56.8963834000751
10866	0.0999835999682546	144	satiated	stimuli/foods\toasted_bread_with_tomatoes.jpg	1	2	1	toasted_bread_with_tomatoes	1	F	3	0	275	0		0	0	56.9463990000077	57.0463825999759
10903.5	0.0999810001812875	145	satiated	stimuli/non_foods\non-food_inanimate_stapler.jpg	1	2	1	non-food_inanimate_stapler	0	B	0	0	213	0		0	0	57.0964009999298	57.196382000111
10941	0.0999871999956667	146	satiated	stimuli/foods\egg.jpg	1	2	1	egg	1	H	5	0	45	0		0	0	57.2463944000192	57.3463816000149
10978.5	0.0999834001995623	147	satiated	stimuli/non_foods\non-food_animate_ladybug.jpg	1	2	1	non-food_animate_ladybug	0	R	12	0	124	0		0	0	57.3963973000646	57.4963807002641
11016	0.0999710997566581	148	satiated	stimuli/foods\stew_with_potatoes_and_carrots.jpg	1	2	1	stew_with_potatoes_and_carrots	1	B	0	0	271	0		0	0	57.5464024003595	57.6463735001162
11053.5	0.0999956000596285	149	satiated	stimuli/foods\lollies.jpg	1	2	1	lollies	1	Z	18	0	78	0		0	0	57.6963956002146	57.7963912002742
11091	0.0999867999926209	150	satiated	stimuli/non_foods\non-food_inanimate_lighter.jpg	1	2	1	non-food_inanimate_lighter	0	C	1	0	193	0		0	0	57.8463880000636	57.9463748000562
11128.5	0.0999907003715634	151	satiated	stimuli/non_foods\non-food_inanimate_table.jpg	1	2	1	non-food_inanimate_table	0	T	14	0	217	0		0	0	57.9963903999887	58.0963811003603
11166	0.0999893001280725	152	satiated	stimuli/foods\pasta_carbonara.jpg	1	2	1	pasta_carbonara	1	D	2	0	236	0		0	0	58.1463937000372	58.2463830001652
11203.5	0.099982799962163	153	satiated	stimuli/foods\raisins.jpg	1	2	1	raisins	1	Z	18	0	252	0		0	0	58.2963796001859	58.3963624001481
11241	0.0999606000259519	154	satiated	stimuli/foods\steak.jpg	1	2	1	steak	1	W	16	0	270	0		0	0	58.4464043001644	58.5463649001904
11278.5	0.0999430003575981	155	satiated	stimuli/foods\hamburger.jpg	1	2	1	hamburger	1	P	11	0	64	0		0	0	58.5964224999771	58.6963655003347
11316	0.0999846002086997	156	satiated	stimuli/foods\rice.jpg	1	2	1	rice	1	H	5	0	257	0		0	0	58.7463789000176	58.8463635002263
11353.5	0.0999850002117455	157	satiated	stimuli/foods\pumpkin.jpg	1	2	1	pumpkin	1	L	8	0	250	0		0	0	58.8963803001679	58.9963653003797
11391	0.0999825997278094	158	satiated	stimuli/foods\green_beans.jpg	1	2	1	green_beans	1	X	17	0	61	0		0	0	59.0463777002878	59.1463603000157
11428.5	0.0999968000687659	159	satiated	stimuli/non_foods\non-food_animate_baby_crawling.jpg	1	2	1	non-food_animate_baby_crawling	0	R	12	0	92	0		0	0	59.1963749001734	59.2963717002422
11466	0.0999865001067519	160	satiated	stimuli/non_foods\non-food_animate_killer_whale.jpg	1	2	1	non-food_animate_killer_whale	0	Z	18	0	123	0		0	0	59.346382400021	59.4463689001277
11503.5	0.0999957001768053	161	satiated	stimuli/non_foods\non-food_inanimate_bamboo.jpg	1	2	1	non-food_inanimate_bamboo	0	K	7	0	159	0		0	0	59.4963704999536	59.5963662001304
11541	0.0999894998967648	162	satiated	stimuli/foods\fruit_flan.jpg	1	2	1	fruit_flan	1	C	1	0	53	0		0	0	59.6463673003018	59.7463568001986
11578.5	0.0999970003031194	163	satiated	stimuli/foods\fried_calamari.jpg	1	2	1	fried_calamari	1	G	4	0	50	0		0	0	59.7963662999682	59.8963633002713
11616	0.0999910999089479	164	satiated	stimuli/non_foods\non-food_animate_deer.jpg	1	2	1	non-food_animate_deer	0	K	7	0	105	0		0	0	59.9463696000166	60.0463606999256
11653.5	0.0999940000474453	165	satiated	stimuli/non_foods\non-food_inanimate_fern.jpg	1	2	1	non-food_inanimate_fern	0	M	9	0	180	0		0	0	60.0963757000864	60.1963697001338
11691	0.0999440997838974	166	satiated	stimuli/foods\taco.jpg	1	2	1	taco	1	L	8	0	274	0		0	0	60.2464136001654	60.3463576999493
11728.5	0.0999867999926209	167	satiated	stimuli/non_foods\non-food_animate_clown.jpg	1	2	1	non-food_animate_clown	0	R	12	0	102	0		0	0	60.396363100037	60.4963499000296
11766	0.0999994999729097	168	satiated	stimuli/non_foods\non-food_inanimate_chair.jpg	1	2	1	non-food_inanimate_chair	0	S	13	0	172	0		0	0	60.5463568000123	60.6463562999852
11803.5	0.0999834001995623	169	satiated	stimuli/foods\artichoke.jpg	1	2	1	artichoke	1	G	4	0	3	0		0	0	60.6963685001247	60.7963519003242
11841	0.0999830001965165	170	satiated	stimuli/foods\oven-roasted_tomatoes.jpg	1	2	1	oven-roasted_tomatoes	1	K	7	0	232	0		0	0	60.8463576999493	60.9463407001458
11878.5	0.0999912996776402	171	satiated	stimuli/non_foods\non-food_animate_monkey.jpg	1	2	1	non-food_animate_monkey	0	M	9	0	130	0		0	0	60.996359300334	61.0963506000116
11916	0.0999820004217327	172	satiated	stimuli/foods\cauliflower.jpg	1	2	1	cauliflower	1	F	3	0	20	0		0	0	61.1463665999472	61.2463486003689
11953.5	0.100008000154048	173	satiated	stimuli/non_foods\non-food_inanimate_nest.jpg	1	2	1	non-food_inanimate_nest	0	J	6	0	196	0		0	0	61.2963604000397	61.3963684001938
11991	0.0999845000915229	174	satiated	stimuli/foods\lime.jpg	1	2	1	lime	1	V	15	0	76	0		0	0	61.4463514001109	61.5463359002024
12028.5	0.099991699680686	175	satiated	stimuli/non_foods\non-food_animate_donkey.jpg	1	2	1	non-food_animate_donkey	0	T	14	0	107	0		0	0	61.5963425002992	61.6963341999799
12066	0.099983099848032	176	satiated	stimuli/foods\apple.jpg	1	2	1	apple	1	H	5	0	1	0		0	0	61.7463493002579	61.8463324001059
12103.5	0.0999885001219809	177	satiated	stimuli/non_foods\non-food_inanimate_cactus_pot_plant.jpg	1	2	1	non-food_inanimate_cactus_pot_plant	0	S	13	0	169	0		0	0	61.896344400011	61.996332900133
12141	0.0999763999134302	178	satiated	stimuli/non_foods\non-food_inanimate_tree.jpg	1	2	1	non-food_inanimate_tree	0	R	12	0	223	0		0	0	62.0463677002117	62.1463441001251
12178.5	0.0999738997779787	179	satiated	stimuli/foods\cabbage.jpg	1	2	1	cabbage	1	D	2	0	16	0		0	0	62.1963548003696	62.2963287001476
12216	0.0999863999895751	180	satiated	stimuli/foods\kiwi.jpg	1	2	1	kiwi	1	R	12	0	69	0		0	0	62.3463404001668	62.4463268001564
12253.5	0.0999869997613132	181	satiated	stimuli/non_foods\non-food_inanimate_bed.jpg	1	2	1	non-food_inanimate_bed	0	H	5	0	160	0		0	0	62.496340200305	62.5963272000663
12291	0.0999873001128435	182	satiated	stimuli/non_foods\non-food_animate_cat.jpg	1	2	1	non-food_animate_cat	0	V	15	0	98	0		0	0	62.646334500052	62.7463218001649
12328.5	0.0999859999865294	183	satiated	stimuli/foods\baked_lamb_with_potatoes.jpg	1	2	1	baked_lamb_with_potatoes	1	F	3	0	8	0		0	0	62.7963360003196	62.8963220003061
12366	0.099989399779588	184	satiated	stimuli/non_foods\non-food_animate_polar_bear.jpg	1	2	1	non-food_animate_polar_bear	0	N	10	0	137	0		0	0	62.9463332002051	63.0463225999847
12403.5	0.0999835999682546	185	satiated	stimuli/non_foods\non-food_animate_gorilla.jpg	1	2	1	non-food_animate_gorilla	0	S	13	0	116	0		0	0	63.0963350003585	63.1963186003268
12441	0.0999842998571694	186	satiated	stimuli/non_foods\non-food_animate_Asian_man.jpg	1	2	1	non-food_animate_Asian_man	0	F	3	0	88	0		0	0	63.2463433002122	63.3463276000693
12478.5	0.0999733000062406	187	satiated	stimuli/non_foods\non-food_inanimate_hammer.jpg	1	2	1	non-food_inanimate_hammer	0	L	8	0	186	0		0	0	63.3963413001038	63.4963146001101
12516	0.099970200099051	188	satiated	stimuli/non_foods\non-food_inanimate_rack.jpg	1	2	1	non-food_inanimate_rack	0	P	11	0	202	0		0	0	63.5463386001065	63.6463088002056
12553.5	0.0999806998297572	189	satiated	stimuli/non_foods\non-food_inanimate_desk.jpg	1	2	1	non-food_inanimate_desk	0	F	3	0	178	0		0	0	63.6963344002143	63.796315100044
12591	0.0999529999680817	190	satiated	stimuli/foods\red_beans.jpg	1	2	1	red_beans	1	B	0	0	255	0		0	0	63.8463562000543	63.9463092000224
12628.5	0.0999839999713004	191	satiated	stimuli/non_foods\non-food_inanimate_headphones.jpg	1	2	1	non-food_inanimate_headphones	0	S	13	0	188	0		0	0	63.9963234001771	64.0963074001484
12666	0.0999616999179125	192	satiated	stimuli/foods\papaya.jpg	1	2	1	papaya	1	X	17	0	235	0		0	0	64.1463343002833	64.2462960002013
12703.5	0.0999744003638625	193	satiated	stimuli/foods\raw_ham.jpg	1	2	1	raw_ham	1	L	8	0	253	0		0	0	64.2963312999345	64.3963057002984
12741	0.0999996000900865	194	satiated	stimuli/non_foods\non-food_animate_seahorse.jpg	1	2	1	non-food_animate_seahorse	0	F	3	0	145	0		0	0	64.4463164000772	64.5463160001673
12778.5	0.0999859003350139	195	satiated	stimuli/non_foods\non-food_inanimate_toy_airplane.jpg	1	2	1	non-food_inanimate_toy_airplane	0	J	6	0	222	0		0	0	64.596326299943	64.696312200278
12816	0.0999912996776402	196	satiated	stimuli/foods\rice_cake.jpg	1	2	1	rice_cake	1	B	0	0	258	0		0	0	64.7463120003231	64.8463033000007
12853.5	0.0999820004217327	197	satiated	stimuli/non_foods\non-food_animate_swan.jpg	1	2	1	non-food_animate_swan	0	N	10	0	152	0		0	0	64.8963184999302	64.9963005003519
12891	0.0999743002466857	198	satiated	stimuli/foods\broccoli.jpg	1	2	1	broccoli	1	K	7	0	13	0		0	0	65.0463229999878	65.1462973002344
12928.5	0.10000059986487	199	satiated	stimuli/non_foods\non-food_inanimate_socks.jpg	1	2	1	non-food_inanimate_socks	0	Z	18	0	211	0		0	0	65.1963090002537	65.2963096001185
12966	0.0999802998267114	200	satiated	stimuli/non_foods\non-food_animate_cheetah.jpg	1	2	1	non-food_animate_cheetah	0	E	20	1	100	0		0	0	65.3463209001347	65.4463011999615
13003.5	0.0999615998007357	201	satiated	stimuli/non_foods\non-food_inanimate_ring.jpg	1	2	1	non-food_inanimate_ring	0	S	13	0	203	0		0	0	65.4963345001452	65.5962960999459
13041	0.0999611001461744	202	satiated	stimuli/foods\banana.jpg	1	2	1	banana	1	K	7	0	9	1	a	0.400162499863654	1	65.6463441001251	65.7463052002713
13078.5	0.100004199892282	203	satiated	stimuli/foods\capsicum.jpg	1	2	1	capsicum	1	S	13	0	18	0		0	0	65.7962839002721	65.8962881001644
13116	0.0999859999865294	204	satiated	stimuli/foods\apricot.jpg	1	2	1	apricot	1	B	0	0	2	0		0	0	65.946301900316	66.0462879003026
13153.5	0.0999811999499798	205	satiated	stimuli/foods\celery.jpg	1	2	1	celery	1	D	2	0	21	0		0	0	66.0963037000038	66.1962848999538
13191	0.0999857997521758	206	satiated	stimuli/non_foods\non-food_inanimate_cupboard.jpg	1	2	1	non-food_inanimate_cupboard	0	W	16	0	177	0		0	0	66.2462980002165	66.3462837999687
13228.5	0.0999882998876274	207	satiated	stimuli/foods\strawberry.jpg	1	2	1	strawberry	1	T	14	0	272	0		0	0	66.3962981002405	66.4962864001282
13266	0.0999841000884771	208	satiated	stimuli/non_foods\non-food_animate_Causasian_man.jpg	1	2	1	non-food_animate_Causasian_man	0	D	2	0	89	0		0	0	66.5462976000272	66.6462817001157
13303.5	0.0999862002208829	209	satiated	stimuli/foods\chocolate_chip_cookies.jpg	1	2	1	chocolate_chip_cookies	1	K	7	0	27	0		0	0	66.6962941000238	66.7962803002447
13341	0.0999863003380597	210	satiated	stimuli/foods\oyster.jpg	1	2	1	oyster	1	T	14	0	233	0		0	0	66.8462930000387	66.9462793003768
13378.5	0.0999858998693526	211	satiated	stimuli/foods\coffee_beans.jpg	1	2	1	coffee_beans	1	K	7	0	34	0		0	0	66.9962933002971	67.0962792001665
13416	0.0999753000214696	212	satiated	stimuli/foods\peas.jpg	1	2	1	peas	1	L	8	0	240	0		0	0	67.1462934999727	67.2462687999941
13453.5	0.0999622000381351	213	satiated	stimuli/foods\pear.jpg	1	2	1	pear	1	G	4	0	239	0		0	0	67.2963109002449	67.396273100283
13491	0.0999871999956667	214	satiated	stimuli/foods\fennel.jpg	1	2	1	fennel	1	L	8	0	47	0		0	0	67.4462855001912	67.5462727001868
13528.5	0.0999777996912599	215	satiated	stimuli/foods\chilli.jpg	1	2	1	chilli	1	S	13	0	25	0		0	0	67.5962876002304	67.6962653999217
13566	0.099985099863261	216	satiated	stimuli/foods\waffle.jpg	1	2	1	waffle	1	W	16	0	278	0		0	0	67.7462952001952	67.8462803000584
13603.5	0.0999877001158893	217	satiated	stimuli/non_foods\non-food_inanimate_watering_can.jpg	1	2	1	non-food_inanimate_watering_can	0	B	0	0	225	0		0	0	67.8962920000777	67.9962797001936
13641	0.0999855999834836	218	satiated	stimuli/foods\almonds.jpg	1	2	1	almonds	1	W	16	0	0	0		0	0	68.046291900333	68.1462775003165
13678.5	0.0999865001067519	219	satiated	stimuli/foods\dates.jpg	1	2	1	dates	1	M	9	0	43	0		0	0	68.1962799001485	68.2962664002553
13716	0.0999953998252749	220	satiated	stimuli/foods\asparagus.jpg	1	2	1	asparagus	1	K	7	0	4	0		0	0	68.3462789002806	68.4462743001059
13753.5	0.0999714001081884	221	satiated	stimuli/non_foods\non-food_animate_baby_sitting.jpg	1	2	1	non-food_animate_baby_sitting	0	S	13	0	93	0		0	0	68.4962985999882	68.5962700000964
13791	0.09998539974913	222	satiated	stimuli/non_foods\non-food_animate_eagle.jpg	1	2	1	non-food_animate_eagle	0	Z	18	0	110	0		0	0	68.6462754001841	68.7462607999332
13828.5	0.0999671998433769	223	satiated	stimuli/non_foods\non-food_inanimate_bucket.jpg	1	2	1	non-food_inanimate_bucket	0	G	4	0	165	0		0	0	68.7962917000987	68.896258899942
13866	0.100004499778152	224	satiated	stimuli/non_foods\non-food_animate_raccoon.jpg	1	2	1	non-food_animate_raccoon	0	V	15	0	139	0		0	0	68.9462693003006	69.0462738000788
13903.5	0.0999838998541236	225	satiated	stimuli/foods\lemon.jpg	1	2	1	lemon	1	R	12	0	72	0		0	0	69.0963010000996	69.1962848999538
13941	0.0999680999666452	226	satiated	stimuli/foods\beetroots.jpg	1	2	1	beetroots	1	A	19	1	10	0		0	0	69.2462924001738	69.3462605001405
13978.5	0.0999824996106327	227	satiated	stimuli/foods\brie.jpg	1	2	1	brie	1	H	5	0	12	0		0	0	69.3962704003789	69.4962528999895
14016	0.0999822001904249	228	satiated	stimuli/foods\spaghetti_with_meat_sauce.jpg	1	2	1	spaghetti_with_meat_sauce	1	L	8	0	267	0		0	0	69.5462822001427	69.6462644003332
14053.5	0.0999883003532887	229	satiated	stimuli/foods\cream_donuts.jpg	1	2	1	cream_donuts	1	W	16	0	39	1	a	0.541802700143307	1	69.6962657999247	69.796254100278
14091	0.0999980997294188	230	satiated	stimuli/foods\fruit_salad.jpg	1	2	1	fruit_salad	1	R	12	0	55	0		0	0	69.8462602002546	69.946258299984
14128.5	0.0999870002269745	231	satiated	stimuli/foods\radish.jpg	1	2	1	radish	1	H	5	0	251	0		0	0	69.9962585000321	70.0962455002591
14166	0.0999946999363601	232	satiated	stimuli/non_foods\non-food_inanimate_wrench.jpg	1	2	1	non-food_inanimate_wrench	0	P	11	0	227	0		0	0	70.1462611001916	70.246255800128
14203.5	0.0999751002527773	233	satiated	stimuli/foods\green_olives.jpg	1	2	1	green_olives	1	V	15	0	62	0		0	0	70.2962678000331	70.3962429002859
14241	0.0999852996319532	234	satiated	stimuli/non_foods\non-food_inanimate_cap.jpg	1	2	1	non-food_inanimate_cap	0	C	1	0	171	0		0	0	70.4462562003173	70.5462414999492
14278.5	0.0999846998602152	235	satiated	stimuli/non_foods\non-food_inanimate_nailpolish.jpg	1	2	1	non-food_inanimate_nailpolish	0	F	3	0	195	0		0	0	70.5962547003292	70.6962394001894
14316	0.100011200178415	236	satiated	stimuli/foods\hotdog.jpg	1	2	1	hotdog	1	H	5	0	67	0		0	0	70.7462536999956	70.846264900174
14353.5	0.0999471000395715	237	satiated	stimuli/non_foods\non-food_inanimate_teddy_bear.jpg	1	2	1	non-food_inanimate_teddy_bear	0	P	11	0	218	0		0	0	70.8962878002785	70.9962349003181
14391	0.0999945998191833	238	satiated	stimuli/non_foods\non-food_inanimate_stoplight.jpg	1	2	1	non-food_inanimate_stoplight	0	V	15	0	214	0		0	0	71.0462516001426	71.1462461999618
14428.5	0.099974200129509	239	satiated	stimuli/non_foods\non-food_animate_skunk.jpg	1	2	1	non-food_animate_skunk	0	N	10	0	147	0		0	0	71.1962609002367	71.2962351003662
14466	0.0999874998815358	240	satiated	stimuli/non_foods\non-food_inanimate_highlighter.jpg	1	2	1	non-food_inanimate_highlighter	0	Z	18	0	189	0		0	0	71.3462451002561	71.4462326001376
14503.5	0.0999859999865294	241	satiated	stimuli/non_foods\non-food_inanimate_buds.jpg	1	2	1	non-food_inanimate_buds	0	I	21	1	166	0		0	0	71.496244400274	71.5962304002605
14541	0.0999821000732481	242	satiated	stimuli/non_foods\non-food_animate_parrot.jpg	1	2	1	non-food_animate_parrot	0	C	1	0	133	0		0	0	71.6462445002981	71.7462266003713
14578.5	0.09998709987849	243	satiated	stimuli/foods\lamb_chops.jpg	1	2	1	lamb_chops	1	X	17	0	70	0		0	0	71.7962389001623	71.8962260000408
14616	0.0999862998723984	244	satiated	stimuli/non_foods\non-food_inanimate_moss.jpg	1	2	1	non-food_inanimate_moss	0	Z	18	0	194	0		0	0	71.9462438002229	72.0462301000953
14653.5	0.0999887003563344	245	satiated	stimuli/non_foods\non-food_inanimate_tent.jpg	1	2	1	non-food_inanimate_tent	0	W	16	0	219	1	a	0.59333990002051	1	72.0962348999456	72.1962236003019
14691	0.0999851999804378	246	satiated	stimuli/foods\onion.jpg	1	2	1	onion	1	T	14	0	229	0		0	0	72.2462384002283	72.3462236002088
14728.5	0.0999854002147913	247	satiated	stimuli/foods\cherry.jpg	1	2	1	cherry	1	R	12	0	23	0		0	0	72.3962332000956	72.4962186003104
14766	0.100009300280362	248	satiated	stimuli/non_foods\non-food_animate_mammoth.jpg	1	2	1	non-food_animate_mammoth	0	P	11	0	128	0		0	0	72.5462414999492	72.6462508002296
14803.5	0.0999568998813629	249	satiated	stimuli/non_foods\non-food_animate_woman.jpg	1	2	1	non-food_animate_woman	0	R	12	0	154	0		0	0	72.6962605002336	72.796217400115
14841	0.0999836004339159	250	satiated	stimuli/non_foods\non-food_inanimate_bush.jpg	1	2	1	non-food_inanimate_bush	0	D	2	0	167	0		0	0	72.8462324999273	72.9462161003612
14878.5	0.0999854998663068	251	satiated	stimuli/non_foods\non-food_inanimate_short_sleeved_shirt.jpg	1	2	1	non-food_inanimate_short_sleeved_shirt	0	P	11	0	207	0		0	0	72.9962311000563	73.0962165999226
14916	0.0999869001097977	252	satiated	stimuli/non_foods\non-food_animate_rhino.jpg	1	2	1	non-food_animate_rhino	0	X	17	0	141	0		0	0	73.1462257001549	73.2462126002647
14953.5	0.0999777000397444	253	satiated	stimuli/foods\bagel.jpg	1	2	1	bagel	1	V	15	0	6	0		0	0	73.2962267999537	73.3962044999935
14991	0.0999838002026081	254	satiated	stimuli/non_foods\non-food_inanimate_sun_flower.jpg	1	2	1	non-food_inanimate_sun_flower	0	D	2	0	216	0		0	0	73.4462258000858	73.5462096002884
15028.5	0.0999833000823855	255	satiated	stimuli/non_foods\non-food_inanimate_hay.jpg	1	2	1	non-food_inanimate_hay	0	W	16	0	187	0		0	0	73.5962241999805	73.6962075000629
15066	0.0999819999560714	256	satiated	stimuli/foods\ginger_root.jpg	1	2	1	ginger_root	1	G	4	0	57	0		0	0	73.7462258003652	73.8462078003213
15103.5	0.0999829000793397	257	satiated	stimuli/non_foods\non-food_inanimate_shell.jpg	1	2	1	non-food_inanimate_shell	0	P	11	0	206	0		0	0	73.8962224000134	73.9962053000927
15141	0.0999862998723984	258	satiated	stimuli/non_foods\non-food_inanimate_towel.jpg	1	2	1	non-food_inanimate_towel	0	Z	18	0	221	0		0	0	74.0462172003463	74.1462035002187
15178.5	0.100006800144911	259	satiated	stimuli/non_foods\non-food_animate_runner.jpg	1	2	1	non-food_animate_runner	0	O	22	1	142	0		0	0	74.1962088001892	74.2962156003341
15216	0.0999793000519276	260	satiated	stimuli/foods\pickles.jpg	1	2	1	pickles	1	P	11	0	242	0		0	0	74.3462217999622	74.4462011000142
15253.5	0.0999586000107229	261	satiated	stimuli/foods\pea_pod.jpg	1	2	1	pea_pod	1	N	10	0	237	0		0	0	74.4962448002771	74.5962034002878
15291	0.0999921998009086	262	satiated	stimuli/foods\cooked_prawn.jpg	1	2	1	cooked_prawn	1	C	1	0	36	0		0	0	74.6462146001868	74.7462067999877
15328.5	0.0999853000976145	263	satiated	stimuli/non_foods\non-food_animate_green_bug.jpg	1	2	1	non-food_animate_green_bug	0	B	0	0	118	0		0	0	74.7962205000222	74.8962058001198
15366	0.099985099863261	264	satiated	stimuli/non_foods\non-food_inanimate_rope.jpg	1	2	1	non-food_inanimate_rope	0	J	6	0	204	0		0	0	74.9462211001664	75.0462062000297
15403.5	0.0999837000854313	265	satiated	stimuli/foods\grapes.jpg	1	2	1	grapes	1	V	15	0	60	0		0	0	75.0962081002071	75.1961918002926
15441	0.0999937998130918	266	satiated	stimuli/foods\chocolate_pudding.jpg	1	2	1	chocolate_pudding	1	L	8	0	29	0		0	0	75.2462073001079	75.346201099921
15478.5	0.0999753000214696	267	satiated	stimuli/non_foods\non-food_animate_sea_turtle.jpg	1	2	1	non-food_animate_sea_turtle	0	W	16	0	144	0		0	0	75.3962163999677	75.4961916999891
15516	0.0999988997355103	268	satiated	stimuli/non_foods\non-food_inanimate_toilet.jpg	1	2	1	non-food_inanimate_toilet	0	G	4	0	220	0		0	0	75.5462036002427	75.6462024999782
15553.5	0.0999815999530256	269	satiated	stimuli/non_foods\non-food_inanimate_chandelier.jpg	1	2	1	non-food_inanimate_chandelier	0	D	2	0	173	0		0	0	75.6962055000477	75.7961871000007
15591	0.0999855003319681	270	satiated	stimuli/foods\salmon.jpg	1	2	1	salmon	1	M	9	0	264	0		0	0	75.846199200023	75.9461847003549
15628.5	0.0999874002300203	271	satiated	stimuli/non_foods\non-food_inanimate_waterlily.jpg	1	2	1	non-food_inanimate_waterlily	0	C	1	0	226	0		0	0	75.9961991999298	76.0961866001599
15666	0.0999698997475207	272	satiated	stimuli/foods\cinnamon_sroll.jpg	1	2	1	cinnamon_sroll	1	G	4	0	31	0		0	0	76.1462143003009	76.2461842000484
15703.5	0.0999985998496413	273	satiated	stimuli/non_foods\non-food_inanimate_couch.jpg	1	2	1	non-food_inanimate_couch	0	F	3	0	176	0		0	0	76.296187300235	76.3961859000847
15741	0.0999800004065037	274	satiated	stimuli/foods\peach.jpg	1	2	1	peach	1	J	6	0	238	0		0	0	76.4461958999746	76.5461759003811
15778.5	0.0999858998693526	275	satiated	stimuli/non_foods\non-food_inanimate_orchid.jpg	1	2	1	non-food_inanimate_orchid	0	C	1	0	198	0		0	0	76.5961909000762	76.6961767999455
15816	0.0999726001173258	276	satiated	stimuli/non_foods\non-food_animate_dolphin.jpg	1	2	1	non-food_animate_dolphin	0	H	5	0	106	0		0	0	76.7461927002296	76.8461653003469
15853.5	0.0999873001128435	277	satiated	stimuli/foods\croissant.jpg	1	2	1	croissant	1	P	11	0	40	0		0	0	76.8961984999478	76.9961858000606
15891	0.0999867999926209	278	satiated	stimuli/non_foods\non-food_animate_dachshund.jpg	1	2	1	non-food_animate_dachshund	0	C	1	0	104	0		0	0	77.0461953002959	77.1461821002886
15928.5	0.0999854002147913	279	satiated	stimuli/non_foods\non-food_animate_seal.jpg	1	2	1	non-food_animate_seal	0	Z	18	0	146	0		0	0	77.1961869001389	77.2961723003536
16499.25	0.0999568998813629	280	satiated	stimuli/foods\raw_sausage.jpg	1	3	1	raw_sausage	1	X	17	0	254	0		0	0	79.4795250003226	79.579481900204
16536.75	0.0999855999834836	281	satiated	stimuli/non_foods\non-food_animate_alligator.jpg	1	3	1	non-food_animate_alligator	0	L	8	0	90	0		0	0	79.6294962000102	79.7294817999937
16574.25	0.0999901001341641	282	satiated	stimuli/foods\brussel_sprouts.jpg	1	3	1	brussel_sprouts	1	H	5	0	15	0		0	0	79.7794963000342	79.8794864001684
16611.75	0.0999901001341641	283	satiated	stimuli/foods\orange.jpg	1	3	1	orange	1	L	8	0	230	0		0	0	79.9295053002425	80.0294954003766
16649.25	0.0999591001309454	284	satiated	stimuli/foods\prawn.jpg	1	3	1	prawn	1	J	6	0	249	0		0	0	80.0795173002407	80.1794764003716
16686.75	0.0999854998663068	285	satiated	stimuli/foods\cupcake.jpg	1	3	1	cupcake	1	R	12	0	42	0		0	0	80.2294898000546	80.3294752999209
16724.25	0.0999851999804378	286	satiated	stimuli/foods\ginger_root.jpg	1	3	1	ginger_root	1	C	1	0	57	0		0	0	80.3794891000725	80.479474300053
16761.75	0.0999875999987125	287	satiated	stimuli/non_foods\non-food_animate_kangaroo.jpg	1	3	1	non-food_animate_kangaroo	0	P	11	0	122	0		0	0	80.5294862999581	80.6294738999568
16799.25	0.0999831003136933	288	satiated	stimuli/non_foods\non-food_animate_cat.jpg	1	3	1	non-food_animate_cat	0	C	1	0	98	0		0	0	80.679495499935	80.7794786002487
16836.75	0.0999819999560714	289	satiated	stimuli/foods\pumpkin.jpg	1	3	1	pumpkin	1	H	5	0	250	0		0	0	80.8294856003486	80.9294676003046
16874.25	0.0999767002649605	290	satiated	stimuli/non_foods\non-food_inanimate_skateboard.jpg	1	3	1	non-food_inanimate_skateboard	0	M	9	0	208	0		0	0	80.9794932999648	81.0794700002298
16911.75	0.0999763999134302	291	satiated	stimuli/foods\dates.jpg	1	3	1	dates	1	H	5	0	43	0		0	0	81.1294892001897	81.2294656001031
16949.25	0.0999906999059021	292	satiated	stimuli/foods\fruit_pie.jpg	1	3	1	fruit_pie	1	X	17	0	54	0		0	0	81.2794757001102	81.3794664000161
16986.75	0.0999853000976145	293	satiated	stimuli/non_foods\non-food_inanimate_hay.jpg	1	3	1	non-food_inanimate_hay	0	F	3	0	187	0		0	0	81.4294779999182	81.5294633000158
17024.25	0.0999885001219809	294	satiated	stimuli/non_foods\non-food_inanimate_sun_flower.jpg	1	3	1	non-food_inanimate_sun_flower	0	J	6	0	216	0		0	0	81.5794752999209	81.6794638000429
17061.75	0.100008100271225	295	satiated	stimuli/non_foods\non-food_inanimate_nailpolish.jpg	1	3	1	non-food_inanimate_nailpolish	0	B	0	0	195	0		0	0	81.7294725999236	81.8294807001948
17099.25	0.0999495000578463	296	satiated	stimuli/non_foods\non-food_animate_raccoon.jpg	1	3	1	non-food_animate_raccoon	0	S	13	0	139	0		0	0	81.8795094001107	81.9794589001685
17136.75	0.100001000333577	297	satiated	stimuli/non_foods\non-food_animate_donkey.jpg	1	3	1	non-food_animate_donkey	0	W	16	0	107	0		0	0	82.029466799926	82.1294678002596
17174.25	0.0999761996790767	298	satiated	stimuli/foods\nectarine.jpg	1	3	1	nectarine	1	R	12	0	87	0		0	0	82.1794771002606	82.2794532999396
17211.75	0.0999878002330661	299	satiated	stimuli/foods\meatballs.jpg	1	3	1	meatballs	1	J	6	0	81	0		0	0	82.3294663000852	82.4294541003183
17249.25	0.0999814001843333	300	satiated	stimuli/non_foods\non-food_animate_runner.jpg	1	3	1	non-food_animate_runner	0	K	7	0	142	0		0	0	82.4794793999754	82.5794608001597
17286.75	0.0999714997597039	301	satiated	stimuli/non_foods\non-food_inanimate_pine_cone.jpg	1	3	1	non-food_inanimate_pine_cone	0	D	2	0	200	0		0	0	82.6294766003266	82.7294481000863
17324.25	0.0999882998876274	302	satiated	stimuli/foods\cannoli.jpg	1	3	1	cannoli	1	L	8	0	17	0		0	0	82.7794646001421	82.8794529000297
17361.75	0.0999835003167391	303	satiated	stimuli/non_foods\non-food_animate_bat.jpg	1	3	1	non-food_animate_bat	0	P	11	0	94	0		0	0	82.9294626000337	83.0294461003505
17399.25	0.0999798998236656	304	satiated	stimuli/non_foods\non-food_inanimate_hammer.jpg	1	3	1	non-food_inanimate_hammer	0	R	12	0	186	0		0	0	83.0794597002678	83.1794396000914
17436.75	0.099976200144738	305	satiated	stimuli/non_foods\non-food_inanimate_stapler.jpg	1	3	1	non-food_inanimate_stapler	0	H	5	0	213	0		0	0	83.2294716001488	83.3294478002936
17474.25	0.0999882002361119	306	satiated	stimuli/foods\pasta_carbonara.jpg	1	3	1	pasta_carbonara	1	G	4	0	236	0		0	0	83.3794525000267	83.4794407002628
17511.75	0.0999974003061652	307	satiated	stimuli/non_foods\non-food_inanimate_button.jpg	1	3	1	non-food_inanimate_button	0	W	16	0	168	0		0	0	83.5294508999214	83.6294483002275
17549.25	0.0999626996926963	308	satiated	stimuli/non_foods\non-food_animate_sea_lion.jpg	1	3	1	non-food_animate_sea_lion	0	M	9	0	143	0		0	0	83.6794756003655	83.7794383000582
17586.75	0.0999822998419404	309	satiated	stimuli/non_foods\non-food_inanimate_watering_can.jpg	1	3	1	non-food_inanimate_watering_can	0	J	6	0	225	0		0	0	83.8294532001019	83.9294354999438
17624.25	0.0999914002604783	310	satiated	stimuli/non_foods\non-food_inanimate_fern.jpg	1	3	1	non-food_inanimate_fern	0	D	2	0	180	0		0	0	83.9794528000057	84.0794442002662
17661.75	0.0999825000762939	311	satiated	stimuli/non_foods\non-food_animate_german_shepherd.jpg	1	3	1	non-food_animate_german_shepherd	0	H	5	0	114	0		0	0	84.1294491002336	84.2294316003099
17699.25	0.0999884000048041	312	satiated	stimuli/foods\gnocchi.jpg	1	3	1	gnocchi	1	W	16	0	58	0		0	0	84.2794437999837	84.3794321999885
17736.75	0.0999976000748575	313	satiated	stimuli/non_foods\non-food_animate_rhino.jpg	1	3	1	non-food_animate_rhino	0	F	3	0	141	0		0	0	84.4294422999956	84.5294399000704
17774.25	0.0999861001037061	314	satiated	stimuli/non_foods\non-food_inanimate_rope.jpg	1	3	1	non-food_inanimate_rope	0	C	1	0	204	0		0	0	84.5794406002387	84.6794267003424
17811.75	0.099995500408113	315	satiated	stimuli/non_foods\non-food_animate_baby_crawling.jpg	1	3	1	non-food_animate_baby_crawling	0	V	15	0	92	0		0	0	84.7294423999265	84.8294379003346
17849.25	0.0999855999834836	316	satiated	stimuli/non_foods\non-food_animate_penguin.jpg	1	3	1	non-food_animate_penguin	0	C	1	0	135	1	a	0	0	84.8794400002807	84.9794256002642
17886.75	0.100008099805564	317	satiated	stimuli/foods\cabbage.jpg	1	3	1	cabbage	1	M	9	0	16	0		0	0	85.0294360001571	85.1294440999627
17924.25	0.0999737000092864	318	satiated	stimuli/foods\chestnut.jpg	1	3	1	chestnut	1	D	2	0	24	0		0	0	85.1794475000352	85.2794212000445
17961.75	0.0999798001721501	319	satiated	stimuli/non_foods\non-food_animate_camel.jpg	1	3	1	non-food_animate_camel	0	K	7	0	97	0		0	0	85.3294409001246	85.4294207002968
17999.25	0.0999743002466857	320	satiated	stimuli/non_foods\non-food_inanimate_ring.jpg	1	3	1	non-food_inanimate_ring	0	B	0	0	203	0		0	0	85.4794564000331	85.5794307002798
18036.75	0.099984799977392	321	satiated	stimuli/foods\tomato.jpg	1	3	1	tomato	1	Z	18	0	276	0		0	0	85.6294440999627	85.7294288999401
18074.25	0.0999761000275612	322	satiated	stimuli/foods\mussels.jpg	1	3	1	mussels	1	S	13	0	86	0		0	0	85.7794424002059	85.8794185002334
18111.75	0.0999814998358488	323	satiated	stimuli/non_foods\non-food_animate_snail.jpg	1	3	1	non-food_animate_snail	0	Z	18	0	149	0		0	0	85.9294453002512	86.0294268000871
18149.25	0.0999736003577709	324	satiated	stimuli/foods\lemon.jpg	1	3	1	lemon	1	J	6	0	72	0		0	0	86.0794375999831	86.1794112003408
18186.75	0.0999859003350139	325	satiated	stimuli/non_foods\non-food_animate_swan.jpg	1	3	1	non-food_animate_swan	0	F	3	0	152	0		0	0	86.229427699931	86.329413600266
18224.25	0.0999690000899136	326	satiated	stimuli/foods\chocolate_bar.jpg	1	3	1	chocolate_bar	1	H	5	0	26	0		0	0	86.379436200019	86.4794052001089
18261.75	0.0999877997674048	327	satiated	stimuli/foods\corncob.jpg	1	3	1	corncob	1	N	10	0	37	0		0	0	86.5294222002849	86.6294100000523
18299.25	0.0999741996638477	328	satiated	stimuli/non_foods\non-food_inanimate_rack.jpg	1	3	1	non-food_inanimate_rack	0	E	20	1	202	0		0	0	86.6794342002831	86.779408399947
18336.75	0.0999858998693526	329	satiated	stimuli/foods\pancakes.jpg	1	3	1	pancakes	1	T	14	0	234	0		0	0	86.8294207002036	86.929406600073
18374.25	0.0999861997552216	330	satiated	stimuli/foods\cucumber.jpg	1	3	1	cucumber	1	P	11	0	41	0		0	0	86.9794185003266	87.0794047000818
18411.75	0.0999670997262001	331	satiated	stimuli/foods\cinnamon_sroll.jpg	1	3	1	cinnamon_sroll	1	Z	18	0	31	1	a	0.541829199995846	1	87.1294368002564	87.2294038999826
18449.25	0.0999798001721501	332	satiated	stimuli/non_foods\non-food_animate_lion.jpg	1	3	1	non-food_animate_lion	0	J	6	0	125	0		0	0	87.2794221001677	87.3794019003399
18486.75	0.0999815999530256	333	satiated	stimuli/non_foods\non-food_inanimate_folding_chair.jpg	1	3	1	non-food_inanimate_folding_chair	0	L	8	0	182	0		0	0	87.4294163002633	87.5293979002163
18524.25	0.0999861001037061	334	satiated	stimuli/foods\pickles.jpg	1	3	1	pickles	1	H	5	0	242	0		0	0	87.5794116002508	87.6793977003545
18561.75	0.0999802001751959	335	satiated	stimuli/foods\mango.jpg	1	3	1	mango	1	M	9	0	80	0		0	0	87.729414800182	87.8293950003572
18599.25	0.0999854002147913	336	satiated	stimuli/foods\mandarin.jpg	1	3	1	mandarin	1	B	0	0	79	0		0	0	87.8794085001573	87.9793939003721
18636.75	0.0999898998998106	337	satiated	stimuli/foods\brie.jpg	1	3	1	brie	1	M	9	0	12	0		0	0	88.0294050001539	88.1293949000537
18674.25	0.0999888000078499	338	satiated	stimuli/non_foods\non-food_animate_mouse.jpg	1	3	1	non-food_animate_mouse	0	Z	18	0	131	0		0	0	88.1794032999314	88.2793920999393
18711.75	0.0999851999804378	339	satiated	stimuli/non_foods\non-food_inanimate_short_sleeved_shirt.jpg	1	3	1	non-food_inanimate_short_sleeved_shirt	0	W	16	0	207	0		0	0	88.3294152002782	88.4294004002586
18749.25	0.0999865001067519	340	satiated	stimuli/non_foods\non-food_animate_hummingbird.jpg	1	3	1	non-food_animate_hummingbird	0	P	11	0	120	0		0	0	88.4793982999399	88.5793848000467
18786.75	0.0999670000746846	341	satiated	stimuli/foods\mushroom.jpg	1	3	1	mushroom	1	B	0	0	85	0		0	0	88.6294195000082	88.7293865000829
18824.25	0.0999923995696008	342	satiated	stimuli/non_foods\non-food_inanimate_teddy_bear.jpg	1	3	1	non-food_inanimate_teddy_bear	0	J	6	0	218	0		0	0	88.7794020003639	88.8793943999335
18861.75	0.100012400187552	343	satiated	stimuli/foods\oven-roasted_tomatoes.jpg	1	3	1	oven-roasted_tomatoes	1	F	3	0	232	0		0	0	88.9294227999635	89.0294352001511
18899.25	0.0999691998586059	344	satiated	stimuli/foods\donut.jpg	1	3	1	donut	1	R	12	0	44	0		0	0	89.0794049003161	89.1793741001748
18936.75	0.0999834001995623	345	satiated	stimuli/foods\stew_with_potatoes_and_carrots.jpg	1	3	1	stew_with_potatoes_and_carrots	1	K	7	0	271	0		0	0	89.2293964000419	89.3293798002414
18974.25	0.0999829997308552	346	satiated	stimuli/foods\cooked_ham.jpg	1	3	1	cooked_ham	1	J	6	0	35	0		0	0	89.3793951002881	89.4793781000189
19011.75	0.0999809000641108	347	satiated	stimuli/non_foods\non-food_inanimate_padlock.jpg	1	3	1	non-food_inanimate_padlock	0	C	1	0	199	0		0	0	89.5293971002102	89.6293780002743
19049.25	0.0999980000779033	348	satiated	stimuli/foods\pepperoni_pizza.jpg	1	3	1	pepperoni_pizza	1	F	3	0	241	0		0	0	89.6793884001672	89.7793864002451
19086.75	0.0999826001934707	349	satiated	stimuli/non_foods\non-food_animate_yellow_bug.jpg	1	3	1	non-food_animate_yellow_bug	0	X	17	0	155	0		0	0	89.8294016001746	89.9293842003681
19124.25	0.099974500015378	350	satiated	stimuli/non_foods\non-food_animate_Causasian_man.jpg	1	3	1	non-food_animate_Causasian_man	0	A	19	1	89	0		0	0	89.9793964000419	90.0793709000573
19161.75	0.0999819999560714	351	satiated	stimuli/non_foods\non-food_inanimate_drum_set.jpg	1	3	1	non-food_inanimate_drum_set	0	M	9	0	179	0		0	0	90.1293871002272	90.2293691001832
19199.25	0.0999737000092864	352	satiated	stimuli/non_foods\non-food_animate_dolphin.jpg	1	3	1	non-food_animate_dolphin	0	H	5	0	106	0		0	0	90.2793960003182	90.3793697003275
19236.75	0.0999882002361119	353	satiated	stimuli/non_foods\non-food_inanimate_stoplight.jpg	1	3	1	non-food_inanimate_stoplight	0	C	1	0	214	1	a	0.541832699906081	1	90.4293806999922	90.5293689002283
19274.25	0.0999993998557329	354	satiated	stimuli/non_foods\non-food_animate_ladybug.jpg	1	3	1	non-food_animate_ladybug	0	F	3	0	124	0		0	0	90.5793944001198	90.6793937999755
19311.75	0.0999817000702024	355	satiated	stimuli/foods\museli_bars.jpg	1	3	1	museli_bars	1	G	4	0	84	0		0	0	90.7293811002746	90.8293628003448
19349.25	0.0999990999698639	356	satiated	stimuli/non_foods\non-food_inanimate_bamboo.jpg	1	3	1	non-food_inanimate_bamboo	0	D	2	0	159	0		0	0	90.879375600256	90.9793747002259
19386.75	0.0999834001995623	357	satiated	stimuli/non_foods\non-food_animate_parrot.jpg	1	3	1	non-food_animate_parrot	0	X	17	0	133	0		0	0	91.029387800023	91.1293712002225
19424.25	0.0999734001234174	358	satiated	stimuli/non_foods\non-food_animate_peacock.jpg	1	3	1	non-food_animate_peacock	0	B	0	0	134	0		0	0	91.1793856001459	91.2793590002693
19461.75	0.0999855003319681	359	satiated	stimuli/foods\lentils.jpg	1	3	1	lentils	1	P	11	0	74	0		0	0	91.3293763999827	91.4293619003147
19499.25	0.0999862998723984	360	satiated	stimuli/foods\cereal.jpg	1	3	1	cereal	1	S	13	0	22	0		0	0	91.4793683001772	91.5793546000496
19536.75	0.0999872996471822	361	satiated	stimuli/foods\hazelnuts.jpg	1	3	1	hazelnuts	1	N	10	0	65	0		0	0	91.6293681003153	91.7293553999625
19574.25	0.0999854002147913	362	satiated	stimuli/foods\fruit_salad.jpg	1	3	1	fruit_salad	1	R	12	0	55	0		0	0	91.7793696001172	91.879355000332
19611.75	0.0999884996563196	363	satiated	stimuli/non_foods\non-food_inanimate_towel.jpg	1	3	1	non-food_inanimate_towel	0	J	6	0	221	0		0	0	91.9293627003208	92.0293511999771
19649.25	0.0999874002300203	364	satiated	stimuli/foods\pork_and_rice.jpg	1	3	1	pork_and_rice	1	V	15	0	245	0		0	0	92.0793669000268	92.1793543002568
19686.75	0.0999853000976145	365	satiated	stimuli/non_foods\non-food_inanimate_nettle.jpg	1	3	1	non-food_inanimate_nettle	0	W	16	0	197	0		0	0	92.2293648002669	92.3293501003645
19724.25	0.100013100076467	366	satiated	stimuli/non_foods\non-food_animate_dragonfly.jpg	1	3	1	non-food_animate_dragonfly	0	L	8	0	108	0		0	0	92.3793621002696	92.4793752003461
19761.75	0.099965900182724	367	satiated	stimuli/foods\coffee_beans.jpg	1	3	1	coffee_beans	1	K	7	0	34	0		0	0	92.5293924999423	92.6293584001251
19799.25	0.0999880000017583	368	satiated	stimuli/non_foods\non-food_animate_cheetah.jpg	1	3	1	non-food_animate_cheetah	0	B	0	0	100	0		0	0	92.679355500266	92.7793435002677
19836.75	0.09998539974913	369	satiated	stimuli/non_foods\non-food_inanimate_bed.jpg	1	3	1	non-food_inanimate_bed	0	D	2	0	160	0		0	0	92.8293579001911	92.9293432999402
19874.25	0.099983399733901	370	satiated	stimuli/non_foods\non-food_inanimate_tent.jpg	1	3	1	non-food_inanimate_tent	0	V	15	0	219	0		0	0	92.9793572002091	93.079340599943
19911.75	0.099985699634999	371	satiated	stimuli/non_foods\non-food_inanimate_skirt.jpg	1	3	1	non-food_inanimate_skirt	0	D	2	0	209	0		0	0	93.129355400335	93.22934109997
19949.25	0.099983399733901	372	satiated	stimuli/foods\waffle.jpg	1	3	1	waffle	1	J	6	0	278	0		0	0	93.279354700353	93.3793381000869
19986.75	0.099985099863261	373	satiated	stimuli/foods\almonds.jpg	1	3	1	almonds	1	B	0	0	0	0		0	0	93.4293523002416	93.5293374001049
20024.25	0.0999962999485433	374	satiated	stimuli/foods\honey.jpg	1	3	1	honey	1	X	17	0	66	0		0	0	93.5793497003615	93.67934600031
20061.75	0.099971900228411	375	satiated	stimuli/non_foods\non-food_inanimate_tree.jpg	1	3	1	non-food_inanimate_tree	0	J	6	0	223	0		0	0	93.7293606000021	93.8293325002305
20099.25	0.0999827003106475	376	satiated	stimuli/foods\roasted_chicken.jpg	1	3	1	roasted_chicken	1	S	13	0	261	0		0	0	93.8793478999287	93.9793306002393
20136.75	0.0999887003563344	377	satiated	stimuli/foods\asparagus.jpg	1	3	1	asparagus	1	N	10	0	4	0		0	0	94.0293451999314	94.1293339002877
20174.25	0.100001800339669	378	satiated	stimuli/non_foods\non-food_animate_cow.jpg	1	3	1	non-food_animate_cow	0	J	6	0	103	0		0	0	94.1793410000391	94.2793428003788
20211.75	0.0999753000214696	379	satiated	stimuli/foods\avocado.jpg	1	3	1	avocado	1	M	9	0	5	0		0	0	94.3293620999902	94.4293374000117
20249.25	0.0999861001037061	380	satiated	stimuli/foods\apple.jpg	1	3	1	apple	1	R	12	0	1	0		0	0	94.4793398999609	94.5793260000646
20286.75	0.0999866998754442	381	satiated	stimuli/non_foods\non-food_inanimate_desk.jpg	1	3	1	non-food_inanimate_desk	0	V	15	0	178	0		0	0	94.6293406002223	94.7293273000978
20324.25	0.0999849000945687	382	satiated	stimuli/non_foods\non-food_inanimate_headphones.jpg	1	3	1	non-food_inanimate_headphones	0	J	6	0	188	0		0	0	94.7793384999968	94.8793234000914
20361.75	0.0999803999438882	383	satiated	stimuli/foods\hamburger.jpg	1	3	1	hamburger	1	D	2	0	64	0		0	0	94.9293492999859	95.0293296999298
20399.25	0.0999831999652088	384	satiated	stimuli/non_foods\non-food_animate_frog.jpg	1	3	1	non-food_animate_frog	0	R	12	0	113	0		0	0	95.0793326003477	95.1793158003129
20436.75	0.0999735002405941	385	satiated	stimuli/non_foods\non-food_inanimate_jeans.jpg	1	3	1	non-food_inanimate_jeans	0	N	10	0	191	0		0	0	95.2293463000096	95.3293198002502
20474.25	0.0999853000976145	386	satiated	stimuli/non_foods\non-food_inanimate_shell.jpg	1	3	1	non-food_inanimate_shell	0	G	4	0	206	0		0	0	95.3793311002664	95.479316400364
20511.75	0.0999941001646221	387	satiated	stimuli/foods\salmon.jpg	1	3	1	salmon	1	K	7	0	264	0		0	0	95.5293320999481	95.6293262001127
20549.25	0.0999561003409326	388	satiated	stimuli/foods\grapes.jpg	1	3	1	grapes	1	H	5	0	60	0		0	0	95.6793378000148	95.7792939003557
20586.75	0.100002500228584	389	satiated	stimuli/non_foods\non-food_animate_student_female.jpg	1	3	1	non-food_animate_student_female	0	V	15	0	151	0		0	0	95.8293081000447	95.9293106002733
20624.25	0.100014799740165	390	satiated	stimuli/non_foods\non-food_animate_porcupine.jpg	1	3	1	non-food_animate_porcupine	0	J	6	0	138	0		0	0	95.9793303003535	96.0793451000936
20661.75	0.0999652999453247	391	satiated	stimuli/foods\pear.jpg	1	3	1	pear	1	T	14	0	239	0		0	0	96.1293418002315	96.2293071001768
20699.25	0.0999923995696008	392	satiated	stimuli/foods\linguine_with_clams.jpg	1	3	1	linguine_with_clams	1	F	3	0	77	0		0	0	96.279325700365	96.3793180999346
20736.75	0.09998709987849	393	satiated	stimuli/non_foods\non-food_inanimate_horn.jpg	1	3	1	non-food_inanimate_horn	0	V	15	0	190	0		0	0	96.4293218003586	96.5293089002371
20774.25	0.0999871003441513	394	satiated	stimuli/non_foods\non-food_inanimate_grass.jpg	1	3	1	non-food_inanimate_grass	0	J	6	0	184	0		0	0	96.5793167999946	96.6793039003387
20811.75	0.099989099893719	395	satiated	stimuli/non_foods\non-food_inanimate_fire_extinguisher.jpg	1	3	1	non-food_inanimate_fire_extinguisher	0	S	13	0	181	0		0	0	96.7293167002499	96.8293058001436
20849.25	0.0999866002239287	396	satiated	stimuli/foods\artichoke.jpg	1	3	1	artichoke	1	F	3	0	3	0		0	0	96.8793143001385	96.9793009003624
20886.75	0.0999834998510778	397	satiated	stimuli/non_foods\non-food_inanimate_couch.jpg	1	3	1	non-food_inanimate_couch	0	Z	18	0	176	0		0	0	97.0293192001991	97.1293027000502
20924.25	0.0999988000839949	398	satiated	stimuli/foods\blackberry.jpg	1	3	1	blackberry	1	C	1	0	11	0		0	0	97.1793126999401	97.2793115000241
20961.75	0.0999715998768806	399	satiated	stimuli/non_foods\non-food_inanimate_suitcase.jpg	1	3	1	non-food_inanimate_suitcase	0	N	10	0	215	0		0	0	97.3293232000433	97.4292947999202
20999.25	0.0999882998876274	400	satiated	stimuli/foods\spring_onions.jpg	1	3	1	spring_onions	1	R	12	0	269	0		0	0	97.479308700189	97.5792970000766
21036.75	0.0999845000915229	401	satiated	stimuli/non_foods\non-food_inanimate_wrench.jpg	1	3	1	non-food_inanimate_wrench	0	T	14	0	227	0		0	0	97.6293087000959	97.7292932001874
21074.25	0.0999671001918614	402	satiated	stimuli/foods\fries.jpg	1	3	1	fries	1	P	11	0	52	0		0	0	97.7793266000226	97.8792937002145
21111.75	0.0999743998982012	403	satiated	stimuli/non_foods\non-food_inanimate_cactus_pot_plant.jpg	1	3	1	non-food_inanimate_cactus_pot_plant	0	L	8	0	169	0		0	0	97.9293157001957	98.0292901000939
21149.25	0.0999821997247636	404	satiated	stimuli/non_foods\non-food_animate_grasshopper.jpg	1	3	1	non-food_animate_grasshopper	0	X	17	0	117	0		0	0	98.0793039002456	98.1792860999703
21186.75	0.09998539974913	405	satiated	stimuli/foods\taco.jpg	1	3	1	taco	1	N	10	0	274	0		0	0	98.2293024002574	98.3292878000066
21224.25	0.0999822998419404	406	satiated	stimuli/non_foods\non-food_inanimate_orchid.jpg	1	3	1	non-food_inanimate_orchid	0	Z	18	0	198	0		0	0	98.3793025002815	98.4792848001234
21261.75	0.0999845000915229	407	satiated	stimuli/non_foods\non-food_inanimate_alarm_clock.jpg	1	3	1	non-food_inanimate_alarm_clock	0	X	17	0	158	0		0	0	98.5293002999388	98.6292848000303
21299.25	0.0999846998602152	408	satiated	stimuli/foods\lamb_chops.jpg	1	3	1	lamb_chops	1	Z	18	0	70	0		0	0	98.6792993000709	98.7792839999311
21336.75	0.0999814998358488	409	satiated	stimuli/non_foods\non-food_animate_iguana.jpg	1	3	1	non-food_animate_iguana	0	F	3	0	121	0		0	0	98.8292982000858	98.9292796999216
21374.25	0.0999945001676679	410	satiated	stimuli/non_foods\non-food_animate_ant.jpg	1	3	1	non-food_animate_ant	0	W	16	0	91	0		0	0	98.979290000163	99.0792845003307
21411.75	0.0999803999438882	411	satiated	stimuli/non_foods\non-food_inanimate_scissors.jpg	1	3	1	non-food_inanimate_scissors	0	S	13	0	205	0		0	0	99.1292956001125	99.2292760000564
21449.25	0.0999923003837466	412	satiated	stimuli/non_foods\non-food_animate_green_bug.jpg	1	3	1	non-food_animate_green_bug	0	P	11	0	118	0		0	0	99.2792899999768	99.3792823003605
21486.75	0.0999930999241769	413	satiated	stimuli/non_foods\non-food_inanimate_bowling_ball.jpg	1	3	1	non-food_inanimate_bowling_ball	0	F	3	0	162	0		0	0	99.429290600121	99.5292837000452
21524.25	0.0999595001339912	414	satiated	stimuli/foods\cracker.jpg	1	3	1	cracker	1	K	7	0	38	0		0	0	99.5793163999915	99.6792759001255
21561.75	0.0999813000671566	415	satiated	stimuli/foods\red_cabbage.jpg	1	3	1	red_cabbage	1	Z	18	0	256	0		0	0	99.7292905002832	99.8292718003504
21599.25	0.099972500000149	416	satiated	stimuli/non_foods\non-food_inanimate_chair.jpg	1	3	1	non-food_inanimate_chair	0	H	5	0	172	0		0	0	99.8793009999208	99.979273499921
21636.75	0.0999898002482951	417	satiated	stimuli/non_foods\non-food_inanimate_construction_helment.jpg	1	3	1	non-food_inanimate_construction_helment	0	T	14	0	175	0		0	0	100.029282100033	100.129271900281
21674.25	0.0999869001097977	418	satiated	stimuli/non_foods\non-food_animate_fox.jpg	1	3	1	non-food_animate_fox	0	J	6	0	112	0		0	0	100.179280499928	100.279267400037
21711.75	0.0999866002239287	419	satiated	stimuli/non_foods\non-food_animate_chicken.jpg	1	3	1	non-food_animate_chicken	0	W	16	0	101	0		0	0	100.329281900078	100.429268500302
22170.25	0.0999798998236656	420	satiated	stimuli/foods\papaya.jpg	1	4	1	papaya	1	L	8	0	235	0		0	0	102.162601900287	102.262581800111
22207.5	0.0999830001965165	421	satiated	stimuli/non_foods\non-food_animate_woman.jpg	1	4	1	non-food_animate_woman	0	V	15	0	154	0		0	0	102.312594300136	102.412577300332
22245.25	0.099970200099051	422	satiated	stimuli/non_foods\non-food_animate_monkey.jpg	1	4	1	non-food_animate_monkey	0	G	4	0	130	0		0	0	102.462605900131	102.56257610023
22282.5	0.0999835999682546	423	satiated	stimuli/foods\baked_lamb_with_potatoes.jpg	1	4	1	baked_lamb_with_potatoes	1	P	11	0	8	0		0	0	102.612585400231	102.712569000199
22320	0.0999801000580192	424	satiated	stimuli/foods\carrot.jpg	1	4	1	carrot	1	J	6	0	19	0		0	0	102.762593100313	102.862573200371
22357.5	0.0999842998571694	425	satiated	stimuli/foods\chocolate_pudding.jpg	1	4	1	chocolate_pudding	1	S	13	0	29	0		0	0	102.912584800273	103.01256910013
22395	0.099985099863261	426	satiated	stimuli/non_foods\non-food_inanimate_protractor.jpg	1	4	1	non-food_inanimate_protractor	0	C	1	0	201	0		0	0	103.062586300075	103.162571399938
22432.5	0.0999809000641108	427	satiated	stimuli/non_foods\non-food_animate_mammoth.jpg	1	4	1	non-food_animate_mammoth	0	W	16	0	128	0		0	0	103.212584500201	103.312565400265
22470	0.0999842998571694	428	satiated	stimuli/non_foods\non-food_animate_seahorse.jpg	1	4	1	non-food_animate_seahorse	0	N	10	0	145	0		0	0	103.362581700087	103.462565999944
22507.75	0.0999909001402557	429	satiated	stimuli/non_foods\non-food_inanimate_bicycle.jpg	1	4	1	non-food_inanimate_bicycle	0	L	8	0	161	0		0	0	103.512585000135	103.612575900275
22545	0.0999862998723984	430	satiated	stimuli/foods\spaghetti_with_meat_sauce.jpg	1	4	1	spaghetti_with_meat_sauce	1	D	2	0	267	0		0	0	103.662572300062	103.762558599934
22582.75	0.100007299799472	431	satiated	stimuli/foods\clams.jpg	1	4	1	clams	1	F	3	0	32	0		0	0	103.812592400238	103.912599700037
22620	0.0999837997369468	432	satiated	stimuli/non_foods\non-food_animate_giraffe.jpg	1	4	1	non-food_animate_giraffe	0	R	12	0	115	0		0	0	103.962589800358	104.062573600095
22657.5	0.0999867999926209	433	satiated	stimuli/foods\croissant.jpg	1	4	1	croissant	1	C	1	0	40	0		0	0	104.112582399976	104.212569199968
22695.25	0.0999719998799264	434	satiated	stimuli/foods\baked_cod_with_carrots_and_green_beans.jpg	1	4	1	baked_cod_with_carrots_and_green_beans	1	P	11	0	7	0		0	0	104.262586400378	104.362558400258
22732.5	0.0999818001873791	435	satiated	stimuli/foods\strawberry.jpg	1	4	1	strawberry	1	M	9	0	272	0		0	0	104.412575500086	104.512557300273
22770	0.100000299979001	436	satiated	stimuli/foods\capsicum.jpg	1	4	1	capsicum	1	D	2	0	18	0		0	0	104.562569800299	104.662570100278
22807.5	0.100003299769014	437	satiated	stimuli/non_foods\non-food_animate_young_boy.jpg	1	4	1	non-food_animate_young_boy	0	B	0	0	156	0		0	0	104.712562000379	104.812565300148
22845	0.09998709987849	438	satiated	stimuli/foods\grilled_chicken_breast.jpg	1	4	1	grilled_chicken_breast	1	N	10	0	63	0		0	0	104.86257790029	104.962565000169
22882.75	0.0999541999772191	439	satiated	stimuli/foods\red_beans.jpg	1	4	1	red_beans	1	W	16	0	255	0		0	0	105.012599600013	105.112553799991
22920	0.0999864996410906	440	satiated	stimuli/non_foods\non-food_inanimate_speakers.jpg	1	4	1	non-food_inanimate_speakers	0	X	17	0	212	0		0	0	105.162576500326	105.262562999967
22957.5	0.0999862002208829	441	satiated	stimuli/foods\fruit_flan.jpg	1	4	1	fruit_flan	1	O	22	1	53	0		0	0	105.312570699956	105.412556900177
22995	0.0999978999607265	442	satiated	stimuli/foods\onion.jpg	1	4	1	onion	1	X	17	0	229	0		0	0	105.462561400142	105.562559300102
23032.5	0.0999825997278094	443	satiated	stimuli/foods\broccoli.jpg	1	4	1	broccoli	1	P	11	0	13	0		0	0	105.612559300382	105.712541900109
23070	0.0999814001843333	444	satiated	stimuli/foods\cinnamon.jpg	1	4	1	cinnamon	1	H	5	0	30	1	a	0.541824799962342	1	105.762566199992	105.862547600176
23107.5	0.0999791999347508	445	satiated	stimuli/foods\risotto_with_peas_and_asparagus_tips.jpg	1	4	1	risotto_with_peas_and_asparagus_tips	1	C	1	0	259	0		0	0	105.912570300046	106.012549499981
23145	0.0999861001037061	446	satiated	stimuli/non_foods\non-food_inanimate_toilet.jpg	1	4	1	non-food_inanimate_toilet	0	F	3	0	220	0		0	0	106.062565800268	106.162551900372
23182.5	0.100019099656492	447	satiated	stimuli/foods\eggplant.jpg	1	4	1	eggplant	1	B	0	0	46	0		0	0	106.212531000376	106.312550100032
23220	0.0999960000626743	448	satiated	stimuli/non_foods\non-food_animate_skunk.jpg	1	4	1	non-food_animate_skunk	0	D	2	0	147	0		0	0	106.362544800155	106.462540800218
23257.5	0.0999867999926209	449	satiated	stimuli/non_foods\non-food_animate_gorilla.jpg	1	4	1	non-food_animate_gorilla	0	K	7	0	116	0		0	0	106.512547300197	106.61253410019
23295.25	0.0999819999560714	450	satiated	stimuli/foods\cauliflower.jpg	1	4	1	cauliflower	1	F	3	0	20	0		0	0	106.662563899998	106.762545899954
23332.5	0.0999874998815358	451	satiated	stimuli/non_foods\non-food_inanimate_table.jpg	1	4	1	non-food_inanimate_table	0	B	0	0	217	0		0	0	106.81255420018	106.912541700061
23370	0.0999865001067519	452	satiated	stimuli/non_foods\non-food_animate_butterfly.jpg	1	4	1	non-food_animate_butterfly	0	V	15	0	96	0		0	0	106.962555800099	107.062542300206
23407.5	0.0999700999818742	453	satiated	stimuli/foods\pea_pod.jpg	1	4	1	pea_pod	1	F	3	0	237	0		0	0	107.11255770037	107.212527800351
23445	0.0999892000108957	454	satiated	stimuli/non_foods\non-food_inanimate_clover.jpg	1	4	1	non-food_inanimate_clover	0	M	9	0	174	0		0	0	107.262540900148	107.362530100159
23482.75	0.0999595001339912	455	satiated	stimuli/foods\lemon_meringue_pie.jpg	1	4	1	lemon_meringue_pie	1	C	1	0	73	0		0	0	107.412565600127	107.512525100261
23520	0.0999817000702024	456	satiated	stimuli/foods\spinach.jpg	1	4	1	spinach	1	T	14	0	268	0		0	0	107.562524800189	107.662506500259
23557.5	0.0999885001219809	457	satiated	stimuli/foods\brownie.jpg	1	4	1	brownie	1	H	5	0	14	0		0	0	107.712538000196	107.812526500318
23595	0.0999831003136933	458	satiated	stimuli/foods\risotto_with_zucchini.jpg	1	4	1	risotto_with_zucchini	1	I	21	1	260	0		0	0	107.862550999969	107.962534100283
23632.5	0.0999880000017583	459	satiated	stimuli/foods\omelette.jpg	1	4	1	omelette	1	R	12	0	228	0		0	0	108.012542699929	108.112530699931
23670	0.0999880996532738	460	satiated	stimuli/foods\ice_cream.jpg	1	4	1	ice_cream	1	C	1	0	68	0		0	0	108.162542300299	108.262530399952
23707.5	0.0999845000915229	461	satiated	stimuli/foods\rockmelon.jpg	1	4	1	rockmelon	1	S	13	0	262	0		0	0	108.312542200089	108.41252670018
23745	0.0999775999225676	462	satiated	stimuli/non_foods\non-food_animate_ram.jpg	1	4	1	non-food_animate_ram	0	J	6	0	140	1	a	0.700146700255573	1	108.462540100329	108.562517700251
23782.5	0.0999819999560714	463	satiated	stimuli/foods\steak.jpg	1	4	1	steak	1	V	15	0	270	0		0	0	108.612532500178	108.712514500134
23820	0.0999863999895751	464	satiated	stimuli/foods\swordfish.jpg	1	4	1	swordfish	1	M	9	0	273	0		0	0	108.762525000144	108.862511400133
23857.5	0.0999906002543867	465	satiated	stimuli/foods\rice_cake.jpg	1	4	1	rice_cake	1	V	15	0	258	0		0	0	108.912521800026	109.012512400281
23895	0.0999897997826338	466	satiated	stimuli/non_foods\non-food_inanimate_guitar.jpg	1	4	1	non-food_inanimate_guitar	0	B	0	0	185	0		0	0	109.062523300294	109.162513100076
23932.5	0.0999644002877176	467	satiated	stimuli/non_foods\non-food_inanimate_waterlily.jpg	1	4	1	non-food_inanimate_waterlily	0	G	4	0	226	0		0	0	109.212538999971	109.312503400259
23970	0.0999916000291705	468	satiated	stimuli/foods\lime.jpg	1	4	1	lime	1	R	12	0	76	0		0	0	109.36252190033	109.462513500359
24007.5	0.0999695998616517	469	satiated	stimuli/non_foods\non-food_inanimate_socks.jpg	1	4	1	non-food_inanimate_socks	0	F	3	0	211	0		0	0	109.512519400101	109.612488999963
24045	0.100009500049055	470	satiated	stimuli/foods\green_beans.jpg	1	4	1	green_beans	1	D	2	0	61	0		0	0	109.662505900022	109.762515400071
24082.5	0.0999822998419404	471	satiated	stimuli/foods\peach.jpg	1	4	1	peach	1	Z	18	0	238	0		0	0	109.812528400216	109.912510700058
24120	0.0999834998510778	472	satiated	stimuli/foods\celery.jpg	1	4	1	celery	1	X	17	0	21	0		0	0	109.962524800096	110.062508299947
24157.5	0.0999911003746092	473	satiated	stimuli/non_foods\non-food_animate_millipede.jpg	1	4	1	non-food_animate_millipede	0	S	13	0	129	0		0	0	110.112520399969	110.212511500344
24195	0.0999688003212214	474	satiated	stimuli/foods\smoked_ham.jpg	1	4	1	smoked_ham	1	U	23	1	266	0		0	0	110.262527300045	110.362496100366
24232.5	0.100000199861825	475	satiated	stimuli/non_foods\non-food_animate_polar_bear.jpg	1	4	1	non-food_animate_polar_bear	0	H	5	0	137	0		0	0	110.412507200148	110.51250740001
24270	0.0999858002178371	476	satiated	stimuli/foods\rice.jpg	1	4	1	rice	1	S	13	0	257	0		0	0	110.562507499941	110.662493300159
24307.5	0.0999854002147913	477	satiated	stimuli/foods\kiwi.jpg	1	4	1	kiwi	1	H	5	0	69	0		0	0	110.712502900045	110.81248830026
24345	0.0999875003471971	478	satiated	stimuli/non_foods\non-food_inanimate_buds.jpg	1	4	1	non-food_inanimate_buds	0	J	6	0	166	0		0	0	110.862507299986	110.962494800333
24382.5	0.0999692003242671	479	satiated	stimuli/foods\toasted_bread_with_tomatoes.jpg	1	4	1	toasted_bread_with_tomatoes	1	W	16	0	275	0		0	0	111.012517699972	111.112486900296
24420	0.0999977001920342	480	satiated	stimuli/non_foods\non-food_inanimate_leaf.jpg	1	4	1	non-food_inanimate_leaf	0	V	15	0	192	1	a	0.99180749990046	1	111.162503200117	111.26250090031
24457.5	0.0999552002176642	481	satiated	stimuli/foods\figs.jpg	1	4	1	figs	1	K	7	0	48	0		0	0	111.312511499971	111.412466700189
24495	0.100006099790335	482	satiated	stimuli/foods\fried_zucchini.jpg	1	4	1	fried_zucchini	1	N	10	0	51	0		0	0	111.462479600217	111.562485700008
24532.5	0.0999920996837318	483	satiated	stimuli/non_foods\non-food_animate_eagle.jpg	1	4	1	non-food_animate_eagle	0	D	2	0	110	0		0	0	111.612496000249	111.712488099933
24570	0.0999843999743462	484	satiated	stimuli/foods\savory_pie.jpg	1	4	1	savory_pie	1	K	7	0	265	0		0	0	111.762498100288	111.862482500263
24607.5	0.0999842002056539	485	satiated	stimuli/foods\garlic.jpg	1	4	1	garlic	1	J	6	0	56	0		0	0	111.912494299933	112.012478500139
24645	0.0999845997430384	486	satiated	stimuli/non_foods\non-food_animate_elephant.jpg	1	4	1	non-food_animate_elephant	0	H	5	0	111	0		0	0	112.062497900333	112.162482500076
24682.5	0.0999855003319681	487	satiated	stimuli/non_foods\non-food_animate_lizard.jpg	1	4	1	non-food_animate_lizard	0	B	0	0	126	0		0	0	112.212487400044	112.312472900376
24720	0.0999854998663068	488	satiated	stimuli/non_foods\non-food_animate_baby_sitting.jpg	1	4	1	non-food_animate_baby_sitting	0	X	17	0	93	0		0	0	112.362493500113	112.46247899998
24757.5	0.0999828996136785	489	satiated	stimuli/non_foods\non-food_animate_sea_turtle.jpg	1	4	1	non-food_animate_sea_turtle	0	G	4	0	144	0		0	0	112.512488600332	112.612471499946
24795	0.0999838002026081	490	satiated	stimuli/foods\lettuce.jpg	1	4	1	lettuce	1	R	12	0	75	0		0	0	112.662488000002	112.762471800204
24832.5	0.0999956000596285	491	satiated	stimuli/foods\egg.jpg	1	4	1	egg	1	C	1	0	45	0		0	0	112.812485800125	112.912481400184
24870	0.0999841000884771	492	satiated	stimuli/foods\peas.jpg	1	4	1	peas	1	G	4	0	240	0		0	0	112.962495000102	113.06247910019
24907.5	0.0999877001158893	493	satiated	stimuli/non_foods\non-food_inanimate_bush.jpg	1	4	1	non-food_inanimate_bush	0	Z	18	0	167	0		0	0	113.112492199987	113.212479900103
24945	0.0999863999895751	494	satiated	stimuli/non_foods\non-food_animate_killer_whale.jpg	1	4	1	non-food_animate_killer_whale	0	L	8	0	123	0		0	0	113.262490100227	113.362476500217
24982.5	0.0999733996577561	495	satiated	stimuli/non_foods\non-food_inanimate_chandelier.jpg	1	4	1	non-food_inanimate_chandelier	0	X	17	0	173	0		0	0	113.412488700356	113.512462100014
25020	0.0999875999987125	496	satiated	stimuli/non_foods\non-food_animate_horse.jpg	1	4	1	non-food_animate_horse	0	J	6	0	119	0		0	0	113.562475800049	113.662463400047
25057.5	0.0999839003197849	497	satiated	stimuli/non_foods\non-food_animate_slug.jpg	1	4	1	non-food_animate_slug	0	L	8	0	148	0		0	0	113.712476199958	113.812460100278
25095	0.0999863999895751	498	satiated	stimuli/foods\oyster.jpg	1	4	1	oyster	1	T	14	0	233	0		0	0	113.862475200091	113.96246160008
25132.5	0.0999871999956667	499	satiated	stimuli/foods\potatoes.jpg	1	4	1	potatoes	1	M	9	0	248	0		0	0	114.012470200192	114.112457400188
25170	0.0999866998754442	500	satiated	stimuli/foods\pineapple.jpg	1	4	1	pineapple	1	B	0	0	243	0		0	0	114.162469800096	114.262456499971
25207.5	0.0999881997704506	501	satiated	stimuli/non_foods\non-food_animate_duck.jpg	1	4	1	non-food_animate_duck	0	X	17	0	109	0		0	0	114.312464500312	114.412452700082
25245	0.099976500030607	502	satiated	stimuli/foods\raw_ham.jpg	1	4	1	raw_ham	1	B	0	0	253	0		0	0	114.462478400208	114.562454900239
25282.5	0.0999905997887254	503	satiated	stimuli/foods\radish.jpg	1	4	1	radish	1	K	7	0	251	0		0	0	114.612463500351	114.712454100139
25320	0.0999859003350139	504	satiated	stimuli/non_foods\non-food_animate_caterpillar.jpg	1	4	1	non-food_animate_caterpillar	0	T	14	0	99	0		0	0	114.762465300038	114.862451200373
25357.5	0.0999851003289223	505	satiated	stimuli/foods\mortadella.jpg	1	4	1	mortadella	1	H	5	0	83	0		0	0	114.912464499939	115.012449600268
25395	0.0999912000261247	506	satiated	stimuli/non_foods\non-food_animate_young_girl.jpg	1	4	1	non-food_animate_young_girl	0	Z	18	0	157	0		0	0	115.062458700035	115.162449900061
25432.5	0.0999798001721501	507	satiated	stimuli/foods\raisins.jpg	1	4	1	raisins	1	B	0	0	252	0		0	0	115.212464000098	115.312443800271
25470	0.0999799999408424	508	satiated	stimuli/foods\cream_donuts.jpg	1	4	1	cream_donuts	1	L	8	0	39	0		0	0	115.36244630022	115.462426300161
25507.5	0.0999863999895751	509	satiated	stimuli/foods\hotdog.jpg	1	4	1	hotdog	1	J	6	0	67	0		0	0	115.512460000347	115.612446400337
25545	0.0999864996410906	510	satiated	stimuli/foods\beetroots.jpg	1	4	1	beetroots	1	M	9	0	10	0		0	0	115.662455700338	115.762442199979
25582.5	0.0999880000017583	511	satiated	stimuli/non_foods\non-food_animate_pigeon.jpg	1	4	1	non-food_animate_pigeon	0	B	0	0	136	0		0	0	115.812450000085	115.912438000087
25620	0.0999795002862811	512	satiated	stimuli/non_foods\non-food_animate_Asian_man.jpg	1	4	1	non-food_animate_Asian_man	0	M	9	0	88	0		0	0	115.962458400056	116.062437900342
25657.5	0.0999869001097977	513	satiated	stimuli/foods\wafer.jpg	1	4	1	wafer	1	S	13	0	277	0		0	0	116.112450900022	116.212437800132
25695	0.0999746997840703	514	satiated	stimuli/non_foods\non-food_inanimate_canoe.jpg	1	4	1	non-food_inanimate_canoe	0	G	4	0	170	0		0	0	116.262461200356	116.362435900141
25732.5	0.0999858998693526	515	satiated	stimuli/foods\potato_chips.jpg	1	4	1	potato_chips	1	S	13	0	247	0		0	0	116.412445800379	116.512431700248
25770	0.0999964000657201	516	satiated	stimuli/non_foods\non-food_animate_squirrel.jpg	1	4	1	non-food_animate_squirrel	0	Z	18	0	150	0		0	0	116.56244800007	116.662444400135
25807.5	0.0999835999682546	517	satiated	stimuli/non_foods\non-food_animate_dachshund.jpg	1	4	1	non-food_animate_dachshund	0	T	14	0	104	0		0	0	116.712436300237	116.812419900205
25845	0.0999791002832353	518	satiated	stimuli/non_foods\non-food_inanimate_highlighter.jpg	1	4	1	non-food_inanimate_highlighter	0	F	3	0	189	0		0	0	116.86245279992	116.962431900203
25882.5	0.0999930002726614	519	satiated	stimuli/foods\chilli.jpg	1	4	1	chilli	1	B	0	0	25	0		0	0	117.012439500075	117.112432500347
25920	0.0999821000732481	520	satiated	stimuli/foods\minestrone_soup.jpg	1	4	1	minestrone_soup	1	L	8	0	82	0		0	0	117.162443500012	117.262425600085
25957.5	0.0999853000976145	521	satiated	stimuli/non_foods\non-food_inanimate_lighter.jpg	1	4	1	non-food_inanimate_lighter	0	W	16	0	193	0		0	0	117.312439400237	117.412424700335
25995	0.0999858002178371	522	satiated	stimuli/foods\cherry.jpg	1	4	1	cherry	1	L	8	0	23	0		0	0	117.462440399919	117.562426200137
26032.5	0.0999872996471822	523	satiated	stimuli/non_foods\non-food_inanimate_briefcase.jpg	1	4	1	non-food_inanimate_briefcase	0	D	2	0	163	0		0	0	117.612434900366	117.712422200013
26070	0.0999894002452493	524	satiated	stimuli/non_foods\non-food_inanimate_toy_airplane.jpg	1	4	1	non-food_inanimate_toy_airplane	0	N	10	0	222	0		0	0	117.762434700038	117.862424100284
26107.5	0.0999945001676679	525	satiated	stimuli/non_foods\non-food_animate_tortoise.jpg	1	4	1	non-food_animate_tortoise	0	T	14	0	153	0		0	0	117.912430900149	118.012425400317
26145	0.0999671998433769	526	satiated	stimuli/non_foods\non-food_animate_llama.jpg	1	4	1	non-food_animate_llama	0	P	11	0	127	0		0	0	118.062464100309	118.162431300152
26182.5	0.10002710018307	527	satiated	stimuli/foods\fried_calamari.jpg	1	4	1	fried_calamari	1	L	8	0	50	0		0	0	118.212441300042	118.312468400225
26220	0.099974200129509	528	satiated	stimuli/foods\oregano.jpg	1	4	1	oregano	1	M	9	0	231	0		0	0	118.362443699967	118.462417900097
26257.5	0.0999861001037061	529	satiated	stimuli/non_foods\non-food_inanimate_broom.jpg	1	4	1	non-food_inanimate_broom	0	X	17	0	164	0		0	0	118.512437900063	118.612424000166
26295	0.0999527000822127	530	satiated	stimuli/foods\cooked_prawn.jpg	1	4	1	cooked_prawn	1	F	3	0	36	0		0	0	118.662438800093	118.762391500175
26332.5	0.0999934002757072	531	satiated	stimuli/non_foods\non-food_animate_owl.jpg	1	4	1	non-food_animate_owl	0	C	1	0	132	0		0	0	118.812420600094	118.91241400037
26370	0.0999829000793397	532	satiated	stimuli/non_foods\non-food_inanimate_tulip.jpg	1	4	1	non-food_inanimate_tulip	0	J	6	0	224	0		0	0	118.962423800025	119.062406700104
26407.5	0.0999865997582674	533	satiated	stimuli/foods\bagel.jpg	1	4	1	bagel	1	F	3	0	6	0		0	0	119.11241970025	119.212406300008
26445	0.0999793000519276	534	satiated	stimuli/non_foods\non-food_inanimate_soccer_ball.jpg	1	4	1	non-food_inanimate_soccer_ball	0	G	4	0	210	0		0	0	119.262427200098	119.36240650015
26482.5	0.0999885001219809	535	satiated	stimuli/non_foods\non-food_inanimate_cap.jpg	1	4	1	non-food_inanimate_cap	0	L	8	0	171	0		0	0	119.412412600126	119.512401100248
26520	0.0999973998405039	536	satiated	stimuli/non_foods\non-food_animate_seal.jpg	1	4	1	non-food_animate_seal	0	X	17	0	146	0		0	0	119.562416400295	119.662413800135
26557.5	0.0999783999286592	537	satiated	stimuli/non_foods\non-food_animate_clown.jpg	1	4	1	non-food_animate_clown	0	W	16	0	102	0		0	0	119.712405900005	119.812384299934
26595	0.0999674997292459	538	satiated	stimuli/foods\frankfurter_and_provolone_salad.jpg	1	4	1	frankfurter_and_provolone_salad	1	X	17	0	49	0		0	0	119.862431700341	119.962399200071
26632.5	0.100001899991184	539	satiated	stimuli/foods\chocolate_chip_cookies.jpg	1	4	1	chocolate_chip_cookies	1	P	11	0	27	0		0	0	120.012410200201	120.112412100192
26670	0.0999841000884771	540	satiated	stimuli/non_foods\non-food_inanimate_nest.jpg	1	4	1	non-food_inanimate_nest	0	N	10	0	196	0		0	0	120.162421599962	120.26240570005
26707.5	0.0999863999895751	541	satiated	stimuli/foods\banana.jpg	1	4	1	banana	1	M	9	0	9	0		0	0	120.312405900098	120.412392300088
26745	0.0999962999485433	542	satiated	stimuli/foods\lasagna.jpg	1	4	1	lasagna	1	R	12	0	71	0		0	0	120.46240960015	120.562405900098
26782.5	0.09997220011428	543	satiated	stimuli/non_foods\non-food_inanimate_bucket.jpg	1	4	1	non-food_inanimate_bucket	0	D	2	0	165	0		0	0	120.612419300247	120.712391500361
26820	0.100003600120544	544	satiated	stimuli/non_foods\non-food_animate_deer.jpg	1	4	1	non-food_animate_deer	0	X	17	0	105	0		0	0	120.762397699989	120.86240130011
26857.5	0.099970200099051	545	satiated	stimuli/foods\apricot.jpg	1	4	1	apricot	1	J	6	0	2	0		0	0	120.912415400147	121.012385600246
26895	0.0999871999956667	546	satiated	stimuli/foods\salami.jpg	1	4	1	salami	1	F	3	0	263	0		0	0	121.062402700074	121.16238990007
26932.5	0.0999877997674048	547	satiated	stimuli/foods\grapefruits.jpg	1	4	1	grapefruits	1	H	5	0	59	0		0	0	121.212400200311	121.312388000078
26970	0.0999885001219809	548	satiated	stimuli/foods\chocolate_pralines.jpg	1	4	1	chocolate_pralines	1	D	2	0	28	0		0	0	121.362400600221	121.462389100343
27007.5	0.100021499674767	549	satiated	stimuli/non_foods\non-food_inanimate_gloves.jpg	1	4	1	non-food_inanimate_gloves	0	V	15	0	183	0		0	0	121.512390800286	121.612412299961
27045	0.09998539974913	550	satiated	stimuli/foods\coconut.jpg	1	4	1	coconut	1	H	5	0	33	0		0	0	121.662397700362	121.762383100111
27082.5	0.0999900000169873	551	satiated	stimuli/foods\pomegranate.jpg	1	4	1	pomegranate	1	Z	18	0	244	0		0	0	121.812388900202	121.912378900219
27120	0.0999870002269745	552	satiated	stimuli/foods\watermelon.jpg	1	4	1	watermelon	1	K	7	0	279	0		0	0	121.96239120001	122.062378200237
27157.5	0.0999837000854313	553	satiated	stimuli/foods\green_olives.jpg	1	4	1	green_olives	1	R	12	0	62	0		0	0	122.11238910025	122.212372800335
27195	0.0999854002147913	554	satiated	stimuli/foods\lollies.jpg	1	4	1	lollies	1	W	16	0	78	0		0	0	122.262387400027	122.362372800242
27232.5	0.0999826998449862	555	satiated	stimuli/foods\potato_and_green_bean_salad.jpg	1	4	1	potato_and_green_bean_salad	1	K	7	0	246	0		0	0	122.412389700301	122.512372400146
27270	0.0999834001995623	556	satiated	stimuli/non_foods\non-food_animate_bee.jpg	1	4	1	non-food_animate_bee	0	F	3	0	95	0		0	0	122.562387099955	122.662370500155
27307.5	0.099982799962163	557	satiated	stimuli/foods\fennel.jpg	1	4	1	fennel	1	K	7	0	47	0		0	0	122.712386100087	122.812368900049
27345	0.0999849997460842	558	satiated	stimuli/non_foods\non-food_inanimate_moss.jpg	1	4	1	non-food_inanimate_moss	0	W	16	0	194	0		0	0	122.862397500314	122.96238250006
27382.5	0.0999837000854313	559	satiated	stimuli/non_foods\non-food_inanimate_cupboard.jpg	1	4	1	non-food_inanimate_cupboard	0	R	12	0	177	0		0	0	123.012392200064	123.112375900149
27911.75	0.099978799931705	560	satiated	stimuli/non_foods\non-food_animate_young_girl.jpg	1	5	1	non-food_animate_young_girl	0	Z	18	0	157	0		0	0	125.129035500344	125.229014300276
27949.25	0.0999989998526871	561	satiated	stimuli/non_foods\non-food_animate_frog.jpg	1	5	1	non-food_animate_frog	0	V	15	0	113	0		0	0	125.279025500175	125.379024500027
27986.75	0.0999937998130918	562	satiated	stimuli/foods\mango.jpg	1	5	1	mango	1	D	2	0	80	0		0	0	125.429040700197	125.52903450001
28024.25	0.0999607001431286	563	satiated	stimuli/non_foods\non-food_animate_lizard.jpg	1	5	1	non-food_animate_lizard	0	T	14	0	126	0		0	0	125.579047100153	125.679007800296
28061.75	0.0999479000456631	564	satiated	stimuli/foods\waffle.jpg	1	5	1	waffle	1	G	4	0	278	0		0	0	125.729057000019	125.829004900064
28099.25	0.0999910999089479	565	satiated	stimuli/foods\salmon.jpg	1	5	1	salmon	1	B	0	0	264	0		0	0	125.879022700246	125.979013800155
28136.75	0.0999858998693526	566	satiated	stimuli/foods\lettuce.jpg	1	5	1	lettuce	1	L	8	0	75	0		0	0	126.029029400088	126.129015299957
28174.25	0.0999751002527773	567	satiated	stimuli/non_foods\non-food_animate_butterfly.jpg	1	5	1	non-food_animate_butterfly	0	D	2	0	96	0		0	0	126.179028599989	126.279003700241
28211.75	0.0999859999865294	568	satiated	stimuli/foods\wafer.jpg	1	5	1	wafer	1	M	9	0	277	0		0	0	126.329016800039	126.429002800025
28249.25	0.0999964000657201	569	satiated	stimuli/non_foods\non-food_inanimate_bowling_ball.jpg	1	5	1	non-food_inanimate_bowling_ball	0	F	3	0	162	0		0	0	126.479014399927	126.579010799993
28286.75	0.0999709996394813	570	satiated	stimuli/foods\pepperoni_pizza.jpg	1	5	1	pepperoni_pizza	1	J	6	0	241	0		0	0	126.629027500283	126.728998499922
28324.25	0.0999826998449862	571	satiated	stimuli/non_foods\non-food_animate_dolphin.jpg	1	5	1	non-food_animate_dolphin	0	M	9	0	106	0		0	0	126.779013900086	126.878996599931
28361.75	0.0999806998297572	572	satiated	stimuli/non_foods\non-food_animate_cheetah.jpg	1	5	1	non-food_animate_cheetah	0	B	0	0	100	0		0	0	126.929011400323	127.028992100153
28399.25	0.0999880996532738	573	satiated	stimuli/non_foods\non-food_inanimate_desk.jpg	1	5	1	non-food_inanimate_desk	0	S	13	0	178	0		0	0	127.079006300308	127.178994399961
28436.75	0.100004899781197	574	satiated	stimuli/non_foods\non-food_inanimate_waterlily.jpg	1	5	1	non-food_inanimate_waterlily	0	P	11	0	226	0		0	0	127.229009900242	127.329014800023
28474.25	0.0999531000852585	575	satiated	stimuli/non_foods\non-food_animate_student_female.jpg	1	5	1	non-food_animate_student_female	0	T	14	0	151	0		0	0	127.379036500119	127.478989600204
28511.75	0.0999841000884771	576	satiated	stimuli/non_foods\non-food_inanimate_short_sleeved_shirt.jpg	1	5	1	non-food_inanimate_short_sleeved_shirt	0	P	11	0	207	0		0	0	127.529004000127	127.628988100216
28549.25	0.099982799962163	577	satiated	stimuli/foods\oregano.jpg	1	5	1	oregano	1	L	8	0	231	0		0	0	127.679004500154	127.778987300117
28586.75	0.0999841000884771	578	satiated	stimuli/non_foods\non-food_animate_seal.jpg	1	5	1	non-food_animate_seal	0	M	9	0	146	0		0	0	127.829000500031	127.928984600119
28624.25	0.099963900167495	579	satiated	stimuli/foods\capsicum.jpg	1	5	1	capsicum	1	V	15	0	18	0		0	0	127.979001000058	128.078964900225
28661.75	0.0999650000594556	580	satiated	stimuli/non_foods\non-food_animate_owl.jpg	1	5	1	non-food_animate_owl	0	N	10	0	132	0		0	0	128.129016800318	128.228981800377
28699.25	0.0999822001904249	581	satiated	stimuli/foods\dates.jpg	1	5	1	dates	1	P	11	0	43	0		0	0	128.278998000082	128.378980200272
28736.75	0.099989099893719	582	satiated	stimuli/foods\orange.jpg	1	5	1	orange	1	W	16	0	230	0		0	0	128.428993700072	128.528982799966
28774.25	0.0999819999560714	583	satiated	stimuli/foods\pork_and_rice.jpg	1	5	1	pork_and_rice	1	N	10	0	245	0		0	0	128.578995000105	128.678977000061
28811.75	0.100006999913603	584	satiated	stimuli/non_foods\non-food_inanimate_bamboo.jpg	1	5	1	non-food_inanimate_bamboo	0	M	9	0	159	0		0	0	128.728990800213	128.828997800127
28849.25	0.0999734997749329	585	satiated	stimuli/foods\omelette.jpg	1	5	1	omelette	1	P	11	0	228	0		0	0	128.879002900328	128.978976400103
28886.75	0.100012700073421	586	satiated	stimuli/non_foods\non-food_animate_runner.jpg	1	5	1	non-food_animate_runner	0	T	14	0	142	0		0	0	129.028989200015	129.129001900088
28924.25	0.0999728003516793	587	satiated	stimuli/non_foods\non-food_inanimate_buds.jpg	1	5	1	non-food_inanimate_buds	0	M	9	0	166	0		0	0	129.179004699923	129.278977500275
28961.75	0.0999855999834836	588	satiated	stimuli/non_foods\non-food_inanimate_soccer_ball.jpg	1	5	1	non-food_inanimate_soccer_ball	0	H	5	0	210	0		0	0	129.328987200279	129.428972800262
28999.25	0.100005500018597	589	satiated	stimuli/foods\oven-roasted_tomatoes.jpg	1	5	1	oven-roasted_tomatoes	1	M	9	0	232	0		0	0	129.478985600173	129.578991100192
29036.75	0.0999861001037061	590	satiated	stimuli/foods\smoked_ham.jpg	1	5	1	smoked_ham	1	P	11	0	266	0		0	0	129.628985200077	129.728971300181
29074.25	0.099974500015378	591	satiated	stimuli/foods\chocolate_pudding.jpg	1	5	1	chocolate_pudding	1	G	4	0	29	0		0	0	129.778990000021	129.878964500036
29111.75	0.099985099863261	592	satiated	stimuli/non_foods\non-food_inanimate_pine_cone.jpg	1	5	1	non-food_inanimate_pine_cone	0	L	8	0	200	0		0	0	129.928981500212	130.028966600075
29149.25	0.0999937998130918	593	satiated	stimuli/foods\broccoli.jpg	1	5	1	broccoli	1	P	11	0	13	0		0	0	130.078978000209	130.178971800022
29186.75	0.0999929001554847	594	satiated	stimuli/foods\fried_zucchini.jpg	1	5	1	fried_zucchini	1	G	4	0	51	0		0	0	130.22897250019	130.328965400346
29224.25	0.0999855999834836	595	satiated	stimuli/foods\chocolate_bar.jpg	1	5	1	chocolate_bar	1	F	3	0	26	0		0	0	130.378976000007	130.478961599991
29261.75	0.099985099863261	596	satiated	stimuli/foods\meatballs.jpg	1	5	1	meatballs	1	A	19	1	81	0		0	0	130.528986200225	130.628971300088
29299.25	0.0999867999926209	597	satiated	stimuli/foods\brussel_sprouts.jpg	1	5	1	brussel_sprouts	1	J	6	0	15	0		0	0	130.678983299993	130.778970099986
29336.75	0.0999821997247636	598	satiated	stimuli/non_foods\non-food_inanimate_moss.jpg	1	5	1	non-food_inanimate_moss	0	F	3	0	194	0		0	0	130.82897730032	130.928959500045
29374.25	0.0999674000777304	599	satiated	stimuli/non_foods\non-food_inanimate_sun_flower.jpg	1	5	1	non-food_inanimate_sun_flower	0	R	12	0	216	1	a	0.541823300067335	1	130.97898520017	131.078952600248
29411.75	0.0999879003502429	600	satiated	stimuli/foods\prawn.jpg	1	5	1	prawn	1	W	16	0	249	0		0	0	131.128966399934	131.228954300284
29449.25	0.099982799962163	601	satiated	stimuli/non_foods\non-food_inanimate_cactus_pot_plant.jpg	1	5	1	non-food_inanimate_cactus_pot_plant	0	B	0	0	169	0		0	0	131.278967900202	131.378950700164
29486.75	0.100034900009632	602	satiated	stimuli/non_foods\non-food_animate_duck.jpg	1	5	1	non-food_animate_duck	0	F	3	0	109	0		0	0	131.428966599982	131.529001499992
29524.25	0.0999863999895751	603	satiated	stimuli/foods\fruit_pie.jpg	1	5	1	fruit_pie	1	Z	18	0	54	0		0	0	131.578960699961	131.67894709995
29561.75	0.0999820996075869	604	satiated	stimuli/foods\pineapple.jpg	1	5	1	pineapple	1	G	4	0	243	0		0	0	131.728963900357	131.828945999965
29599.25	0.0999985998496413	605	satiated	stimuli/foods\peach.jpg	1	5	1	peach	1	F	3	0	238	0		0	0	131.878956600092	131.978955199942
29636.75	0.0999636999331415	606	satiated	stimuli/foods\fruit_salad.jpg	1	5	1	fruit_salad	1	Z	18	0	55	0		0	0	132.028989300132	132.128953000065
29674.25	0.0999924000352621	607	satiated	stimuli/non_foods\non-food_animate_elephant.jpg	1	5	1	non-food_animate_elephant	0	V	15	0	111	0		0	0	132.178952200338	132.278944600374
29711.75	0.0999821000732481	608	satiated	stimuli/foods\pomegranate.jpg	1	5	1	pomegranate	1	F	3	0	244	0		0	0	132.328954600263	132.428936700337
29749.25	0.0999958999454975	609	satiated	stimuli/non_foods\non-food_inanimate_headphones.jpg	1	5	1	non-food_inanimate_headphones	0	R	12	0	188	0		0	0	132.478953100275	132.578949000221
29786.75	0.099964200053364	610	satiated	stimuli/foods\spring_onions.jpg	1	5	1	spring_onions	1	D	2	0	269	0		0	0	132.628987099975	132.728951300029
29824.25	0.0999763002619147	611	satiated	stimuli/non_foods\non-food_animate_grasshopper.jpg	1	5	1	non-food_animate_grasshopper	0	P	11	0	117	0		0	0	132.778968499973	132.878944800235
29861.75	0.0999914999119937	612	satiated	stimuli/foods\donut.jpg	1	5	1	donut	1	W	16	0	44	0		0	0	132.928957700264	133.028949200176
29899.25	0.0999733996577561	613	satiated	stimuli/foods\grilled_chicken_breast.jpg	1	5	1	grilled_chicken_breast	1	F	3	0	63	0		0	0	133.078959000297	133.178932399955
29936.75	0.0999846998602152	614	satiated	stimuli/foods\pumpkin.jpg	1	5	1	pumpkin	1	D	2	0	250	0		0	0	133.228946200106	133.328930899967
29974.25	0.0999970999546349	615	satiated	stimuli/foods\cracker.jpg	1	5	1	cracker	1	H	5	0	38	0		0	0	133.378944199998	133.478941299953
30011.75	0.0999826998449862	616	satiated	stimuli/non_foods\non-food_animate_woman.jpg	1	5	1	non-food_animate_woman	0	F	3	0	154	0		0	0	133.528953200206	133.628935900051
30049.25	0.0999893001280725	617	satiated	stimuli/non_foods\non-food_inanimate_toilet.jpg	1	5	1	non-food_inanimate_toilet	0	M	9	0	220	0		0	0	133.678946699947	133.778936000075
30086.75	0.0999568998813629	618	satiated	stimuli/foods\cherry.jpg	1	5	1	cherry	1	Z	18	0	23	0		0	0	133.828968000133	133.928924900014
30124.25	0.0999880000017583	619	satiated	stimuli/foods\cereal.jpg	1	5	1	cereal	1	J	6	0	22	0		0	0	133.97893790016	134.078925900161
30161.75	0.100000000093132	620	satiated	stimuli/non_foods\non-food_inanimate_button.jpg	1	5	1	non-food_inanimate_button	0	C	1	0	168	0		0	0	134.128933300264	134.228933300357
30199.25	0.0999981998465955	621	satiated	stimuli/foods\almonds.jpg	1	5	1	almonds	1	D	2	0	0	0		0	0	134.278944600374	134.37894280022
30236.75	0.0999413002282381	622	satiated	stimuli/foods\mushroom.jpg	1	5	1	mushroom	1	P	11	0	85	0		0	0	134.428973800037	134.528915100265
30274.25	0.0999835999682546	623	satiated	stimuli/foods\avocado.jpg	1	5	1	avocado	1	K	7	0	5	0		0	0	134.578933800105	134.678917400073
30311.75	0.0999839999713004	624	satiated	stimuli/foods\red_cabbage.jpg	1	5	1	red_cabbage	1	B	0	0	256	0		0	0	134.728943200316	134.828927200288
30349.25	0.100002000108361	625	satiated	stimuli/non_foods\non-food_animate_eagle.jpg	1	5	1	non-food_animate_eagle	0	G	4	0	110	0		0	0	134.878922100179	134.978924100287
30386.75	0.0999862002208829	626	satiated	stimuli/non_foods\non-food_animate_mammoth.jpg	1	5	1	non-food_animate_mammoth	0	A	19	1	128	0		0	0	135.028924500104	135.128910700325
30424.25	0.0999886998906732	627	satiated	stimuli/non_foods\non-food_inanimate_socks.jpg	1	5	1	non-food_inanimate_socks	0	W	16	0	211	0		0	0	135.178923000116	135.278911700007
30461.75	0.0999885001219809	628	satiated	stimuli/foods\steak.jpg	1	5	1	steak	1	D	2	0	270	0		0	0	135.328920700122	135.428909200244
30499.25	0.0999904996715486	629	satiated	stimuli/foods\swordfish.jpg	1	5	1	swordfish	1	J	6	0	273	1	a	0.443166200071573	1	135.478921700269	135.578912199941
30536.75	0.100030399858952	630	satiated	stimuli/foods\fruit_flan.jpg	1	5	1	fruit_flan	1	H	5	0	53	0		0	0	135.628916600253	135.728947000112
30574.25	0.100006900262088	631	satiated	stimuli/non_foods\non-food_animate_llama.jpg	1	5	1	non-food_animate_llama	0	W	16	0	127	0		0	0	135.778908899985	135.878915800247
30611.75	0.0999735002405941	632	satiated	stimuli/foods\apple.jpg	1	5	1	apple	1	M	9	0	1	0		0	0	135.928928500041	136.028902000282
30649.25	0.100007900036871	633	satiated	stimuli/foods\lamb_chops.jpg	1	5	1	lamb_chops	1	R	12	0	70	0		0	0	136.078912599944	136.17892049998
30686.75	0.0999586000107229	634	satiated	stimuli/foods\carrot.jpg	1	5	1	carrot	1	J	6	0	19	0		0	0	136.228940099943	136.328898699954
30724.25	0.0999901001341641	635	satiated	stimuli/foods\potatoes.jpg	1	5	1	potatoes	1	F	3	0	248	0		0	0	136.378910399973	136.478900500108
30761.75	0.0999874998815358	636	satiated	stimuli/non_foods\non-food_animate_kangaroo.jpg	1	5	1	non-food_animate_kangaroo	0	M	9	0	122	0		0	0	136.528912700247	136.628900200129
30799.25	0.0999863999895751	637	satiated	stimuli/foods\cooked_prawn.jpg	1	5	1	cooked_prawn	1	D	2	0	36	0		0	0	136.678911600262	136.778898000252
30836.75	0.0999874002300203	638	satiated	stimuli/non_foods\non-food_inanimate_folding_chair.jpg	1	5	1	non-food_inanimate_folding_chair	0	F	3	0	182	0		0	0	136.828906300012	136.928893700242
30874.25	0.0999932000413537	639	satiated	stimuli/non_foods\non-food_animate_caterpillar.jpg	1	5	1	non-food_animate_caterpillar	0	C	1	0	99	0		0	0	136.97890780028	137.078901000321
30911.75	0.0999714001081884	640	satiated	stimuli/foods\lollies.jpg	1	5	1	lollies	1	J	6	0	78	0		0	0	137.128917700145	137.228889100254
30949.25	0.0999862002208829	641	satiated	stimuli/non_foods\non-food_animate_sea_lion.jpg	1	5	1	non-food_animate_sea_lion	0	Z	18	0	143	0		0	0	137.278913700022	137.378899900243
