onset	duration	eventnumber	hunger_condition	stimfilename	blockno	trialno	is_faststream	stim	food_idx	letter	letter_idx	istarget	image_number	response	keypressed	rt	correct	time_stimon	time_stimoff
11502.5	0.099976500030607	0	hunger	stimuli/foods\rice.jpg	1	1	1	rice	1	G	4	0	257	0		0	0	79.8893090999918	79.9892856000224
11540	0.100036099960562	1	hunger	stimuli/foods\grapes.jpg	1	1	1	grapes	1	C	1	0	60	0		0	0	80.0393015000154	80.139337599976
11577.5	0.0999829999636859	2	hunger	stimuli/foods\meatballs.jpg	1	1	1	meatballs	1	R	12	0	81	0		0	0	80.1892996000242	80.2892825999879
11615	0.0999821999575943	3	hunger	stimuli/non_foods\non-food_inanimate_speakers.jpg	1	1	1	non-food_inanimate_speakers	0	D	2	0	212	0		0	0	80.3392958000186	80.4392779999762
11652.5	0.0999890999519266	4	hunger	stimuli/foods\potato_chips.jpg	1	1	1	potato_chips	1	T	14	0	247	0		0	0	80.4892927000183	80.5892817999702
11690	0.0999857999850065	5	hunger	stimuli/non_foods\non-food_inanimate_hammer.jpg	1	1	1	non-food_inanimate_hammer	0	D	2	0	186	0		0	0	80.6392934999894	80.7392792999744
11727.5	0.0999890000093728	6	hunger	stimuli/non_foods\non-food_inanimate_rack.jpg	1	1	1	non-food_inanimate_rack	0	N	10	0	202	0		0	0	80.7892915999983	80.8892806000076
11765	0.0999870999949053	7	hunger	stimuli/foods\risotto_with_peas_and_asparagus_tips.jpg	1	1	1	risotto_with_peas_and_asparagus_tips	1	R	12	0	259	0		0	0	80.9392866999842	81.0392737999791
11802.5	0.0999871999956667	8	hunger	stimuli/foods\croissant.jpg	1	1	1	croissant	1	L	8	0	40	0		0	0	81.0892871000106	81.1892743000062
11840	0.099988600006327	9	hunger	stimuli/non_foods\non-food_inanimate_tulip.jpg	1	1	1	non-food_inanimate_tulip	0	D	2	0	224	0		0	0	81.239282399998	81.3392710000044
11877.5	0.100011500006076	10	hunger	stimuli/non_foods\non-food_animate_baby_crawling.jpg	1	1	1	non-food_animate_baby_crawling	0	K	7	0	92	0		0	0	81.3892897000187	81.4893012000248
11915	0.0999738000100479	11	hunger	stimuli/foods\smoked_ham.jpg	1	1	1	smoked_ham	1	R	12	0	266	0		0	0	81.5392887999769	81.639262599987
11952.5	0.0999869999941438	12	hunger	stimuli/foods\asparagus.jpg	1	1	1	asparagus	1	K	7	0	4	0		0	0	81.6892715999857	81.7892585999798
11990	0.0997053999453783	13	hunger	stimuli/foods\apricot.jpg	1	1	1	apricot	1	X	17	0	2	0		0	0	81.8395641000243	81.9392694999697
12027.5	0.0999777999822982	14	hunger	stimuli/foods\lime.jpg	1	1	1	lime	1	V	15	0	76	0		0	0	81.9892760000075	82.0892537999898
12065	0.100011400005314	15	hunger	stimuli/non_foods\non-food_animate_ladybug.jpg	1	1	1	non-food_animate_ladybug	0	N	10	0	124	0		0	0	82.1392538999789	82.2392652999843
12102.5	0.0999821000150405	16	hunger	stimuli/non_foods\non-food_animate_swan.jpg	1	1	1	non-food_animate_swan	0	H	5	0	152	0		0	0	82.2892776000081	82.3892597000231
12140	0.099992299976293	17	hunger	stimuli/non_foods\non-food_animate_cow.jpg	1	1	1	non-food_animate_cow	0	W	16	0	103	0		0	0	82.4392611000221	82.5392533999984
12177.5	0.0999841999728233	18	hunger	stimuli/non_foods\non-food_inanimate_bed.jpg	1	1	1	non-food_inanimate_bed	0	M	9	0	160	0		0	0	82.5892732000211	82.6892573999939
12215	0.0999869999941438	19	hunger	stimuli/non_foods\non-food_animate_woman.jpg	1	1	1	non-food_animate_woman	0	D	2	0	154	0		0	0	82.7392706000246	82.8392576000188
12252.5	0.0999727000016719	20	hunger	stimuli/non_foods\non-food_inanimate_protractor.jpg	1	1	1	non-food_inanimate_protractor	0	N	10	0	201	0		0	0	82.8892799000023	82.989252600004
12290	0.0999833000241779	21	hunger	stimuli/foods\spinach.jpg	1	1	1	spinach	1	H	5	0	268	0		0	0	83.0392672999878	83.139250600012
12327.5	0.0999848000355996	22	hunger	stimuli/foods\red_beans.jpg	1	1	1	red_beans	1	T	14	0	255	0		0	0	83.189263999986	83.2892488000216
12365	0.0999874999979511	23	hunger	stimuli/foods\lemon.jpg	1	1	1	lemon	1	G	4	0	72	0		0	0	83.3392613999895	83.4392488999874
12402.5	0.0999848999781534	24	hunger	stimuli/foods\broccoli.jpg	1	1	1	broccoli	1	T	14	0	13	0		0	0	83.4892626000219	83.5892475000001
12440	0.099979099992197	25	hunger	stimuli/non_foods\non-food_inanimate_cap.jpg	1	1	1	non-food_inanimate_cap	0	S	13	0	171	0		0	0	83.6392597000231	83.7392388000153
12477.5	0.0999889000086114	26	hunger	stimuli/foods\cooked_prawn.jpg	1	1	1	cooked_prawn	1	B	0	0	36	0		0	0	83.7892546000076	83.8892435000162
12515	0.0999823000165634	27	hunger	stimuli/foods\risotto_with_zucchini.jpg	1	1	1	risotto_with_zucchini	1	M	9	0	260	0		0	0	83.939257799997	84.0392401000136
12552.5	0.0999912000261247	28	hunger	stimuli/non_foods\non-food_animate_fox.jpg	1	1	1	non-food_animate_fox	0	Z	18	0	112	0		0	0	84.0892543999944	84.1892456000205
12590	0.0999846999766305	29	hunger	stimuli/non_foods\non-food_animate_mouse.jpg	1	1	1	non-food_animate_mouse	0	L	8	0	131	0		0	0	84.2392528000055	84.3392374999821
12627.5	0.0999869999941438	30	hunger	stimuli/non_foods\non-food_animate_butterfly.jpg	1	1	1	non-food_animate_butterfly	0	J	6	0	96	0		0	0	84.3892526000272	84.4892396000214
12665	0.0999919999740086	31	hunger	stimuli/foods\green_beans.jpg	1	1	1	green_beans	1	S	13	0	61	0		0	0	84.5392530999961	84.6392450999701
12702.5	0.0999795999960043	32	hunger	stimuli/foods\taco.jpg	1	1	1	taco	1	R	12	0	274	0		0	0	84.6892693000264	84.7892489000224
12740	0.0999883000040427	33	hunger	stimuli/foods\cannoli.jpg	1	1	1	cannoli	1	Z	18	0	17	0		0	0	84.8392440999742	84.9392323999782
12777.5	0.0999891000101343	34	hunger	stimuli/non_foods\non-food_animate_deer.jpg	1	1	1	non-food_animate_deer	0	T	14	0	105	0		0	0	84.9892428999883	85.0892319999984
12815	0.0999823000165634	35	hunger	stimuli/foods\ginger_root.jpg	1	1	1	ginger_root	1	H	5	0	57	0		0	0	85.1392465999816	85.2392288999981
12852.5	0.0999792999937199	36	hunger	stimuli/non_foods\non-food_animate_bat.jpg	1	1	1	non-food_animate_bat	0	L	8	0	94	0		0	0	85.2892417000257	85.3892210000195
12890	0.0999803000013344	37	hunger	stimuli/foods\fried_zucchini.jpg	1	1	1	fried_zucchini	1	D	2	0	51	0		0	0	85.4392485999851	85.5392288999865
12927.5	0.0999882000032812	38	hunger	stimuli/foods\grilled_chicken_breast.jpg	1	1	1	grilled_chicken_breast	1	V	15	0	63	0		0	0	85.5892353000236	85.6892235000269
12965	0.0999894000124186	39	hunger	stimuli/foods\cinnamon.jpg	1	1	1	cinnamon	1	T	14	0	30	0		0	0	85.7392364999978	85.8392259000102
13002.5	0.0999848000355996	40	hunger	stimuli/non_foods\non-food_animate_parrot.jpg	1	1	1	non-food_animate_parrot	0	P	11	0	133	0		0	0	85.8892387999804	85.989223600016
13040	0.0999883000040427	41	hunger	stimuli/foods\raisins.jpg	1	1	1	raisins	1	V	15	0	252	0		0	0	86.0392323000124	86.1392206000164
13077.5	0.0999795999960043	42	hunger	stimuli/foods\mussels.jpg	1	1	1	mussels	1	F	3	0	86	0		0	0	86.1892405999824	86.2892201999784
13115	0.0999861999880522	43	hunger	stimuli/non_foods\non-food_inanimate_pine_cone.jpg	1	1	1	non-food_inanimate_pine_cone	0	N	10	0	200	0		0	0	86.3392306999885	86.4392168999766
13152.5	0.0999858999857679	44	hunger	stimuli/non_foods\non-food_animate_frog.jpg	1	1	1	non-food_animate_frog	0	F	3	0	113	0		0	0	86.4892294000019	86.5892152999877
13190	0.0999720999971032	45	hunger	stimuli/non_foods\non-food_animate_penguin.jpg	1	1	1	non-food_animate_penguin	0	M	9	0	135	0		0	0	86.6392435000162	86.7392156000133
13227.5	0.0999880000017583	46	hunger	stimuli/non_foods\non-food_animate_young_boy.jpg	1	1	1	non-food_animate_young_boy	0	J	6	0	156	0		0	0	86.7892251000158	86.8892131000175
13265	0.0999859000439756	47	hunger	stimuli/foods\tomato.jpg	1	1	1	tomato	1	K	7	0	276	0		0	0	86.9392253999831	87.0392113000271
13302.5	0.0999841000302695	48	hunger	stimuli/non_foods\non-food_inanimate_horn.jpg	1	1	1	non-food_inanimate_horn	0	F	3	0	190	0		0	0	87.0892232999904	87.1892074000207
13340	0.10003269999288	49	hunger	stimuli/non_foods\non-food_inanimate_waterlily.jpg	1	1	1	non-food_inanimate_waterlily	0	D	2	0	226	0		0	0	87.2392150000087	87.3392477000016
13377.5	0.0999786999891512	50	hunger	stimuli/non_foods\non-food_animate_Asian_man.jpg	1	1	1	non-food_animate_Asian_man	0	L	8	0	88	0		0	0	87.3892296000267	87.4892083000159
13415	0.0999905000207946	51	hunger	stimuli/foods\fennel.jpg	1	1	1	fennel	1	B	0	0	47	0		0	0	87.5392147999955	87.6392053000163
13452.5	0.0999870999949053	52	hunger	stimuli/non_foods\non-food_animate_dolphin.jpg	1	1	1	non-food_animate_dolphin	0	P	11	0	106	0		0	0	87.6892181999865	87.7892052999814
13490	0.099983100022655	53	hunger	stimuli/foods\chilli.jpg	1	1	1	chilli	1	C	1	0	25	0		0	0	87.8392152999877	87.9391984000104
13527.5	0.0999868000508286	54	hunger	stimuli/foods\cereal.jpg	1	1	1	cereal	1	V	15	0	22	0		0	0	87.9892103999737	88.0891972000245
13565	0.099983699969016	55	hunger	stimuli/foods\salami.jpg	1	1	1	salami	1	F	3	0	263	0		0	0	88.1392134000198	88.2391970999888
13602.5	0.0999883000040427	56	hunger	stimuli/non_foods\non-food_inanimate_tent.jpg	1	1	1	non-food_inanimate_tent	0	Z	18	0	219	0		0	0	88.289208000002	88.389196300006
13640	0.0999701999826357	57	hunger	stimuli/non_foods\non-food_inanimate_rope.jpg	1	1	1	non-food_inanimate_rope	0	N	10	0	204	0		0	0	88.4392259999877	88.5391961999703
13677.5	0.0999861999880522	58	hunger	stimuli/non_foods\non-food_inanimate_headphones.jpg	1	1	1	non-food_inanimate_headphones	0	X	17	0	188	0		0	0	88.5892052000272	88.6891914000153
13715	0.0999872999964282	59	hunger	stimuli/foods\raw_ham.jpg	1	1	1	raw_ham	1	W	16	0	253	0		0	0	88.7392031999771	88.8391904999735
13752.5	0.0999882000032812	60	hunger	stimuli/foods\chocolate_bar.jpg	1	1	1	chocolate_bar	1	X	17	0	26	1	a	0	0	88.8892019999912	88.9891901999945
13790	0.0999960000044666	61	hunger	stimuli/foods\pineapple.jpg	1	1	1	pineapple	1	F	3	0	243	0		0	0	89.0392165000085	89.1392125000129
13827.5	0.0999456000281498	62	hunger	stimuli/non_foods\non-food_inanimate_towel.jpg	1	1	1	non-food_inanimate_towel	0	K	7	0	221	0		0	0	89.1892389999703	89.2891845999984
13865	0.0999837999697775	63	hunger	stimuli/non_foods\non-food_animate_duck.jpg	1	1	1	non-food_animate_duck	0	N	10	0	109	0		0	0	89.3392025000066	89.4391862999764
13902.5	0.0999861999880522	64	hunger	stimuli/foods\mushroom.jpg	1	1	1	mushroom	1	V	15	0	85	0		0	0	89.489196199982	89.58918239997
13940	0.099987699999474	65	hunger	stimuli/non_foods\non-food_animate_raccoon.jpg	1	1	1	non-food_animate_raccoon	0	B	0	0	139	0		0	0	89.6391952999984	89.7391829999979
13977.5	0.0999899000162259	66	hunger	stimuli/non_foods\non-food_animate_mammoth.jpg	1	1	1	non-food_animate_mammoth	0	R	12	0	128	0		0	0	89.7891904999851	89.8891804000014
14015	0.0999859000439756	67	hunger	stimuli/non_foods\non-food_inanimate_teddy_bear.jpg	1	1	1	non-food_inanimate_teddy_bear	0	V	15	0	218	0		0	0	89.939193499973	90.039179400017
14052.5	0.099984799977392	68	hunger	stimuli/foods\potatoes.jpg	1	1	1	potatoes	1	G	4	0	248	0		0	0	90.0891935999971	90.1891783999745
14090	0.0999736999510787	69	hunger	stimuli/non_foods\non-food_inanimate_buds.jpg	1	1	1	non-food_inanimate_buds	0	T	14	0	166	0		0	0	90.2392016000231	90.3391752999742
14127.5	0.0999923999770544	70	hunger	stimuli/non_foods\non-food_animate_donkey.jpg	1	1	1	non-food_animate_donkey	0	B	0	0	107	0		0	0	90.3891833000234	90.4891757000005
14165	0.0999844999751076	71	hunger	stimuli/non_foods\non-food_inanimate_gloves.jpg	1	1	1	non-food_inanimate_gloves	0	L	8	0	183	0		0	0	90.5391872000182	90.6391716999933
14202.5	0.0999861999880522	72	hunger	stimuli/foods\salmon.jpg	1	1	1	salmon	1	X	17	0	264	0		0	0	90.6891880999901	90.7891742999782
14240	0.0999756000237539	73	hunger	stimuli/foods\eggplant.jpg	1	1	1	eggplant	1	W	16	0	46	0		0	0	90.8392085999949	90.9391842000186
14277.5	0.0999570999993011	74	hunger	stimuli/non_foods\non-food_animate_clown.jpg	1	1	1	non-food_animate_clown	0	T	14	0	102	0		0	0	90.9892084000167	91.089165500016
14315	0.0999899000162259	75	hunger	stimuli/non_foods\non-food_inanimate_nailpolish.jpg	1	1	1	non-food_inanimate_nailpolish	0	O	22	1	195	0		0	0	91.139177199977	91.2391670999932
14352.5	0.0999841999728233	76	hunger	stimuli/non_foods\non-food_inanimate_chair.jpg	1	1	1	non-food_inanimate_chair	0	V	15	0	172	0		0	0	91.2891791000147	91.3891632999876
14390	0.0999756999663077	77	hunger	stimuli/non_foods\non-food_animate_elephant.jpg	1	1	1	non-food_animate_elephant	0	G	4	0	111	0		0	0	91.4391772000236	91.5391528999899
14427.5	0.0999891999526881	78	hunger	stimuli/foods\baked_lamb_with_potatoes.jpg	1	1	1	baked_lamb_with_potatoes	1	M	9	0	8	1	a	0.541825900028925	1	91.5891744000255	91.6891635999782
14465	0.0999818999553099	79	hunger	stimuli/non_foods\non-food_animate_lion.jpg	1	1	1	non-food_animate_lion	0	J	6	0	125	0		0	0	91.7391785000218	91.8391603999771
14502.5	0.100004500010982	80	hunger	stimuli/foods\capsicum.jpg	1	1	1	capsicum	1	G	4	0	18	0		0	0	91.8891733000055	91.9891778000165
14540	0.0999685999704525	81	hunger	stimuli/foods\honey.jpg	1	1	1	honey	1	L	8	0	66	0		0	0	92.0391876000213	92.1391561999917
14577.5	0.0999892000108957	82	hunger	stimuli/foods\cream_donuts.jpg	1	1	1	cream_donuts	1	G	4	0	39	0		0	0	92.1891672000056	92.2891564000165
14615	0.0999830000218935	83	hunger	stimuli/foods\artichoke.jpg	1	1	1	artichoke	1	H	5	0	3	0		0	0	92.3391703999951	92.4391534000169
14652.5	0.099984799977392	84	hunger	stimuli/non_foods\non-food_animate_yellow_bug.jpg	1	1	1	non-food_animate_yellow_bug	0	N	10	0	155	0		0	0	92.4891684000031	92.5891531999805
14690	0.0999643999966793	85	hunger	stimuli/non_foods\non-food_inanimate_bamboo.jpg	1	1	1	non-food_inanimate_bamboo	0	R	12	0	159	0		0	0	92.6392010999843	92.739165499981
14727.5	0.0999848999781534	86	hunger	stimuli/foods\brussel_sprouts.jpg	1	1	1	brussel_sprouts	1	H	5	0	15	0		0	0	92.7891653000261	92.8891502000042
14765	0.0999881000025198	87	hunger	stimuli/foods\lamb_chops.jpg	1	1	1	lamb_chops	1	S	13	0	70	0		0	0	92.939160400012	93.0391485000146
14802.5	0.0999875999987125	88	hunger	stimuli/foods\celery.jpg	1	1	1	celery	1	X	17	0	21	0		0	0	93.0891604999779	93.1891480999766
14840	0.0999837999697775	89	hunger	stimuli/non_foods\non-food_animate_skunk.jpg	1	1	1	non-food_animate_skunk	0	V	15	0	147	0		0	0	93.2391633000225	93.3391470999923
14877.5	0.099984799977392	90	hunger	stimuli/non_foods\non-food_animate_caterpillar.jpg	1	1	1	non-food_animate_caterpillar	0	B	0	0	99	0		0	0	93.3891574000008	93.4891421999782
14915	0.0999841999728233	91	hunger	stimuli/foods\potato_and_green_bean_salad.jpg	1	1	1	potato_and_green_bean_salad	1	Z	18	0	246	0		0	0	93.5391572000226	93.6391413999954
14952.5	0.0999870999949053	92	hunger	stimuli/non_foods\non-food_inanimate_guitar.jpg	1	1	1	non-food_inanimate_guitar	0	F	3	0	185	0		0	0	93.6891546000261	93.789141700021
14990	0.099986599991098	93	hunger	stimuli/non_foods\non-food_animate_young_girl.jpg	1	1	1	non-food_animate_young_girl	0	L	8	0	157	0		0	0	93.8391565000056	93.9391430999967
15027.5	0.0999844999751076	94	hunger	stimuli/non_foods\non-food_animate_alligator.jpg	1	1	1	non-food_animate_alligator	0	T	14	0	90	0		0	0	93.9891536000068	94.0891380999819
15065	0.0999850999796763	95	hunger	stimuli/foods\garlic.jpg	1	1	1	garlic	1	D	2	0	56	0		0	0	94.139150300005	94.2391353999847
15102.5	0.10000299999956	96	hunger	stimuli/non_foods\non-food_inanimate_jeans.jpg	1	1	1	non-food_inanimate_jeans	0	V	15	0	191	0		0	0	94.289146199997	94.3891491999966
15140	0.0999385000322945	97	hunger	stimuli/non_foods\non-food_inanimate_shell.jpg	1	1	1	non-food_inanimate_shell	0	F	3	0	206	0		0	0	94.439195599989	94.5391341000213
15177.5	0.0999889000086114	98	hunger	stimuli/foods\pear.jpg	1	1	1	pear	1	R	12	0	239	0		0	0	94.5891415000078	94.6891304000164
15215	0.0999873999971896	99	hunger	stimuli/non_foods\non-food_animate_cheetah.jpg	1	1	1	non-food_animate_cheetah	0	H	5	0	100	0		0	0	94.7391448999988	94.839132299996
15252.5	0.0999861999880522	100	hunger	stimuli/non_foods\non-food_animate_horse.jpg	1	1	1	non-food_animate_horse	0	R	12	0	119	0		0	0	94.8891421000008	94.9891282999888
15290	0.0999891000101343	101	hunger	stimuli/non_foods\non-food_animate_baby_sitting.jpg	1	1	1	non-food_animate_baby_sitting	0	V	15	0	93	0		0	0	95.039139200002	95.1391283000121
15327.5	0.0999882000032812	102	hunger	stimuli/foods\oregano.jpg	1	1	1	oregano	1	K	7	0	231	0		0	0	95.1891422999906	95.2891304999939
15365	0.0999857000424527	103	hunger	stimuli/foods\gnocchi.jpg	1	1	1	gnocchi	1	X	17	0	58	0		0	0	95.3391366999713	95.4391224000137
15402.5	0.0999880000017583	104	hunger	stimuli/foods\wafer.jpg	1	1	1	wafer	1	V	15	0	277	0		0	0	95.4891352999839	95.5891232999857
15440	0.0999852999811992	105	hunger	stimuli/foods\mandarin.jpg	1	1	1	mandarin	1	H	5	0	79	0		0	0	95.6391351000057	95.7391203999869
15477.5	0.0999835999682546	106	hunger	stimuli/non_foods\non-food_animate_tortoise.jpg	1	1	1	non-food_animate_tortoise	0	F	3	0	153	0		0	0	95.7891337000183	95.8891172999865
15515	0.0999901999603026	107	hunger	stimuli/non_foods\non-food_animate_sea_lion.jpg	1	1	1	non-food_animate_sea_lion	0	R	12	0	143	0		0	0	95.9391302000149	96.0391203999752
15552.5	0.0999815999530256	108	hunger	stimuli/non_foods\non-food_animate_runner.jpg	1	1	1	non-food_animate_runner	0	C	1	0	142	0		0	0	96.0891287000268	96.1891102999798
15590	0.0999443999608047	109	hunger	stimuli/foods\fruit_salad.jpg	1	1	1	fruit_salad	1	D	2	0	55	0		0	0	96.2391709000221	96.339115299983
15627.5	0.0999891000101343	110	hunger	stimuli/non_foods\non-food_inanimate_fire_extinguisher.jpg	1	1	1	non-food_inanimate_fire_extinguisher	0	S	13	0	181	0		0	0	96.3891252999892	96.4891143999994
15665	0.0999916000291705	111	hunger	stimuli/non_foods\non-food_animate_kangaroo.jpg	1	1	1	non-food_animate_kangaroo	0	B	0	0	122	0		0	0	96.5391228999943	96.6391145000234
15702.5	0.0999844000325538	112	hunger	stimuli/non_foods\non-food_animate_seal.jpg	1	1	1	non-food_animate_seal	0	X	17	0	146	0		0	0	96.6891254999791	96.7891099000117
15740	0.0999819000135176	113	hunger	stimuli/non_foods\non-food_animate_cat.jpg	1	1	1	non-food_animate_cat	0	G	4	0	98	0		0	0	96.8391232999857	96.9391051999992
15777.5	0.0999837000272237	114	hunger	stimuli/foods\cracker.jpg	1	1	1	cracker	1	B	0	0	38	0		0	0	96.9891206999891	97.0891044000164
15815	0.0999868999933824	115	hunger	stimuli/non_foods\non-food_inanimate_bowling_ball.jpg	1	1	1	non-food_inanimate_bowling_ball	0	J	6	0	162	0		0	0	97.1391194000025	97.2391062999959
15852.5	0.0999755000229925	116	hunger	stimuli/foods\avocado.jpg	1	1	1	avocado	1	N	10	0	5	0		0	0	97.2891275999718	97.3891030999948
15890	0.0999881999450736	117	hunger	stimuli/foods\savory_pie.jpg	1	1	1	savory_pie	1	L	8	0	265	0		0	0	97.4391162000247	97.5391043999698
15927.5	0.0999862000462599	118	hunger	stimuli/non_foods\non-food_inanimate_watering_can.jpg	1	1	1	non-food_inanimate_watering_can	0	N	10	0	225	0		0	0	97.5891141999746	97.6891004000208
15965	0.0999879000009969	119	hunger	stimuli/non_foods\non-food_inanimate_nest.jpg	1	1	1	non-food_inanimate_nest	0	P	11	0	196	0		0	0	97.7391123999842	97.8391002999851
16002.5	0.100009399990086	120	hunger	stimuli/non_foods\non-food_inanimate_table.jpg	1	1	1	non-food_inanimate_table	0	Z	18	0	217	0		0	0	97.8891120000044	97.9891213999945
16040	0.0999420000007376	121	hunger	stimuli/foods\rockmelon.jpg	1	1	1	rockmelon	1	G	4	0	262	0		0	0	98.0391531999921	98.1390951999929
16077.5	0.0999878000002354	122	hunger	stimuli/non_foods\non-food_inanimate_construction_helment.jpg	1	1	1	non-food_inanimate_construction_helment	0	L	8	0	175	0		0	0	98.1891054000007	98.2890932000009
16115	0.0999858999857679	123	hunger	stimuli/foods\frankfurter_and_provolone_salad.jpg	1	1	1	frankfurter_and_provolone_salad	1	Z	18	0	49	0		0	0	98.339109499997	98.4390953999828
16152.5	0.0999850000371225	124	hunger	stimuli/foods\swordfish.jpg	1	1	1	swordfish	1	L	8	0	273	0		0	0	98.4891042999807	98.5890893000178
16190	0.0999898000154644	125	hunger	stimuli/foods\oyster.jpg	1	1	1	oyster	1	P	11	0	233	0		0	0	98.6391033999971	98.7390932000126
16227.5	0.0999888000078499	126	hunger	stimuli/foods\chocolate_chip_cookies.jpg	1	1	1	chocolate_chip_cookies	1	O	22	1	27	0		0	0	98.7891016000067	98.8890904000145
16265	0.0999868999933824	127	hunger	stimuli/foods\waffle.jpg	1	1	1	waffle	1	X	17	0	278	0		0	0	98.9391005000216	99.039087400015
16302.5	0.0999716000515036	128	hunger	stimuli/foods\hamburger.jpg	1	1	1	hamburger	1	B	0	0	64	0		0	0	99.08911359997	99.1890852000215
16340	0.0999872000538744	129	hunger	stimuli/non_foods\non-food_inanimate_suitcase.jpg	1	1	1	non-food_inanimate_suitcase	0	R	12	0	215	1	a	0.541812999988906	1	99.2390951999696	99.3390824000235
16377.5	0.0999888000078499	130	hunger	stimuli/foods\lollies.jpg	1	1	1	lollies	1	B	0	0	78	0		0	0	99.3890954999952	99.489084300003
16415	0.0999829999636859	131	hunger	stimuli/foods\watermelon.jpg	1	1	1	watermelon	1	T	14	0	279	0		0	0	99.5390947000124	99.639077699976
16452.5	0.100011400005314	132	hunger	stimuli/foods\chestnut.jpg	1	1	1	chestnut	1	V	15	0	24	0		0	0	99.6891077000182	99.7891191000235
16490	0.0999611999723129	133	hunger	stimuli/foods\fried_calamari.jpg	1	1	1	fried_calamari	1	P	11	0	50	0		0	0	99.8391181000043	99.9390792999766
16527.5	0.0999872999964282	134	hunger	stimuli/foods\dates.jpg	1	1	1	dates	1	F	3	0	43	0		0	0	99.9890882999753	100.089075599972
16565	0.0999838999705389	135	hunger	stimuli/foods\minestrone_soup.jpg	1	1	1	minestrone_soup	1	X	17	0	82	0		0	0	100.139089300006	100.239073199977
16602.5	0.0999820999568328	136	hunger	stimuli/foods\clams.jpg	1	1	1	clams	1	M	9	0	32	0		0	0	100.289087400015	100.389069499972
16640	0.0999833999667317	137	hunger	stimuli/non_foods\non-food_inanimate_orchid.jpg	1	1	1	non-food_inanimate_orchid	0	F	3	0	198	0		0	0	100.439084100013	100.53906749998
16677.5	0.0999888000078499	138	hunger	stimuli/non_foods\non-food_inanimate_soccer_ball.jpg	1	1	1	non-food_inanimate_soccer_ball	0	P	11	0	210	0		0	0	100.589081600017	100.689070400025
16715	0.0999867999926209	139	hunger	stimuli/foods\donut.jpg	1	1	1	donut	1	N	10	0	44	0		0	0	100.73908259999	100.839069399983
17385.75	0.0999763999716379	140	hunger	stimuli/non_foods\non-food_inanimate_clover.jpg	1	2	1	non-food_inanimate_clover	0	M	9	0	174	0		0	0	103.422395700007	103.522372099978
17423.25	0.099990600021556	141	hunger	stimuli/foods\beetroots.jpg	1	2	1	beetroots	1	S	13	0	10	0		0	0	103.572388199973	103.672378799994
17460.75	0.0999785999883898	142	hunger	stimuli/non_foods\non-food_inanimate_bicycle.jpg	1	2	1	non-food_inanimate_bicycle	0	K	7	0	161	0		0	0	103.722388399998	103.822366999986
17498.25	0.0999658999498934	143	hunger	stimuli/foods\spring_onions.jpg	1	2	1	spring_onions	1	D	2	0	269	0		0	0	103.872404200025	103.972370099975
17535.75	0.0999769999762066	144	hunger	stimuli/non_foods\non-food_inanimate_button.jpg	1	2	1	non-food_inanimate_button	0	F	3	0	168	0		0	0	104.022382299998	104.122359299974
17573.25	0.0999680000240915	145	hunger	stimuli/non_foods\non-food_inanimate_bush.jpg	1	2	1	non-food_inanimate_bush	0	L	8	0	167	0		0	0	104.172384899983	104.272352900007
17610.75	0.100002599996515	146	hunger	stimuli/non_foods\non-food_inanimate_highlighter.jpg	1	2	1	non-food_inanimate_highlighter	0	B	0	0	189	0		0	0	104.322361400002	104.422363999998
17648.25	0.0999742000130937	147	hunger	stimuli/foods\blackberry.jpg	1	2	1	blackberry	1	C	1	0	11	0		0	0	104.472377599974	104.572351799987
17685.75	0.0999803000013344	148	hunger	stimuli/foods\nectarine.jpg	1	2	1	nectarine	1	H	5	0	87	0		0	0	104.622380000015	104.722360300017
17723.25	0.100002600054722	149	hunger	stimuli/foods\almonds.jpg	1	2	1	almonds	1	D	2	0	0	0		0	0	104.772371099971	104.872373700025
17760.75	0.0999864999903366	150	hunger	stimuli/non_foods\non-food_animate_chicken.jpg	1	2	1	non-food_animate_chicken	0	C	1	0	101	0		0	0	104.922371599998	105.022358099988
17798.25	0.0999796999967657	151	hunger	stimuli/non_foods\non-food_animate_gorilla.jpg	1	2	1	non-food_animate_gorilla	0	W	16	0	116	0		0	0	105.072378200013	105.17235790001
17835.75	0.0999858000432141	152	hunger	stimuli/non_foods\non-food_animate_polar_bear.jpg	1	2	1	non-food_animate_polar_bear	0	T	14	0	137	0		0	0	105.222370299976	105.32235610002
17873.25	0.0999702999833971	153	hunger	stimuli/foods\cucumber.jpg	1	2	1	cucumber	1	M	9	0	41	0		0	0	105.372368599987	105.47233889997
17910.75	0.100010299996939	154	hunger	stimuli/foods\fries.jpg	1	2	1	fries	1	S	13	0	52	0		0	0	105.5223597	105.622369999997
17948.25	0.0999655000050552	155	hunger	stimuli/foods\orange.jpg	1	2	1	orange	1	T	14	0	230	0		0	0	105.672354399983	105.772319899988
17985.75	0.0999873999971896	156	hunger	stimuli/foods\omelette.jpg	1	2	1	omelette	1	R	12	0	228	0		0	0	105.822361700004	105.922349100001
18023.25	0.0999871999956667	157	hunger	stimuli/foods\toasted_bread_with_tomatoes.jpg	1	2	1	toasted_bread_with_tomatoes	1	T	14	0	275	0		0	0	105.972360900021	106.072348100017
18060.75	0.0999853000394069	158	hunger	stimuli/foods\coffee_beans.jpg	1	2	1	coffee_beans	1	H	5	0	34	0		0	0	106.122358699969	106.222344000009
18098.25	0.099988600006327	159	hunger	stimuli/non_foods\non-food_animate_killer_whale.jpg	1	2	1	non-food_animate_killer_whale	0	G	4	0	123	0		0	0	106.272358499991	106.372347099998
18135.75	0.0999846000340767	160	hunger	stimuli/foods\hotdog.jpg	1	2	1	hotdog	1	F	3	0	67	0		0	0	106.422354299983	106.522338900017
18173.25	0.0999888000078499	161	hunger	stimuli/foods\mango.jpg	1	2	1	mango	1	K	7	0	80	0		0	0	106.572352599993	106.672341400001
18210.75	0.0999844999751076	162	hunger	stimuli/non_foods\non-food_inanimate_hay.jpg	1	2	1	non-food_inanimate_hay	0	Z	18	0	187	0		0	0	106.722353700025	106.8223382
18248.25	0.0999866999918595	163	hunger	stimuli/non_foods\non-food_inanimate_stapler.jpg	1	2	1	non-food_inanimate_stapler	0	D	2	0	213	0		0	0	106.872349300014	106.972336000006
18285.75	0.0999849000363611	164	hunger	stimuli/foods\hazelnuts.jpg	1	2	1	hazelnuts	1	L	8	0	65	0		0	0	107.022350099985	107.122335000022
18323.25	0.0999975000158884	165	hunger	stimuli/foods\pomegranate.jpg	1	2	1	pomegranate	1	W	16	0	244	0		0	0	107.172348399996	107.272345900012
18360.75	0.099965900008101	166	hunger	stimuli/non_foods\non-food_inanimate_tree.jpg	1	2	1	non-food_inanimate_tree	0	P	11	0	223	0		0	0	107.322374799987	107.422340699995
18398.25	0.0999924999778159	167	hunger	stimuli/foods\onion.jpg	1	2	1	onion	1	K	7	0	229	0		0	0	107.472338700027	107.572331200005
18435.75	0.0999825000180863	168	hunger	stimuli/foods\lasagna.jpg	1	2	1	lasagna	1	L	8	0	71	0		0	0	107.622345999989	107.722328500007
18473.25	0.0999867000500672	169	hunger	stimuli/foods\chocolate_pudding.jpg	1	2	1	chocolate_pudding	1	D	2	0	29	0		0	0	107.77234039997	107.87232710002
18510.75	0.0999915000284091	170	hunger	stimuli/non_foods\non-food_animate_Causasian_man.jpg	1	2	1	non-food_animate_Causasian_man	0	C	1	0	89	0		0	0	107.922339499986	108.022331000015
18548.25	0.100015699979849	171	hunger	stimuli/foods\peas.jpg	1	2	1	peas	1	F	3	0	240	0		0	0	108.072307199996	108.172322899976
18585.75	0.0999836000264622	172	hunger	stimuli/foods\pork_and_rice.jpg	1	2	1	pork_and_rice	1	T	14	0	245	0		0	0	108.222339399974	108.322323
18623.25	0.0999857999850065	173	hunger	stimuli/foods\lentils.jpg	1	2	1	lentils	1	K	7	0	74	0		0	0	108.372335400025	108.47232120001
18660.75	0.0999934999854304	174	hunger	stimuli/foods\raw_sausage.jpg	1	2	1	raw_sausage	1	S	13	0	254	0		0	0	108.522335299989	108.622328799975
18698.25	0.0999785999883898	175	hunger	stimuli/non_foods\non-food_animate_snail.jpg	1	2	1	non-food_animate_snail	0	R	12	0	149	0		0	0	108.672333499999	108.772312099987
18735.75	0.099984799977392	176	hunger	stimuli/non_foods\non-food_inanimate_leaf.jpg	1	2	1	non-food_inanimate_leaf	0	B	0	0	192	0		0	0	108.822332300013	108.92231709999
18773.25	0.0999930000398308	177	hunger	stimuli/non_foods\non-food_animate_camel.jpg	1	2	1	non-food_animate_camel	0	L	8	0	97	0		0	0	108.972324299975	109.072317300015
18810.75	0.0999315999797545	178	hunger	stimuli/foods\steak.jpg	1	2	1	steak	1	P	11	0	270	0		0	0	109.122379500011	109.222311099991
18848.25	0.0999803000013344	179	hunger	stimuli/foods\egg.jpg	1	2	1	egg	1	X	17	0	45	0		0	0	109.272329800006	109.372310100007
18885.75	0.0999908000230789	180	hunger	stimuli/non_foods\non-food_animate_peacock.jpg	1	2	1	non-food_animate_peacock	0	S	13	0	134	0		0	0	109.422322299972	109.522313099995
18923.25	0.0999707000446506	181	hunger	stimuli/non_foods\non-food_inanimate_folding_chair.jpg	1	2	1	non-food_inanimate_folding_chair	0	G	4	0	182	0		0	0	109.572327299975	109.67229800002
18960.75	0.0999879000009969	182	hunger	stimuli/non_foods\non-food_animate_eagle.jpg	1	2	1	non-food_animate_eagle	0	H	5	0	110	0		0	0	109.7223123	109.822300200001
18998.25	0.100005200016312	183	hunger	stimuli/foods\carrot.jpg	1	2	1	carrot	1	Z	18	0	19	0		0	0	109.872301099997	109.972306300013
19035.75	0.0999789999914356	184	hunger	stimuli/non_foods\non-food_animate_rhino.jpg	1	2	1	non-food_animate_rhino	0	D	2	0	141	0		0	0	110.022323900019	110.12230290001
19073.25	0.0999579000053927	185	hunger	stimuli/foods\roasted_chicken.jpg	1	2	1	roasted_chicken	1	V	15	0	261	0		0	0	110.172341099998	110.272299000004
19110.75	0.0999818000127561	186	hunger	stimuli/foods\chocolate_pralines.jpg	1	2	1	chocolate_pralines	1	S	13	0	28	0		0	0	110.322317000013	110.422298800026
19148.25	0.0999949999968521	187	hunger	stimuli/foods\red_cabbage.jpg	1	2	1	red_cabbage	1	K	7	0	256	0		0	0	110.472311299993	110.57230629999
19185.75	0.0999789999914356	188	hunger	stimuli/non_foods\non-food_inanimate_briefcase.jpg	1	2	1	non-food_inanimate_briefcase	0	B	0	0	163	0		0	0	110.622318400012	110.722297400003
19223.25	0.100004700012505	189	hunger	stimuli/foods\cherry.jpg	1	2	1	cherry	1	Z	18	0	23	0		0	0	110.772299200005	110.872303900018
19260.75	0.0999352999497205	190	hunger	stimuli/foods\apple.jpg	1	2	1	apple	1	G	4	0	1	0		0	0	110.922360200027	111.022295499977
19298.25	0.0999852000386454	191	hunger	stimuli/non_foods\non-food_animate_monkey.jpg	1	2	1	non-food_animate_monkey	0	F	3	0	130	0		0	0	111.072306099988	111.172291300027
19335.75	0.0999827000196092	192	hunger	stimuli/foods\cooked_ham.jpg	1	2	1	cooked_ham	1	G	4	0	35	0		0	0	111.22230829997	111.322290999989
19373.25	0.0999867999926209	193	hunger	stimuli/foods\brie.jpg	1	2	1	brie	1	W	16	0	12	0		0	0	111.372304300021	111.472291100014
19410.75	0.0999883000040427	194	hunger	stimuli/foods\peach.jpg	1	2	1	peach	1	T	14	0	238	0		0	0	111.522302499972	111.622290799976
19448.25	0.0999848999781534	195	hunger	stimuli/foods\strawberry.jpg	1	2	1	strawberry	1	D	2	0	272	0		0	0	111.672302399995	111.772287299973
19485.75	0.0999855999834836	196	hunger	stimuli/foods\coconut.jpg	1	2	1	coconut	1	F	3	0	33	0		0	0	111.822299099993	111.922284699976
19523.25	0.0999798999982886	197	hunger	stimuli/foods\lettuce.jpg	1	2	1	lettuce	1	W	16	0	75	0		0	0	111.972311199992	112.07229109999
19560.75	0.0999873999971896	198	hunger	stimuli/non_foods\non-food_inanimate_wrench.jpg	1	2	1	non-food_inanimate_wrench	0	C	1	0	227	0		0	0	112.122299099981	112.222286499979
19598.25	0.100013100018259	199	hunger	stimuli/non_foods\non-food_inanimate_fern.jpg	1	2	1	non-food_inanimate_fern	0	V	15	0	180	0		0	0	112.272268000001	112.372281100019
19635.75	0.0999851999804378	200	hunger	stimuli/foods\pumpkin.jpg	1	2	1	pumpkin	1	B	0	0	250	0		0	0	112.4222954	112.52228059998
19673.25	0.0999904000200331	201	hunger	stimuli/non_foods\non-food_animate_giraffe.jpg	1	2	1	non-food_animate_giraffe	0	M	9	0	115	0		0	0	112.572297899984	112.672288300004
19710.75	0.0999631999875419	202	hunger	stimuli/non_foods\non-food_inanimate_cupboard.jpg	1	2	1	non-food_inanimate_cupboard	0	H	5	0	177	0		0	0	112.722311999998	112.822275199986
19748.25	0.0999896000139415	203	hunger	stimuli/non_foods\non-food_inanimate_cactus_pot_plant.jpg	1	2	1	non-food_inanimate_cactus_pot_plant	0	F	3	0	169	0		0	0	112.87228760001	112.972277200024
19785.75	0.0999713999917731	204	hunger	stimuli/foods\stew_with_potatoes_and_carrots.jpg	1	2	1	stew_with_potatoes_and_carrots	1	L	8	0	271	0		0	0	113.022290399997	113.122261799988
19823.25	0.0999866000493057	205	hunger	stimuli/non_foods\non-food_animate_green_bug.jpg	1	2	1	non-food_animate_green_bug	0	G	4	0	118	0		0	0	113.172284499975	113.272271100024
19860.75	0.0999859999865294	206	hunger	stimuli/non_foods\non-food_animate_llama.jpg	1	2	1	non-food_animate_llama	0	F	3	0	127	0		0	0	113.322285300004	113.422271299991
19898.25	0.099993199983146	207	hunger	stimuli/non_foods\non-food_inanimate_nettle.jpg	1	2	1	non-food_inanimate_nettle	0	X	17	0	197	0		0	0	113.472281399998	113.572274599981
19935.75	0.0999716999940574	208	hunger	stimuli/non_foods\non-food_inanimate_socks.jpg	1	2	1	non-food_inanimate_socks	0	I	21	1	211	0		0	0	113.622292099986	113.72226379998
19973.25	0.0999856000416912	209	hunger	stimuli/foods\figs.jpg	1	2	1	figs	1	N	10	0	48	0		0	0	113.77227299998	113.872258600022
20010.75	0.0999868999933824	210	hunger	stimuli/foods\pasta_carbonara.jpg	1	2	1	pasta_carbonara	1	X	17	0	236	1	a	0.403066600032616	1	113.922269699979	114.022256599972
20048.25	0.0999855999834836	211	hunger	stimuli/non_foods\non-food_inanimate_padlock.jpg	1	2	1	non-food_inanimate_padlock	0	V	15	0	199	0		0	0	114.072269299999	114.172254899982
20085.75	0.099984799977392	212	hunger	stimuli/foods\fruit_flan.jpg	1	2	1	fruit_flan	1	K	7	0	53	0		0	0	114.222267900012	114.322252699989
20123.25	0.0999779999838211	213	hunger	stimuli/non_foods\non-food_inanimate_stoplight.jpg	1	2	1	non-food_inanimate_stoplight	0	L	8	0	214	0		0	0	114.3722786	114.472256599984
20160.75	0.0999806000036187	214	hunger	stimuli/foods\cinnamon_sroll.jpg	1	2	1	cinnamon_sroll	1	D	2	0	31	0		0	0	114.522271999973	114.622252599976
20198.25	0.0999868999933824	215	hunger	stimuli/non_foods\non-food_animate_squirrel.jpg	1	2	1	non-food_animate_squirrel	0	B	0	0	150	0		0	0	114.672259100014	114.772246000008
20235.75	0.100006999971811	216	hunger	stimuli/foods\grapefruits.jpg	1	2	1	grapefruits	1	T	14	0	59	0		0	0	114.82224780001	114.922254799982
20273.25	0.0999843999743462	217	hunger	stimuli/non_foods\non-food_animate_porcupine.jpg	1	2	1	non-food_animate_porcupine	0	M	9	0	138	0		0	0	114.972266700002	115.072251099977
20310.75	0.0999884000048041	218	hunger	stimuli/non_foods\non-food_animate_sea_turtle.jpg	1	2	1	non-food_animate_sea_turtle	0	W	16	0	144	0		0	0	115.122265500017	115.222253900021
20348.25	0.0999866000493057	219	hunger	stimuli/non_foods\non-food_animate_dachshund.jpg	1	2	1	non-food_animate_dachshund	0	V	15	0	104	0		0	0	115.272264399973	115.372251000023
20385.75	0.09999139996944	220	hunger	stimuli/non_foods\non-food_animate_student_female.jpg	1	2	1	non-food_animate_student_female	0	T	14	0	151	0		0	0	115.422258400009	115.522249799978
20423.25	0.0999861999880522	221	hunger	stimuli/foods\fruit_pie.jpg	1	2	1	fruit_pie	1	Z	18	0	54	0		0	0	115.572264200018	115.672250400006
20460.75	0.099983699969016	222	hunger	stimuli/foods\ice_cream.jpg	1	2	1	ice_cream	1	J	6	0	68	0		0	0	115.722260300012	115.822243999981
20498.25	0.0999868000508286	223	hunger	stimuli/foods\kiwi.jpg	1	2	1	kiwi	1	R	12	0	69	0		0	0	115.87225939997	115.972246200021
20535.75	0.0999753000214696	224	hunger	stimuli/non_foods\non-food_animate_bee.jpg	1	2	1	non-food_animate_bee	0	N	10	0	95	0		0	0	116.022258499986	116.122233800008
20573.25	0.0999759000260383	225	hunger	stimuli/non_foods\non-food_animate_dragonfly.jpg	1	2	1	non-food_animate_dragonfly	0	L	8	0	108	0		0	0	116.172271399992	116.272247300018
20610.75	0.0999599999631755	226	hunger	stimuli/foods\baked_cod_with_carrots_and_green_beans.jpg	1	2	1	baked_cod_with_carrots_and_green_beans	1	W	16	0	7	0		0	0	116.322279300017	116.42223929998
20648.25	0.0999936999869533	227	hunger	stimuli/foods\pepperoni_pizza.jpg	1	2	1	pepperoni_pizza	1	N	10	0	241	0		0	0	116.472252100008	116.572245799995
20685.75	0.0999797999975272	228	hunger	stimuli/non_foods\non-food_inanimate_grass.jpg	1	2	1	non-food_inanimate_grass	0	A	19	1	184	0		0	0	116.622253499983	116.722233299981
20723.25	0.0999775999807753	229	hunger	stimuli/foods\cupcake.jpg	1	2	1	cupcake	1	V	15	0	42	0		0	0	116.772246900015	116.872224499995
20760.75	0.0999536999734119	230	hunger	stimuli/non_foods\non-food_animate_slug.jpg	1	2	1	non-food_animate_slug	0	C	1	0	148	0		0	0	116.922250700009	117.022204399982
20798.25	0.0999859999865294	231	hunger	stimuli/non_foods\non-food_inanimate_alarm_clock.jpg	1	2	1	non-food_inanimate_alarm_clock	0	H	5	0	158	1	a	0.541820999991614	1	117.072246099997	117.172232099983
20835.75	0.100024299987126	232	hunger	stimuli/non_foods\non-food_inanimate_skateboard.jpg	1	2	1	non-food_inanimate_skateboard	0	K	7	0	208	0		0	0	117.222236600006	117.322260899993
20873.25	0.0999849999789149	233	hunger	stimuli/non_foods\non-food_inanimate_short_sleeved_shirt.jpg	1	2	1	non-food_inanimate_short_sleeved_shirt	0	P	11	0	207	0		0	0	117.37224300002	117.472227999999
20910.75	0.0999832000234164	234	hunger	stimuli/non_foods\non-food_inanimate_toilet.jpg	1	2	1	non-food_inanimate_toilet	0	Z	18	0	220	0		0	0	117.522243399988	117.622226600011
20948.25	0.100003700004891	235	hunger	stimuli/foods\linguine_with_clams.jpg	1	2	1	linguine_with_clams	1	D	2	0	77	0		0	0	117.672238299972	117.772241999977
20985.75	0.100020400015637	236	hunger	stimuli/non_foods\non-food_animate_owl.jpg	1	2	1	non-food_animate_owl	0	P	11	0	132	0		0	0	117.82223619998	117.922256599995
21023.25	0.0999878000002354	237	hunger	stimuli/foods\green_olives.jpg	1	2	1	green_olives	1	M	9	0	62	0		0	0	117.972235399997	118.072223199997
21060.75	0.0999823000165634	238	hunger	stimuli/foods\brownie.jpg	1	2	1	brownie	1	H	5	0	14	0		0	0	118.122239799995	118.222222100012
21098.25	0.100008499983232	239	hunger	stimuli/non_foods\non-food_inanimate_chandelier.jpg	1	2	1	non-food_inanimate_chandelier	0	S	13	0	173	0		0	0	118.272207600006	118.37221609999
21135.75	0.0999660000088625	240	hunger	stimuli/foods\cauliflower.jpg	1	2	1	cauliflower	1	M	9	0	20	0		0	0	118.422232099983	118.522198099992
21173.25	0.0999878000002354	241	hunger	stimuli/non_foods\non-food_inanimate_toy_airplane.jpg	1	2	1	non-food_inanimate_toy_airplane	0	X	17	0	222	0		0	0	118.572228399978	118.672216199979
21210.75	0.099987699999474	242	hunger	stimuli/non_foods\non-food_inanimate_moss.jpg	1	2	1	non-food_inanimate_moss	0	Z	18	0	194	0		0	0	118.722230300016	118.822218000016
21248.25	0.0999881000025198	243	hunger	stimuli/non_foods\non-food_animate_lizard.jpg	1	2	1	non-food_animate_lizard	0	F	3	0	126	0		0	0	118.872223999992	118.972212099994
21285.75	0.0999966000090353	244	hunger	stimuli/non_foods\non-food_animate_seahorse.jpg	1	2	1	non-food_animate_seahorse	0	D	2	0	145	0		0	0	119.022227299982	119.122223899991
21323.25	0.0999850000371225	245	hunger	stimuli/non_foods\non-food_inanimate_skirt.jpg	1	2	1	non-food_inanimate_skirt	0	Z	18	0	209	0		0	0	119.172224199981	119.272209200019
21360.75	0.0999769000336528	246	hunger	stimuli/non_foods\non-food_animate_iguana.jpg	1	2	1	non-food_animate_iguana	0	R	12	0	121	0		0	0	119.322229199985	119.422206100018
21398.25	0.0999901000177488	247	hunger	stimuli/non_foods\non-food_inanimate_ring.jpg	1	2	1	non-food_inanimate_ring	0	K	7	0	203	0		0	0	119.472219099989	119.572209200007
21435.75	0.0999828000203706	248	hunger	stimuli/foods\corncob.jpg	1	2	1	corncob	1	N	10	0	37	0		0	0	119.622224899998	119.722207700019
21473.25	0.0999748000176623	249	hunger	stimuli/non_foods\non-food_animate_german_shepherd.jpg	1	2	1	non-food_animate_german_shepherd	0	W	16	0	114	0		0	0	119.772229499999	119.872204300016
21510.75	0.0999874999979511	250	hunger	stimuli/non_foods\non-food_inanimate_broom.jpg	1	2	1	non-food_inanimate_broom	0	T	14	0	164	0		0	0	119.922215499973	120.022202999971
21548.25	0.0999845999758691	251	hunger	stimuli/non_foods\non-food_inanimate_drum_set.jpg	1	2	1	non-food_inanimate_drum_set	0	P	11	0	179	0		0	0	120.072215299995	120.172199899971
21585.75	0.100020200014114	252	hunger	stimuli/non_foods\non-food_inanimate_couch.jpg	1	2	1	non-food_inanimate_couch	0	B	0	0	176	0		0	0	120.222212199995	120.322232400009
21623.25	0.0999767999746837	253	hunger	stimuli/foods\pancakes.jpg	1	2	1	pancakes	1	J	6	0	234	0		0	0	120.372212000017	120.472188799991
21660.75	0.0999881000025198	254	hunger	stimuli/non_foods\non-food_inanimate_sun_flower.jpg	1	2	1	non-food_inanimate_sun_flower	0	D	2	0	216	0		0	0	120.522208900016	120.622197000019
21698.25	0.10000299999956	255	hunger	stimuli/foods\lemon_meringue_pie.jpg	1	2	1	lemon_meringue_pie	1	J	6	0	73	0		0	0	120.672190200014	120.772193200013
21735.75	0.0999835000257008	256	hunger	stimuli/non_foods\non-food_inanimate_lighter.jpg	1	2	1	non-food_inanimate_lighter	0	S	13	0	193	0		0	0	120.822207299992	120.922190800018
21773.25	0.0999866999918595	257	hunger	stimuli/non_foods\non-food_animate_pigeon.jpg	1	2	1	non-food_animate_pigeon	0	B	0	0	136	0		0	0	120.97220650001	121.072193200001
21810.75	0.0999843999743462	258	hunger	stimuli/foods\oven-roasted_tomatoes.jpg	1	2	1	oven-roasted_tomatoes	1	S	13	0	232	0		0	0	121.122203700012	121.222188099986
21848.25	0.0999858000432141	259	hunger	stimuli/non_foods\non-food_animate_ant.jpg	1	2	1	non-food_animate_ant	0	H	5	0	91	0		0	0	121.272204399982	121.372190200025
21885.75	0.10000040003797	260	hunger	stimuli/foods\pea_pod.jpg	1	2	1	pea_pod	1	D	2	0	237	0		0	0	121.422200399975	121.522200800013
21923.25	0.099965000001248	261	hunger	stimuli/non_foods\non-food_animate_ram.jpg	1	2	1	non-food_animate_ram	0	W	16	0	140	0		0	0	121.572219100024	121.672184100025
21960.75	0.0999605000251904	262	hunger	stimuli/non_foods\non-food_animate_millipede.jpg	1	2	1	non-food_animate_millipede	0	P	11	0	129	0		0	0	121.72220259998	121.822163100005
21998.25	0.0999839000287466	263	hunger	stimuli/foods\spaghetti_with_meat_sauce.jpg	1	2	1	spaghetti_with_meat_sauce	1	T	14	0	267	0		0	0	121.872199299978	121.972183200007
22035.75	0.0999816000112332	264	hunger	stimuli/non_foods\non-food_inanimate_desk.jpg	1	2	1	non-food_inanimate_desk	0	S	13	0	178	0		0	0	122.022197499988	122.122179099999
22073.25	0.0999769999762066	265	hunger	stimuli/foods\rice_cake.jpg	1	2	1	rice_cake	1	H	5	0	258	0		0	0	122.172191300022	122.272168299998
22110.75	0.0999933999846689	266	hunger	stimuli/foods\bagel.jpg	1	2	1	bagel	1	V	15	0	6	0		0	0	122.32218409999	122.422177499975
22148.25	0.0999854999827221	267	hunger	stimuli/non_foods\non-food_animate_hummingbird.jpg	1	2	1	non-food_animate_hummingbird	0	C	1	0	120	0		0	0	122.472192500019	122.572178000002
22185.75	0.0999766999739222	268	hunger	stimuli/foods\museli_bars.jpg	1	2	1	museli_bars	1	G	4	0	84	0		0	0	122.622190400027	122.722167100001
22223.25	0.0999818000127561	269	hunger	stimuli/foods\prawn.jpg	1	2	1	prawn	1	M	9	0	249	0		0	0	122.772180599975	122.872162399988
22260.75	0.0999808000051416	270	hunger	stimuli/foods\radish.jpg	1	2	1	radish	1	X	17	0	251	0		0	0	122.922177199973	123.022157999978
22298.25	0.100008700042963	271	hunger	stimuli/foods\cabbage.jpg	1	2	1	cabbage	1	M	9	0	16	0		0	0	123.072160299984	123.172169000027
22335.75	0.100018900004216	272	hunger	stimuli/foods\mortadella.jpg	1	2	1	mortadella	1	D	2	0	83	0		0	0	123.222181199992	123.322200099996
22373.25	0.0999417999992147	273	hunger	stimuli/foods\pickles.jpg	1	2	1	pickles	1	S	13	0	242	0		0	0	123.372227500018	123.472169300017
22410.75	0.099962400039658	274	hunger	stimuli/non_foods\non-food_inanimate_scissors.jpg	1	2	1	non-food_inanimate_scissors	0	K	7	0	205	0		0	0	123.522182199988	123.622144600027
22448.25	0.0999998999759555	275	hunger	stimuli/non_foods\non-food_inanimate_bucket.jpg	1	2	1	non-food_inanimate_bucket	0	R	12	0	165	0		0	0	123.672165399999	123.772165299975
22485.75	0.0999857000424527	276	hunger	stimuli/foods\banana.jpg	1	2	1	banana	1	N	10	0	9	0		0	0	123.822175399982	123.922161100025
22523.25	0.0999838999705389	277	hunger	stimuli/foods\papaya.jpg	1	2	1	papaya	1	F	3	0	235	0		0	0	123.972174900002	124.072158799972
22560.75	0.0999861999880522	278	hunger	stimuli/non_foods\non-food_inanimate_canoe.jpg	1	2	1	non-food_inanimate_canoe	0	L	8	0	170	0		0	0	124.122173700016	124.222159900004
22598.25	0.0999847000348382	279	hunger	stimuli/non_foods\non-food_animate_grasshopper.jpg	1	2	1	non-food_animate_grasshopper	0	C	1	0	117	0		0	0	124.272173399979	124.372158100014
26298.25	0.0999776000389829	280	hunger	stimuli/non_foods\non-food_inanimate_towel.jpg	1	3	1	non-food_inanimate_towel	0	F	3	0	221	0		0	0	139.072021799977	139.171999400016
26335.75	0.0999870999949053	281	hunger	stimuli/foods\lemon_meringue_pie.jpg	1	3	1	lemon_meringue_pie	1	M	9	0	73	0		0	0	139.222009800025	139.32199690002
26373.25	0.0999858999857679	282	hunger	stimuli/foods\onion.jpg	1	3	1	onion	1	L	8	0	229	0		0	0	139.372013600019	139.471999500005
26410.75	0.0999812999507412	283	hunger	stimuli/non_foods\non-food_inanimate_waterlily.jpg	1	3	1	non-food_inanimate_waterlily	0	R	12	0	226	0		0	0	139.52201070002	139.621991999971
26448.25	0.100023200036958	284	hunger	stimuli/non_foods\non-food_inanimate_pine_cone.jpg	1	3	1	non-food_inanimate_pine_cone	0	D	2	0	200	0		0	0	139.672009899979	139.772033100016
26485.75	0.0999887000070885	285	hunger	stimuli/foods\gnocchi.jpg	1	3	1	gnocchi	1	J	6	0	58	0		0	0	139.8220019	139.921990600007
26523.25	0.0999858000432141	286	hunger	stimuli/foods\savory_pie.jpg	1	3	1	savory_pie	1	V	15	0	265	0		0	0	139.972011899983	140.071997700026
26560.75	0.0999884000048041	287	hunger	stimuli/foods\cream_donuts.jpg	1	3	1	cream_donuts	1	H	5	0	39	0		0	0	140.122007799975	140.22199619998
26598.25	0.10002130002249	288	hunger	stimuli/non_foods\non-food_animate_kangaroo.jpg	1	3	1	non-food_animate_kangaroo	0	Z	18	0	122	0		0	0	140.272013999987	140.37203530001
26635.75	0.0999750000191852	289	hunger	stimuli/foods\lentils.jpg	1	3	1	lentils	1	D	2	0	74	0		0	0	140.422017799981	140.521992800001
26673.25	0.0999961000052281	290	hunger	stimuli/foods\wafer.jpg	1	3	1	wafer	1	N	10	0	277	0		0	0	140.571996200015	140.67199230002
26710.75	0.0999860999872908	291	hunger	stimuli/non_foods\non-food_animate_raccoon.jpg	1	3	1	non-food_animate_raccoon	0	T	14	0	139	0		0	0	140.722000900016	140.821987000003
26748.25	0.0999872999964282	292	hunger	stimuli/non_foods\non-food_animate_elephant.jpg	1	3	1	non-food_animate_elephant	0	H	5	0	111	0		0	0	140.872000999982	140.971988299978
26785.75	0.099981100007426	293	hunger	stimuli/non_foods\non-food_animate_woman.jpg	1	3	1	non-food_animate_woman	0	R	12	0	154	0		0	0	141.022006099985	141.121987199993
26823.25	0.099984799977392	294	hunger	stimuli/non_foods\non-food_animate_tortoise.jpg	1	3	1	non-food_animate_tortoise	0	C	1	0	153	0		0	0	141.172000400024	141.271985200001
26860.75	0.099984799977392	295	hunger	stimuli/non_foods\non-food_animate_frog.jpg	1	3	1	non-food_animate_frog	0	H	5	0	113	0		0	0	141.321997300023	141.421982100001
26898.25	0.0999707999872044	296	hunger	stimuli/non_foods\non-food_inanimate_ring.jpg	1	3	1	non-food_inanimate_ring	0	W	16	0	203	0		0	0	141.471996999986	141.571967799973
26935.75	0.0999871999956667	297	hunger	stimuli/foods\lime.jpg	1	3	1	lime	1	C	1	0	76	0		0	0	141.621994099987	141.721981299983
26973.25	0.0999894999549724	298	hunger	stimuli/foods\oyster.jpg	1	3	1	oyster	1	V	15	0	233	0		0	0	141.771987600019	141.871977099974
27010.75	0.0999849999789149	299	hunger	stimuli/non_foods\non-food_inanimate_chair.jpg	1	3	1	non-food_inanimate_chair	0	C	1	0	172	0		0	0	141.921989099996	142.021974099975
27048.25	0.0999773000366986	300	hunger	stimuli/foods\lettuce.jpg	1	3	1	lettuce	1	H	5	0	75	0		0	0	142.07200559997	142.171982900007
27085.75	0.0999712999910116	301	hunger	stimuli/foods\almonds.jpg	1	3	1	almonds	1	Z	18	0	0	0		0	0	142.221982499992	142.321953799983
27123.25	0.0999730000039563	302	hunger	stimuli/non_foods\non-food_inanimate_socks.jpg	1	3	1	non-food_inanimate_socks	0	F	3	0	211	0		0	0	142.371990300016	142.47196330002
27160.75	0.0999895000131801	303	hunger	stimuli/foods\chocolate_pralines.jpg	1	3	1	chocolate_pralines	1	N	10	0	28	0		0	0	142.521984599996	142.62197410001
27198.25	0.0999860999872908	304	hunger	stimuli/foods\waffle.jpg	1	3	1	waffle	1	D	2	0	278	0		0	0	142.671983000007	142.771969099995
27235.75	0.0999842000310309	305	hunger	stimuli/foods\brie.jpg	1	3	1	brie	1	C	1	0	12	0		0	0	142.821983699978	142.921967900009
27273.25	0.100053100031801	306	hunger	stimuli/non_foods\non-food_animate_young_boy.jpg	1	3	1	non-food_animate_young_boy	0	W	16	0	156	0		0	0	142.971980999981	143.072034100012
27310.75	0.0999131000135094	307	hunger	stimuli/foods\chocolate_chip_cookies.jpg	1	3	1	chocolate_chip_cookies	1	K	7	0	27	0		0	0	143.122051100014	143.221964200027
27348.25	0.0999554999871179	308	hunger	stimuli/foods\cracker.jpg	1	3	1	cracker	1	F	3	0	38	0		0	0	143.272001300007	143.371956799994
27385.75	0.0999822999583557	309	hunger	stimuli/foods\watermelon.jpg	1	3	1	watermelon	1	W	16	0	279	0		0	0	143.421969800023	143.521952099982
27423.25	0.0999767999746837	310	hunger	stimuli/non_foods\non-food_animate_donkey.jpg	1	3	1	non-food_animate_donkey	0	H	5	0	107	0		0	0	143.5719789	143.671955699974
27460.75	0.0999817999545485	311	hunger	stimuli/foods\smoked_ham.jpg	1	3	1	smoked_ham	1	K	7	0	266	0		0	0	143.721979400027	143.821961199981
27498.25	0.0999758999678306	312	hunger	stimuli/non_foods\non-food_animate_llama.jpg	1	3	1	non-food_animate_llama	0	S	13	0	127	0		0	0	143.871983300021	143.971959199989
27535.75	0.0999695000355132	313	hunger	stimuli/non_foods\non-food_animate_peacock.jpg	1	3	1	non-food_animate_peacock	0	J	6	0	134	1	a	0	0	144.021975199983	144.121944700019
27573.25	0.0999970000120811	314	hunger	stimuli/foods\lasagna.jpg	1	3	1	lasagna	1	P	11	0	71	0		0	0	144.171949199983	144.271946199995
27610.75	0.0999850999796763	315	hunger	stimuli/non_foods\non-food_animate_seal.jpg	1	3	1	non-food_animate_seal	0	Z	18	0	146	0		0	0	144.321965800016	144.421950899996
27648.25	0.0999737000092864	316	hunger	stimuli/foods\carrot.jpg	1	3	1	carrot	1	R	12	0	19	0		0	0	144.471966799989	144.571940499998
27685.75	0.0999833999667317	317	hunger	stimuli/non_foods\non-food_animate_young_girl.jpg	1	3	1	non-food_animate_young_girl	0	L	8	0	157	0		0	0	144.621965700004	144.721949099971
27723.25	0.099984799977392	318	hunger	stimuli/foods\cabbage.jpg	1	3	1	cabbage	1	B	0	0	16	0		0	0	144.771961699997	144.871946499974
27760.75	0.0999966999515891	319	hunger	stimuli/non_foods\non-food_inanimate_bed.jpg	1	3	1	non-food_inanimate_bed	0	A	19	1	160	0		0	0	144.921962600027	145.021959299978
27798.25	0.0999834000249393	320	hunger	stimuli/foods\risotto_with_peas_and_asparagus_tips.jpg	1	3	1	risotto_with_peas_and_asparagus_tips	1	F	3	0	259	0		0	0	145.071959899971	145.171943299996
27835.75	0.0999757000245154	321	hunger	stimuli/foods\garlic.jpg	1	3	1	garlic	1	X	17	0	56	0		0	0	145.221959899995	145.321935600019
27873.25	0.0999819000135176	322	hunger	stimuli/foods\tomato.jpg	1	3	1	tomato	1	B	0	0	276	1	a	0.541818199970294	1	145.371955499984	145.471937399998
27910.75	0.0999941999907605	323	hunger	stimuli/non_foods\non-food_inanimate_toy_airplane.jpg	1	3	1	non-food_inanimate_toy_airplane	0	D	2	0	222	0		0	0	145.521952299983	145.621946499974
27948.25	0.0999780999845825	324	hunger	stimuli/non_foods\non-food_inanimate_alarm_clock.jpg	1	3	1	non-food_inanimate_alarm_clock	0	T	14	0	158	0		0	0	145.671959900006	145.771937999991
27985.75	0.0999854999827221	325	hunger	stimuli/non_foods\non-food_animate_mouse.jpg	1	3	1	non-food_animate_mouse	0	M	9	0	131	0		0	0	145.821951700025	145.921937200008
28023.25	0.0999866999918595	326	hunger	stimuli/foods\cauliflower.jpg	1	3	1	cauliflower	1	V	15	0	20	0		0	0	145.971951499989	146.071938199981
28060.75	0.0999861999880522	327	hunger	stimuli/non_foods\non-food_animate_killer_whale.jpg	1	3	1	non-food_animate_killer_whale	0	Z	18	0	123	0		0	0	146.121952700021	146.221938900009
28098.25	0.0999852999811992	328	hunger	stimuli/non_foods\non-food_animate_parrot.jpg	1	3	1	non-food_animate_parrot	0	H	5	0	133	0		0	0	146.271946599998	146.371931899979
28135.75	0.0999843000317924	329	hunger	stimuli/foods\minestrone_soup.jpg	1	3	1	minestrone_soup	1	T	14	0	82	0		0	0	146.421947799972	146.521932100004
28173.25	0.0999917999724858	330	hunger	stimuli/non_foods\non-food_animate_ladybug.jpg	1	3	1	non-food_animate_ladybug	0	G	4	0	124	0		0	0	146.57193570002	146.671927499992
28210.75	0.0999884000048041	331	hunger	stimuli/non_foods\non-food_animate_Causasian_man.jpg	1	3	1	non-food_animate_Causasian_man	0	B	0	0	89	0		0	0	146.721942399978	146.821930799983
28248.25	0.099985699984245	332	hunger	stimuli/non_foods\non-food_inanimate_broom.jpg	1	3	1	non-food_inanimate_broom	0	V	15	0	164	0		0	0	146.8719423	146.971927999984
28285.75	0.0999881000025198	333	hunger	stimuli/foods\ice_cream.jpg	1	3	1	ice_cream	1	H	5	0	68	0		0	0	147.021938399994	147.121926499996
28323.25	0.100008699984755	334	hunger	stimuli/foods\fruit_salad.jpg	1	3	1	fruit_salad	1	X	17	0	55	0		0	0	147.17193880002	147.271947500005
28360.75	0.0999890000093728	335	hunger	stimuli/foods\apple.jpg	1	3	1	apple	1	T	14	0	1	0		0	0	147.321945899981	147.42193489999
28398.25	0.0999671999597922	336	hunger	stimuli/foods\rice.jpg	1	3	1	rice	1	H	5	0	257	0		0	0	147.471947500017	147.571914699976
28435.75	0.0999887000070885	337	hunger	stimuli/non_foods\non-food_inanimate_guitar.jpg	1	3	1	non-food_inanimate_guitar	0	R	12	0	185	0		0	0	147.621935000003	147.72192370001
28473.25	0.0999918999732472	338	hunger	stimuli/non_foods\non-food_animate_swan.jpg	1	3	1	non-food_animate_swan	0	X	17	0	152	0		0	0	147.771926800022	147.871918699995
28510.75	0.100014599971473	339	hunger	stimuli/non_foods\non-food_animate_polar_bear.jpg	1	3	1	non-food_animate_polar_bear	0	T	14	0	137	0		0	0	147.921924200025	148.021938799997
28548.25	0.099981100007426	340	hunger	stimuli/foods\spring_onions.jpg	1	3	1	spring_onions	1	N	10	0	269	0		0	0	148.071934700012	148.17191580002
28585.75	0.0999915000284091	341	hunger	stimuli/foods\artichoke.jpg	1	3	1	artichoke	1	F	3	0	3	0		0	0	148.221926899976	148.321918400005
28623.25	0.099986599991098	342	hunger	stimuli/foods\potato_and_green_bean_salad.jpg	1	3	1	potato_and_green_bean_salad	1	H	5	0	246	0		0	0	148.371916599979	148.47190319997
28660.75	0.0999882000032812	343	hunger	stimuli/foods\salmon.jpg	1	3	1	salmon	1	V	15	0	264	0		0	0	148.521923399996	148.621911599999
28698.25	0.0999824000173248	344	hunger	stimuli/non_foods\non-food_inanimate_stapler.jpg	1	3	1	non-food_inanimate_stapler	0	S	13	0	213	0		0	0	148.671924899973	148.77190729999
28735.75	0.0999845999758691	345	hunger	stimuli/foods\pancakes.jpg	1	3	1	pancakes	1	F	3	0	234	0		0	0	148.82192050002	148.921905099996
28773.25	0.0999466000357643	346	hunger	stimuli/foods\cinnamon_sroll.jpg	1	3	1	cinnamon_sroll	1	U	23	1	31	0		0	0	148.971926699975	149.07187330001
28810.75	0.100010800000746	347	hunger	stimuli/foods\asparagus.jpg	1	3	1	asparagus	1	G	4	0	4	0		0	0	149.121919800004	149.221930600004
28848.25	0.0999376999679953	348	hunger	stimuli/foods\coffee_beans.jpg	1	3	1	coffee_beans	1	L	8	0	34	0		0	0	149.271962600003	149.371900299971
28885.75	0.0999899999587797	349	hunger	stimuli/foods\orange.jpg	1	3	1	orange	1	M	9	0	230	0		0	0	149.421908300021	149.52189829998
28923.25	0.0999883000040427	350	hunger	stimuli/foods\cooked_prawn.jpg	1	3	1	cooked_prawn	1	D	2	0	36	0		0	0	149.571909899998	149.671898200002
28960.75	0.0999866999918595	351	hunger	stimuli/foods\omelette.jpg	1	3	1	omelette	1	R	12	0	228	1	a	0.841812900034711	1	149.721912699984	149.821899399976
28998.25	0.0999862999888137	352	hunger	stimuli/non_foods\non-food_animate_caterpillar.jpg	1	3	1	non-food_animate_caterpillar	0	G	4	0	99	0		0	0	149.87191300001	149.971899299999
29035.75	0.0999852999811992	353	hunger	stimuli/non_foods\non-food_animate_eagle.jpg	1	3	1	non-food_animate_eagle	0	C	1	0	110	0		0	0	150.021907699993	150.121892999974
29073.25	0.099986599991098	354	hunger	stimuli/foods\lollies.jpg	1	3	1	lollies	1	Z	18	0	78	0		0	0	150.171907200012	150.271893800003
29110.75	0.0999682999681681	355	hunger	stimuli/foods\fried_calamari.jpg	1	3	1	fried_calamari	1	L	8	0	50	0		0	0	150.321911200008	150.421879499976
29148.25	0.0999944000504911	356	hunger	stimuli/non_foods\non-food_inanimate_buds.jpg	1	3	1	non-food_inanimate_buds	0	S	13	0	166	0		0	0	150.471895899973	150.571890300023
29185.75	0.0999891999526881	357	hunger	stimuli/foods\steak.jpg	1	3	1	steak	1	D	2	0	270	0		0	0	150.621900000027	150.72188919998
29223.25	0.0999848999781534	358	hunger	stimuli/non_foods\non-food_animate_grasshopper.jpg	1	3	1	non-food_animate_grasshopper	0	F	3	0	117	0		0	0	150.771904500027	150.871889400005
29260.75	0.099980799946934	359	hunger	stimuli/non_foods\non-food_animate_green_bug.jpg	1	3	1	non-food_animate_green_bug	0	H	5	0	118	0		0	0	150.921901500027	151.021882299974
29298.25	0.0999425000045449	360	hunger	stimuli/foods\apricot.jpg	1	3	1	apricot	1	G	4	0	2	0		0	0	151.071940499998	151.171883000003
29335.75	0.0999875999987125	361	hunger	stimuli/non_foods\non-food_inanimate_fern.jpg	1	3	1	non-food_inanimate_fern	0	R	12	0	180	0		0	0	151.221896599978	151.321884199977
29373.25	0.0999776999815367	362	hunger	stimuli/foods\cooked_ham.jpg	1	3	1	cooked_ham	1	H	5	0	35	0		0	0	151.371895699995	151.471873399976
29410.75	0.0999881000025198	363	hunger	stimuli/foods\museli_bars.jpg	1	3	1	museli_bars	1	J	6	0	84	0		0	0	151.521892299992	151.621880399995
29448.25	0.0999850999796763	364	hunger	stimuli/foods\raw_ham.jpg	1	3	1	raw_ham	1	P	11	0	253	0		0	0	151.671893200022	151.771878300002
29485.75	0.0999797999975272	365	hunger	stimuli/foods\fruit_flan.jpg	1	3	1	fruit_flan	1	F	3	0	53	0		0	0	151.821891599975	151.921871399973
29523.25	0.0999903000192717	366	hunger	stimuli/foods\chestnut.jpg	1	3	1	chestnut	1	G	4	0	24	0		0	0	151.971888099972	152.071878399991
29560.75	0.0999580000061542	367	hunger	stimuli/non_foods\non-food_inanimate_skateboard.jpg	1	3	1	non-food_inanimate_skateboard	0	J	6	0	208	0		0	0	152.121912400005	152.221870400012
29598.25	0.0999863999895751	368	hunger	stimuli/non_foods\non-food_inanimate_watering_can.jpg	1	3	1	non-food_inanimate_watering_can	0	R	12	0	225	0		0	0	152.271887100011	152.3718735
29635.75	0.0999863999895751	369	hunger	stimuli/foods\mandarin.jpg	1	3	1	mandarin	1	C	1	0	79	0		0	0	152.421884700016	152.521871100005
29673.25	0.0999889000086114	370	hunger	stimuli/foods\blackberry.jpg	1	3	1	blackberry	1	H	5	0	11	0		0	0	152.571871199994	152.671860100003
29710.75	0.100002499995753	371	hunger	stimuli/foods\capsicum.jpg	1	3	1	capsicum	1	B	0	0	18	0		0	0	152.721886400017	152.821888900013
29748.25	0.0999739000108093	372	hunger	stimuli/foods\honey.jpg	1	3	1	honey	1	G	4	0	66	0		0	0	152.871882000007	152.971855900018
29785.75	0.0999870999949053	373	hunger	stimuli/non_foods\non-food_inanimate_chandelier.jpg	1	3	1	non-food_inanimate_chandelier	0	R	12	0	173	0		0	0	153.021877199993	153.121864299988
29823.25	0.0999841000302695	374	hunger	stimuli/non_foods\non-food_inanimate_soccer_ball.jpg	1	3	1	non-food_inanimate_soccer_ball	0	N	10	0	210	0		0	0	153.171880199981	153.271864300012
29860.75	0.099996300006751	375	hunger	stimuli/foods\pear.jpg	1	3	1	pear	1	F	3	0	239	0		0	0	153.321863199992	153.421859499998
29898.25	0.0999764000298455	376	hunger	stimuli/foods\hazelnuts.jpg	1	3	1	hazelnuts	1	T	14	0	65	0		0	0	153.471874599985	153.571851000015
29935.75	0.0999764999723993	377	hunger	stimuli/foods\spinach.jpg	1	3	1	spinach	1	V	15	0	268	0		0	0	153.621874500008	153.72185099998
29973.25	0.0999859999865294	378	hunger	stimuli/foods\raisins.jpg	1	3	1	raisins	1	X	17	0	252	0		0	0	153.771871200006	153.871857199993
30010.75	0.0999445000197738	379	hunger	stimuli/foods\fried_zucchini.jpg	1	3	1	fried_zucchini	1	L	8	0	51	0		0	0	153.92191059998	154.0218551
30048.25	0.0999864999903366	380	hunger	stimuli/non_foods\non-food_inanimate_jeans.jpg	1	3	1	non-food_inanimate_jeans	0	B	0	0	191	0		0	0	154.071867600025	154.171854100015
30085.75	0.099987100053113	381	hunger	stimuli/non_foods\non-food_animate_skunk.jpg	1	3	1	non-food_animate_skunk	0	K	7	0	147	0		0	0	154.221865399973	154.321852500027
30123.25	0.0999859999865294	382	hunger	stimuli/non_foods\non-food_animate_dolphin.jpg	1	3	1	non-food_animate_dolphin	0	M	9	0	106	0		0	0	154.371866500005	154.471852499992
30160.75	0.099972500000149	383	hunger	stimuli/foods\pumpkin.jpg	1	3	1	pumpkin	1	B	0	0	250	0		0	0	154.521869999997	154.621842499997
30198.25	0.0999901999603026	384	hunger	stimuli/non_foods\non-food_inanimate_moss.jpg	1	3	1	non-food_inanimate_moss	0	K	7	0	194	0		0	0	154.67186230002	154.77185249998
30235.75	0.100003300001845	385	hunger	stimuli/non_foods\non-food_animate_alligator.jpg	1	3	1	non-food_animate_alligator	0	F	3	0	90	0		0	0	154.821841700003	154.921845000004
30273.25	0.0999829000211321	386	hunger	stimuli/non_foods\non-food_animate_sea_lion.jpg	1	3	1	non-food_animate_sea_lion	0	J	6	0	143	0		0	0	154.971859299985	155.071842200006
30310.75	0.099987699999474	387	hunger	stimuli/non_foods\non-food_animate_duck.jpg	1	3	1	non-food_animate_duck	0	H	5	0	109	0		0	0	155.121858400002	155.221846100001
30348.25	0.0999924999778159	388	hunger	stimuli/foods\potatoes.jpg	1	3	1	potatoes	1	P	11	0	248	0		0	0	155.2718475	155.371839999978
30385.75	0.0999895000131801	389	hunger	stimuli/non_foods\non-food_inanimate_toilet.jpg	1	3	1	non-food_inanimate_toilet	0	T	14	0	220	0		0	0	155.421851199993	155.521840700007
30423.25	0.0999649000004865	390	hunger	stimuli/foods\banana.jpg	1	3	1	banana	1	J	6	0	9	0		0	0	155.571874900023	155.671839800023
30460.75	0.0999845000333153	391	hunger	stimuli/foods\coconut.jpg	1	3	1	coconut	1	V	15	0	33	0		0	0	155.721851699986	155.821836200019
30498.25	0.0999902000185102	392	hunger	stimuli/non_foods\non-food_animate_ant.jpg	1	3	1	non-food_animate_ant	0	H	5	0	91	0		0	0	155.871850099997	155.971840300015
30535.75	0.0999858999857679	393	hunger	stimuli/non_foods\non-food_animate_lizard.jpg	1	3	1	non-food_animate_lizard	0	R	12	0	126	0		0	0	156.021847199998	156.121833099984
30573.25	0.0999908999656327	394	hunger	stimuli/foods\frankfurter_and_provolone_salad.jpg	1	3	1	frankfurter_and_provolone_salad	1	K	7	0	49	0		0	0	156.171845300007	156.271836199972
30610.75	0.099982000014279	395	hunger	stimuli/non_foods\non-food_animate_rhino.jpg	1	3	1	non-food_animate_rhino	0	S	13	0	141	0		0	0	156.321857100003	156.421839100018
30648.25	0.0999515000148676	396	hunger	stimuli/foods\fruit_pie.jpg	1	3	1	fruit_pie	1	V	15	0	54	0		0	0	156.471862300008	156.571813800023
30685.75	0.0999849999789149	397	hunger	stimuli/foods\potato_chips.jpg	1	3	1	potato_chips	1	L	8	0	247	0		0	0	156.621845400019	156.721830399998
30723.25	0.0999835999682546	398	hunger	stimuli/non_foods\non-food_animate_dachshund.jpg	1	3	1	non-food_animate_dachshund	0	S	13	0	104	0		0	0	156.77184240002	156.871825999988
30760.75	0.099984799977392	399	hunger	stimuli/foods\croissant.jpg	1	3	1	croissant	1	P	11	0	40	0		0	0	156.921837200003	157.021821999981
30798.25	0.0999955000006594	400	hunger	stimuli/foods\grapes.jpg	1	3	1	grapes	1	G	4	0	60	0		0	0	157.071829600027	157.171825100027
30835.75	0.0999939000466838	401	hunger	stimuli/foods\mortadella.jpg	1	3	1	mortadella	1	S	13	0	83	0		0	0	157.221835199976	157.321829100023
30873.25	0.100027400010731	402	hunger	stimuli/non_foods\non-food_inanimate_tent.jpg	1	3	1	non-food_inanimate_tent	0	G	4	0	219	0		0	0	157.371810299985	157.471837699995
30910.75	0.0999845999758691	403	hunger	stimuli/foods\grilled_chicken_breast.jpg	1	3	1	grilled_chicken_breast	1	R	12	0	63	0		0	0	157.52183350001	157.621818099986
30948.25	0.0999788999906741	404	hunger	stimuli/non_foods\non-food_animate_deer.jpg	1	3	1	non-food_animate_deer	0	F	3	0	105	0		0	0	157.671830900013	157.771809800004
30985.75	0.0999846000340767	405	hunger	stimuli/non_foods\non-food_inanimate_orchid.jpg	1	3	1	non-food_inanimate_orchid	0	R	12	0	198	0		0	0	157.821824899991	157.921809500025
31023.25	0.0999980000196956	406	hunger	stimuli/non_foods\non-food_inanimate_drum_set.jpg	1	3	1	non-food_inanimate_drum_set	0	P	11	0	179	0		0	0	157.971823200001	158.071821200021
31060.75	0.0999908000230789	407	hunger	stimuli/foods\cannoli.jpg	1	3	1	cannoli	1	W	16	0	17	0		0	0	158.121850299998	158.221841100021
31098.25	0.0999826000188477	408	hunger	stimuli/foods\lamb_chops.jpg	1	3	1	lamb_chops	1	S	13	0	70	0		0	0	158.271831099992	158.371813700011
31135.75	0.0999866999918595	409	hunger	stimuli/foods\cherry.jpg	1	3	1	cherry	1	V	15	0	23	0		0	0	158.421823500015	158.521810200007
31173.25	0.100001899991184	410	hunger	stimuli/foods\bagel.jpg	1	3	1	bagel	1	N	10	0	6	0		0	0	158.57180819998	158.671810099971
31210.75	0.0999867999926209	411	hunger	stimuli/non_foods\non-food_animate_runner.jpg	1	3	1	non-food_animate_runner	0	G	4	0	142	0		0	0	158.721818200022	158.821805000014
31248.25	0.0999888000078499	412	hunger	stimuli/non_foods\non-food_inanimate_shell.jpg	1	3	1	non-food_inanimate_shell	0	L	8	0	206	0		0	0	158.871818099986	158.971806899994
31285.75	0.099983699969016	413	hunger	stimuli/non_foods\non-food_inanimate_canoe.jpg	1	3	1	non-food_inanimate_canoe	0	Z	18	0	170	0		0	0	159.021818500012	159.121802199981
31323.25	0.099985699984245	414	hunger	stimuli/non_foods\non-food_inanimate_nest.jpg	1	3	1	non-food_inanimate_nest	0	J	6	0	196	0		0	0	159.171816200018	159.271801900002
31360.75	0.099983100022655	415	hunger	stimuli/non_foods\non-food_inanimate_cap.jpg	1	3	1	non-food_inanimate_cap	0	D	2	0	171	0		0	0	159.321816299984	159.421799400006
31398.25	0.099972500000149	416	hunger	stimuli/foods\figs.jpg	1	3	1	figs	1	P	11	0	48	0		0	0	159.471814399993	159.571786899993
31435.75	0.0999621999799274	417	hunger	stimuli/non_foods\non-food_animate_porcupine.jpg	1	3	1	non-food_animate_porcupine	0	K	7	0	138	0		0	0	159.621811299992	159.721773499972
31473.25	0.100001899991184	418	hunger	stimuli/non_foods\non-food_animate_lion.jpg	1	3	1	non-food_animate_lion	0	D	2	0	125	0		0	0	159.771811300016	159.871813200007
31510.75	0.100005900021642	419	hunger	stimuli/foods\radish.jpg	1	3	1	radish	1	V	15	0	251	1	a	0	0	159.921788199979	160.021794100001
37285.75	0.0999729000031948	420	hunger	stimuli/non_foods\non-food_inanimate_gloves.jpg	1	4	1	non-food_inanimate_gloves	0	Z	18	0	183	0		0	0	183.021585399983	183.121558299987
37323.25	0.0999799999990501	421	hunger	stimuli/non_foods\non-food_inanimate_horn.jpg	1	4	1	non-food_inanimate_horn	0	D	2	0	190	0		0	0	183.171578000009	183.271558000008
37360.75	0.0999919999740086	422	hunger	stimuli/non_foods\non-food_inanimate_protractor.jpg	1	4	1	non-food_inanimate_protractor	0	B	0	0	201	0		0	0	183.321575200011	183.421567199985
37398.25	0.0999844999751076	423	hunger	stimuli/non_foods\non-food_animate_bat.jpg	1	4	1	non-food_animate_bat	0	K	7	0	94	0		0	0	183.471573800023	183.571558299998
37435.75	0.0999807000043802	424	hunger	stimuli/foods\risotto_with_zucchini.jpg	1	4	1	risotto_with_zucchini	1	V	15	0	260	0		0	0	183.621572499978	183.721553199983
37473.25	0.0999868999933824	425	hunger	stimuli/foods\green_beans.jpg	1	4	1	green_beans	1	H	5	0	61	0		0	0	183.771570099983	183.871556999977
37510.75	0.0999943999922834	426	hunger	stimuli/non_foods\non-food_inanimate_hay.jpg	1	4	1	non-food_inanimate_hay	0	G	4	0	187	0		0	0	183.921582799987	184.021577199979
37548.25	0.0999924999778159	427	hunger	stimuli/non_foods\non-food_animate_german_shepherd.jpg	1	4	1	non-food_animate_german_shepherd	0	K	7	0	114	0		0	0	184.071557499992	184.17154999997
37585.75	0.0999662000103854	428	hunger	stimuli/non_foods\non-food_animate_gorilla.jpg	1	4	1	non-food_animate_gorilla	0	T	14	0	116	0		0	0	184.221584999992	184.321551200002
37623.25	0.099987699999474	429	hunger	stimuli/foods\green_olives.jpg	1	4	1	green_olives	1	R	12	0	62	0		0	0	184.371561600012	184.471549300011
37660.75	0.0999624999822117	430	hunger	stimuli/non_foods\non-food_animate_cow.jpg	1	4	1	non-food_animate_cow	0	K	7	0	103	0		0	0	184.521563999995	184.621526499977
37698.25	0.0999915999709629	431	hunger	stimuli/non_foods\non-food_inanimate_headphones.jpg	1	4	1	non-food_inanimate_headphones	0	P	11	0	188	0		0	0	184.671563000011	184.771554599982
37735.75	0.0999885999481194	432	hunger	stimuli/foods\lemon.jpg	1	4	1	lemon	1	S	13	0	72	0		0	0	184.821561400022	184.92154999997
37773.25	0.100015300035011	433	hunger	stimuli/non_foods\non-food_animate_pigeon.jpg	1	4	1	non-food_animate_pigeon	0	C	1	0	136	0		0	0	184.971531499992	185.071546800027
37810.75	0.0999810000066645	434	hunger	stimuli/foods\red_beans.jpg	1	4	1	red_beans	1	L	8	0	255	0		0	0	185.121558999992	185.221539999999
37848.25	0.100017200049479	435	hunger	stimuli/foods\pork_and_rice.jpg	1	4	1	pork_and_rice	1	Z	18	0	245	0		0	0	185.271553899976	185.371571100026
37885.75	0.0999844999751076	436	hunger	stimuli/non_foods\non-food_animate_yellow_bug.jpg	1	4	1	non-food_animate_yellow_bug	0	F	3	0	155	0		0	0	185.421553799999	185.521538299974
37923.25	0.0999864999903366	437	hunger	stimuli/foods\red_cabbage.jpg	1	4	1	red_cabbage	1	P	11	0	256	0		0	0	185.571550799999	185.67153729999
37960.75	0.0999930999823846	438	hunger	stimuli/non_foods\non-food_animate_monkey.jpg	1	4	1	non-food_animate_monkey	0	T	14	0	130	0		0	0	185.721557900019	185.821551000001
37998.25	0.099960400024429	439	hunger	stimuli/foods\meatballs.jpg	1	4	1	meatballs	1	L	8	0	81	0		0	0	185.871572799981	185.971533200005
38035.75	0.0999819999560714	440	hunger	stimuli/foods\cereal.jpg	1	4	1	cereal	1	M	9	0	22	0		0	0	186.021552600025	186.121534599981
38073.25	0.100008899986278	441	hunger	stimuli/foods\spaghetti_with_meat_sauce.jpg	1	4	1	spaghetti_with_meat_sauce	1	J	6	0	267	0		0	0	186.171521299984	186.271530199971
38110.75	0.0999799999990501	442	hunger	stimuli/foods\strawberry.jpg	1	4	1	strawberry	1	N	10	0	272	0		0	0	186.32154590002	186.421525900019
38148.25	0.0999799999990501	443	hunger	stimuli/foods\oregano.jpg	1	4	1	oregano	1	G	4	0	231	0		0	0	186.471540600003	186.571520600002
38185.75	0.0999814000097103	444	hunger	stimuli/non_foods\non-food_animate_slug.jpg	1	4	1	non-food_animate_slug	0	V	15	0	148	0		0	0	186.6215448	186.72152620001
38223.25	0.100001499988139	445	hunger	stimuli/non_foods\non-food_inanimate_nailpolish.jpg	1	4	1	non-food_inanimate_nailpolish	0	F	3	0	195	0		0	0	186.771537600027	186.871539100015
38260.75	0.0999842999735847	446	hunger	stimuli/non_foods\non-food_animate_bee.jpg	1	4	1	non-food_animate_bee	0	G	4	0	95	0		0	0	186.921538900002	187.021523199975
38298.25	0.0999851999804378	447	hunger	stimuli/non_foods\non-food_inanimate_folding_chair.jpg	1	4	1	non-food_inanimate_folding_chair	0	X	17	0	182	0		0	0	187.071536000003	187.171521199984
38335.75	0.0999883000040427	448	hunger	stimuli/non_foods\non-food_inanimate_briefcase.jpg	1	4	1	non-food_inanimate_briefcase	0	N	10	0	163	0		0	0	187.221534000011	187.321522300015
38373.25	0.0999926999793388	449	hunger	stimuli/non_foods\non-food_inanimate_hammer.jpg	1	4	1	non-food_inanimate_hammer	0	H	5	0	186	0		0	0	187.371538800013	187.471531499992
38410.75	0.0999628999852575	450	hunger	stimuli/non_foods\non-food_inanimate_bucket.jpg	1	4	1	non-food_inanimate_bucket	0	V	15	0	165	0		0	0	187.521555299987	187.621518199972
38448.25	0.099969599978067	451	hunger	stimuli/foods\kiwi.jpg	1	4	1	kiwi	1	Z	18	0	69	0		0	0	187.671547000005	187.771516599983
38485.75	0.0999919999740086	452	hunger	stimuli/foods\rockmelon.jpg	1	4	1	rockmelon	1	S	13	0	262	0		0	0	187.821523200022	187.921515199996
38523.25	0.0999853999819607	453	hunger	stimuli/foods\pickles.jpg	1	4	1	pickles	1	D	2	0	242	0		0	0	187.971526700014	188.071512099996
38560.75	0.10000299999956	454	hunger	stimuli/non_foods\non-food_animate_Asian_man.jpg	1	4	1	non-food_animate_Asian_man	0	B	0	0	88	0		0	0	188.121513099992	188.221516099991
38598.25	0.0999890000093728	455	hunger	stimuli/non_foods\non-food_animate_mammoth.jpg	1	4	1	non-food_animate_mammoth	0	Z	18	0	128	0		0	0	188.271519000002	188.371508000011
38635.75	0.0999940999899991	456	hunger	stimuli/non_foods\non-food_inanimate_desk.jpg	1	4	1	non-food_inanimate_desk	0	J	6	0	178	0		0	0	188.421526900027	188.521521000017
38673.25	0.0999849999789149	457	hunger	stimuli/non_foods\non-food_inanimate_clover.jpg	1	4	1	non-food_inanimate_clover	0	Z	18	0	174	0		0	0	188.571527399996	188.671512399975
38710.75	0.0999839999713004	458	hunger	stimuli/non_foods\non-food_animate_millipede.jpg	1	4	1	non-food_animate_millipede	0	L	8	0	129	0		0	0	188.721518900013	188.821502899984
38748.25	0.0999909999663942	459	hunger	stimuli/non_foods\non-food_animate_squirrel.jpg	1	4	1	non-food_animate_squirrel	0	H	5	0	150	0		0	0	188.871516500018	188.971507499984
38785.75	0.0999834999674931	460	hunger	stimuli/foods\mussels.jpg	1	4	1	mussels	1	W	16	0	86	0		0	0	189.021520700015	189.121504199982
38823.25	0.100004900014028	461	hunger	stimuli/foods\chocolate_pudding.jpg	1	4	1	chocolate_pudding	1	T	14	0	29	0		0	0	189.171514299989	189.271519200003
38860.75	0.0999789000488818	462	hunger	stimuli/foods\chilli.jpg	1	4	1	chilli	1	L	8	0	25	0		0	0	189.321524899977	189.421503800026
38898.25	0.0999880000017583	463	hunger	stimuli/foods\egg.jpg	1	4	1	egg	1	F	3	0	45	0		0	0	189.471512700024	189.571500700025
38935.75	0.0999782999861054	464	hunger	stimuli/non_foods\non-food_inanimate_highlighter.jpg	1	4	1	non-food_inanimate_highlighter	0	X	17	0	189	0		0	0	189.621505299991	189.721483599977
38973.25	0.099997200013604	465	hunger	stimuli/non_foods\non-food_animate_sea_turtle.jpg	1	4	1	non-food_animate_sea_turtle	0	N	10	0	144	0		0	0	189.771489400009	189.871486600023
39010.75	0.0999864999903366	466	hunger	stimuli/foods\fries.jpg	1	4	1	fries	1	J	6	0	52	0		0	0	189.92150549998	190.021491999971
39048.25	0.0999890000093728	467	hunger	stimuli/non_foods\non-food_inanimate_nettle.jpg	1	4	1	non-food_inanimate_nettle	0	T	14	0	197	1	a	0	0	190.071506500011	190.171495500021
39085.75	0.0999875999987125	468	hunger	stimuli/non_foods\non-food_inanimate_table.jpg	1	4	1	non-food_inanimate_table	0	X	17	0	217	0		0	0	190.221503400011	190.32149100001
39123.25	0.0999851999804378	469	hunger	stimuli/foods\cinnamon.jpg	1	4	1	cinnamon	1	Z	18	0	30	0		0	0	190.371505499992	190.471490699972
39160.75	0.099985699984245	470	hunger	stimuli/non_foods\non-food_inanimate_leaf.jpg	1	4	1	non-food_inanimate_leaf	0	B	0	0	192	0		0	0	190.521502699994	190.621488399978
39198.25	0.0999828999629244	471	hunger	stimuli/non_foods\non-food_inanimate_speakers.jpg	1	4	1	non-food_inanimate_speakers	0	L	8	0	212	0		0	0	190.671495600021	190.771478499984
39235.75	0.0999919000314549	472	hunger	stimuli/foods\pineapple.jpg	1	4	1	pineapple	1	N	10	0	243	0		0	0	190.821496399993	190.921488300024
39273.25	0.099995199998375	473	hunger	stimuli/non_foods\non-food_inanimate_grass.jpg	1	4	1	non-food_inanimate_grass	0	L	8	0	184	0		0	0	190.971496400016	191.071491600014
39310.75	0.0999308999744244	474	hunger	stimuli/foods\raw_sausage.jpg	1	4	1	raw_sausage	1	B	0	0	254	0		0	0	191.121545400005	191.221476299979
39348.25	0.0999891000101343	475	hunger	stimuli/non_foods\non-food_animate_dragonfly.jpg	1	4	1	non-food_animate_dragonfly	0	W	16	0	108	0		0	0	191.271494199988	191.371483299998
39385.75	0.0999839999713004	476	hunger	stimuli/non_foods\non-food_animate_fox.jpg	1	4	1	non-food_animate_fox	0	V	15	0	112	0		0	0	191.421493100002	191.521477099974
39423.25	0.0999887000070885	477	hunger	stimuli/foods\pea_pod.jpg	1	4	1	pea_pod	1	C	1	0	237	0		0	0	191.571491500014	191.671480200021
39460.75	0.0999618000350893	478	hunger	stimuli/non_foods\non-food_inanimate_rack.jpg	1	4	1	non-food_inanimate_rack	0	J	6	0	202	0		0	0	191.72149039997	191.821452200005
39498.25	0.100004799955059	479	hunger	stimuli/non_foods\non-food_inanimate_fire_extinguisher.jpg	1	4	1	non-food_inanimate_fire_extinguisher	0	C	1	0	181	0		0	0	191.871493200015	191.97149799997
39535.75	0.0999966000090353	480	hunger	stimuli/foods\corncob.jpg	1	4	1	corncob	1	F	3	0	37	0		0	0	192.021482300013	192.121478900022
39573.25	0.100003400002606	481	hunger	stimuli/foods\cupcake.jpg	1	4	1	cupcake	1	V	15	0	42	0		0	0	192.17148640001	192.271489800012
39610.75	0.0999866999918595	482	hunger	stimuli/foods\beetroots.jpg	1	4	1	beetroots	1	Z	18	0	10	0		0	0	192.321482700005	192.421469399997
39648.25	0.099985100037884	483	hunger	stimuli/non_foods\non-food_animate_snail.jpg	1	4	1	non-food_animate_snail	0	B	0	0	149	0		0	0	192.471483499976	192.571468600014
39685.75	0.100007999979425	484	hunger	stimuli/foods\rice_cake.jpg	1	4	1	rice_cake	1	T	14	0	258	0		0	0	192.621482499992	192.721490499971
39723.25	0.0999912999686785	485	hunger	stimuli/foods\linguine_with_clams.jpg	1	4	1	linguine_with_clams	1	H	5	0	77	0		0	0	192.771483300021	192.87147459999
39760.75	0.0999484999920242	486	hunger	stimuli/foods\pasta_carbonara.jpg	1	4	1	pasta_carbonara	1	P	11	0	236	0		0	0	192.92151439999	193.021462899982
39798.25	0.0999896000139415	487	hunger	stimuli/foods\pepperoni_pizza.jpg	1	4	1	pepperoni_pizza	1	S	13	0	241	0		0	0	193.0714744	193.171464000014
39835.75	0.0999804000020958	488	hunger	stimuli/non_foods\non-food_inanimate_construction_helment.jpg	1	4	1	non-food_inanimate_construction_helment	0	L	8	0	175	0		0	0	193.221477499988	193.32145789999
39873.25	0.0999854999827221	489	hunger	stimuli/foods\eggplant.jpg	1	4	1	eggplant	1	C	1	0	46	0		0	0	193.371474399988	193.471459899971
39910.75	0.0999980999622494	490	hunger	stimuli/non_foods\non-food_animate_chicken.jpg	1	4	1	non-food_animate_chicken	0	P	11	0	101	0		0	0	193.521459100011	193.621457199974
39948.25	0.0999995999736711	491	hunger	stimuli/non_foods\non-food_animate_baby_sitting.jpg	1	4	1	non-food_animate_baby_sitting	0	X	17	0	93	0		0	0	193.671455600008	193.771455199982
39985.75	0.099986599991098	492	hunger	stimuli/non_foods\non-food_inanimate_bamboo.jpg	1	4	1	non-food_inanimate_bamboo	0	Z	18	0	159	0		0	0	193.821468400012	193.921455000003
40023.25	0.0999644000548869	493	hunger	stimuli/foods\salami.jpg	1	4	1	salami	1	H	5	0	263	0		0	0	193.97148269997	194.071447100025
40060.75	0.0999838000279851	494	hunger	stimuli/non_foods\non-food_inanimate_bush.jpg	1	4	1	non-food_inanimate_bush	0	G	4	0	167	0		0	0	194.121466299985	194.221450100013
40098.25	0.0999835999682546	495	hunger	stimuli/foods\broccoli.jpg	1	4	1	broccoli	1	J	6	0	13	0		0	0	194.271466500009	194.371450099978
40135.75	0.0999772999784909	496	hunger	stimuli/foods\baked_lamb_with_potatoes.jpg	1	4	1	baked_lamb_with_potatoes	1	D	2	0	8	0		0	0	194.421461299993	194.521438599972
40173.25	0.0999935999861918	497	hunger	stimuli/foods\celery.jpg	1	4	1	celery	1	V	15	0	21	0		0	0	194.571466299996	194.671459899982
40210.75	0.0999525000224821	498	hunger	stimuli/non_foods\non-food_animate_clown.jpg	1	4	1	non-food_animate_clown	0	X	17	0	102	0		0	0	194.721492799988	194.821445300011
40248.25	0.099987699999474	499	hunger	stimuli/non_foods\non-food_animate_hummingbird.jpg	1	4	1	non-food_animate_hummingbird	0	T	14	0	120	0		0	0	194.871456400026	194.971444100025
40285.75	0.0999812000081874	500	hunger	stimuli/non_foods\non-food_animate_owl.jpg	1	4	1	non-food_animate_owl	0	R	12	0	132	0		0	0	195.02145499998	195.121436199988
40323.25	0.0999929000390694	501	hunger	stimuli/foods\taco.jpg	1	4	1	taco	1	X	17	0	274	0		0	0	195.171452099981	195.27144500002
40360.75	0.0999766000313684	502	hunger	stimuli/non_foods\non-food_animate_cheetah.jpg	1	4	1	non-food_animate_cheetah	0	N	10	0	100	0		0	0	195.321455599973	195.421432200004
40398.25	0.0999870000523515	503	hunger	stimuli/foods\mango.jpg	1	4	1	mango	1	C	1	0	80	0		0	0	195.471444899973	195.571431900025
40435.75	0.0999828000203706	504	hunger	stimuli/foods\donut.jpg	1	4	1	donut	1	G	4	0	44	0		0	0	195.621445600002	195.721428400022
40473.25	0.0999879000009969	505	hunger	stimuli/non_foods\non-food_animate_butterfly.jpg	1	4	1	non-food_animate_butterfly	0	J	6	0	96	0		0	0	195.771442800004	195.871430700005
40510.75	0.0999935999861918	506	hunger	stimuli/non_foods\non-food_animate_seahorse.jpg	1	4	1	non-food_animate_seahorse	0	B	0	0	145	0		0	0	195.921438499994	196.02143209998
40548.25	0.0999864999903366	507	hunger	stimuli/foods\dates.jpg	1	4	1	dates	1	M	9	0	43	0		0	0	196.071446300019	196.171432800009
40585.75	0.0999850000371225	508	hunger	stimuli/foods\ginger_root.jpg	1	4	1	ginger_root	1	K	7	0	57	0		0	0	196.221445399977	196.321430400014
40623.25	0.100006799970288	509	hunger	stimuli/non_foods\non-food_inanimate_scissors.jpg	1	4	1	non-food_inanimate_scissors	0	P	11	0	205	0		0	0	196.371447300015	196.471454099985
40660.75	0.0999500000034459	510	hunger	stimuli/non_foods\non-food_animate_giraffe.jpg	1	4	1	non-food_animate_giraffe	0	J	6	0	115	0		0	0	196.521477099974	196.621427099977
40698.25	0.0999693999765441	511	hunger	stimuli/foods\mushroom.jpg	1	4	1	mushroom	1	R	12	0	85	0		0	0	196.67144960002	196.771418999997
40735.75	0.0999836000264622	512	hunger	stimuli/foods\chocolate_bar.jpg	1	4	1	chocolate_bar	1	W	16	0	26	0		0	0	196.821432899975	196.921416500001
40773.25	0.0999793999944814	513	hunger	stimuli/foods\fennel.jpg	1	4	1	fennel	1	M	9	0	47	0		0	0	196.971430399979	197.071409799973
40810.75	0.100015899981372	514	hunger	stimuli/non_foods\non-food_inanimate_cactus_pot_plant.jpg	1	4	1	non-food_inanimate_cactus_pot_plant	0	P	11	0	169	0		0	0	197.121406199993	197.221422099974
40848.25	0.0999860999872908	515	hunger	stimuli/non_foods\non-food_inanimate_rope.jpg	1	4	1	non-food_inanimate_rope	0	H	5	0	204	0		0	0	197.271434199996	197.371420299984
40885.75	0.0999839999713004	516	hunger	stimuli/non_foods\non-food_inanimate_cupboard.jpg	1	4	1	non-food_inanimate_cupboard	0	S	13	0	177	0		0	0	197.421433300013	197.521417299984
40923.25	0.0999869999941438	517	hunger	stimuli/foods\cucumber.jpg	1	4	1	cucumber	1	G	4	0	41	0		0	0	197.571431100019	197.671418100013
40960.75	0.0999857000424527	518	hunger	stimuli/non_foods\non-food_animate_iguana.jpg	1	4	1	non-food_animate_iguana	0	N	10	0	121	0		0	0	197.721430399979	197.821416100021
40998.25	0.0999875999987125	519	hunger	stimuli/foods\hotdog.jpg	1	4	1	hotdog	1	D	2	0	67	0		0	0	197.871426299971	197.97141389997
41035.75	0.100002199993469	520	hunger	stimuli/foods\brownie.jpg	1	4	1	brownie	1	Z	18	0	14	0		0	0	198.021425199986	198.121427399979
41073.25	0.100014800031204	521	hunger	stimuli/foods\stew_with_potatoes_and_carrots.jpg	1	4	1	stew_with_potatoes_and_carrots	1	W	16	0	271	0		0	0	198.171413299977	198.271428100008
41110.75	0.0999582000076771	522	hunger	stimuli/foods\prawn.jpg	1	4	1	prawn	1	V	15	0	249	0		0	0	198.321449099982	198.421407299989
41148.25	0.0999882000032812	523	hunger	stimuli/foods\toasted_bread_with_tomatoes.jpg	1	4	1	toasted_bread_with_tomatoes	1	X	17	0	275	0		0	0	198.471420300019	198.571408500022
41185.75	0.099974500015378	524	hunger	stimuli/non_foods\non-food_inanimate_tulip.jpg	1	4	1	non-food_inanimate_tulip	0	H	5	0	224	0		0	0	198.621429499995	198.721404000011
41223.25	0.100011700007599	525	hunger	stimuli/non_foods\non-food_inanimate_lighter.jpg	1	4	1	non-food_inanimate_lighter	0	G	4	0	193	0		0	0	198.77141039999	198.871422099997
41260.75	0.0999836000264622	526	hunger	stimuli/foods\papaya.jpg	1	4	1	papaya	1	P	11	0	235	0		0	0	198.9214164	199.021400000027
41298.25	0.0999797999975272	527	hunger	stimuli/foods\hamburger.jpg	1	4	1	hamburger	1	U	23	1	64	0		0	0	199.071413099999	199.171392899996
41335.75	0.100013999966905	528	hunger	stimuli/non_foods\non-food_inanimate_stoplight.jpg	1	4	1	non-food_inanimate_stoplight	0	N	10	0	214	0		0	0	199.221405900025	199.321419899992
41373.25	0.0999764999723993	529	hunger	stimuli/non_foods\non-food_animate_horse.jpg	1	4	1	non-food_animate_horse	0	F	3	0	119	0		0	0	199.371407400002	199.471383899974
41410.75	0.0999843999743462	530	hunger	stimuli/foods\brussel_sprouts.jpg	1	4	1	brussel_sprouts	1	V	15	0	15	0		0	0	199.521411499998	199.621395899972
41448.25	0.0999819000135176	531	hunger	stimuli/foods\grapefruits.jpg	1	4	1	grapefruits	1	N	10	0	59	1	a	0.691843000007793	1	199.671412599972	199.771394499985
41485.75	0.100002500053961	532	hunger	stimuli/non_foods\non-food_inanimate_couch.jpg	1	4	1	non-food_inanimate_couch	0	M	9	0	176	0		0	0	199.82140939997	199.921411900024
41523.25	0.0999925000360236	533	hunger	stimuli/non_foods\non-food_animate_penguin.jpg	1	4	1	non-food_animate_penguin	0	C	1	0	135	0		0	0	199.971393299988	200.071385800024
41560.75	0.0999851999804378	534	hunger	stimuli/non_foods\non-food_inanimate_wrench.jpg	1	4	1	non-food_inanimate_wrench	0	P	11	0	227	0		0	0	200.121399800002	200.221384999983
41598.25	0.100008699984755	535	hunger	stimuli/non_foods\non-food_animate_baby_crawling.jpg	1	4	1	non-food_animate_baby_crawling	0	M	9	0	92	0		0	0	200.271380499995	200.37138919998
41635.75	0.0999869999941438	536	hunger	stimuli/non_foods\non-food_inanimate_padlock.jpg	1	4	1	non-food_inanimate_padlock	0	T	14	0	199	0		0	0	200.421402100008	200.521389100002
41673.25	0.0999840999720618	537	hunger	stimuli/non_foods\non-food_inanimate_sun_flower.jpg	1	4	1	non-food_inanimate_sun_flower	0	W	16	0	216	0		0	0	200.57140060002	200.671384699992
41710.75	0.0999868999933824	538	hunger	stimuli/non_foods\non-food_inanimate_suitcase.jpg	1	4	1	non-food_inanimate_suitcase	0	R	12	0	215	0		0	0	200.721397300018	200.821384200011
41748.25	0.099987699999474	539	hunger	stimuli/foods\peas.jpg	1	4	1	peas	1	L	8	0	240	0		0	0	200.871400600008	200.971388300008
41785.75	0.0999959000037052	540	hunger	stimuli/non_foods\non-food_inanimate_bicycle.jpg	1	4	1	non-food_inanimate_bicycle	0	G	4	0	161	0		0	0	201.021396299999	201.121392200002
41823.25	0.0999860999872908	541	hunger	stimuli/non_foods\non-food_animate_ram.jpg	1	4	1	non-food_animate_ram	0	M	9	0	140	0		0	0	201.171396200021	201.271382300009
41860.75	0.0999841000302695	542	hunger	stimuli/non_foods\non-food_animate_camel.jpg	1	4	1	non-food_animate_camel	0	Z	18	0	97	0		0	0	201.321395299979	201.42137940001
41898.25	0.0999835999682546	543	hunger	stimuli/foods\baked_cod_with_carrots_and_green_beans.jpg	1	4	1	baked_cod_with_carrots_and_green_beans	1	M	9	0	7	0		0	0	201.471388200007	201.571371799975
41935.75	0.100019299949054	544	hunger	stimuli/foods\peach.jpg	1	4	1	peach	1	W	16	0	238	0		0	0	201.621387200023	201.721406499972
41973.25	0.0999689000309445	545	hunger	stimuli/non_foods\non-food_inanimate_teddy_bear.jpg	1	4	1	non-food_inanimate_teddy_bear	0	F	3	0	218	0		0	0	201.771400999976	201.871369900007
42010.75	0.0999827000196092	546	hunger	stimuli/foods\oven-roasted_tomatoes.jpg	1	4	1	oven-roasted_tomatoes	1	J	6	0	232	0		0	0	201.921377299994	202.021360000013
42048.25	0.0999869999941438	547	hunger	stimuli/foods\swordfish.jpg	1	4	1	swordfish	1	Z	18	0	273	0		0	0	202.071387999982	202.171374999976
42085.75	0.0999619999784045	548	hunger	stimuli/non_foods\non-food_animate_student_female.jpg	1	4	1	non-food_animate_student_female	0	X	17	0	151	0		0	0	202.221379800001	202.32134179998
42123.25	0.0999845000333153	549	hunger	stimuli/non_foods\non-food_inanimate_bowling_ball.jpg	1	4	1	non-food_inanimate_bowling_ball	0	E	20	1	162	0		0	0	202.371380399971	202.471364900004
42160.75	0.0999824000173248	550	hunger	stimuli/non_foods\non-food_inanimate_button.jpg	1	4	1	non-food_inanimate_button	0	K	7	0	168	0		0	0	202.521381800005	202.621364200022
42198.25	0.0999827000196092	551	hunger	stimuli/foods\roasted_chicken.jpg	1	4	1	roasted_chicken	1	N	10	0	261	0		0	0	202.671385299996	202.771368000016
42235.75	0.0999829000211321	552	hunger	stimuli/non_foods\non-food_inanimate_short_sleeved_shirt.jpg	1	4	1	non-food_inanimate_short_sleeved_shirt	0	H	5	0	207	1	a	0.453975300013553	1	202.821381099988	202.921364000009
42273.25	0.099984799977392	553	hunger	stimuli/non_foods\non-food_inanimate_skirt.jpg	1	4	1	non-food_inanimate_skirt	0	B	0	0	209	0		0	0	202.971375500027	203.071360300004
42310.75	0.0999868999933824	554	hunger	stimuli/foods\avocado.jpg	1	4	1	avocado	1	F	3	0	5	0		0	0	203.121374199982	203.221361099975
42348.25	0.0999839999713004	555	hunger	stimuli/foods\nectarine.jpg	1	4	1	nectarine	1	V	15	0	87	0		0	0	203.2713735	203.371357499971
42385.75	0.0999919999740086	556	hunger	stimuli/non_foods\non-food_inanimate_tree.jpg	1	4	1	non-food_inanimate_tree	0	M	9	0	223	0		0	0	203.42137310002	203.521365099994
42423.25	0.0999639000510797	557	hunger	stimuli/foods\pomegranate.jpg	1	4	1	pomegranate	1	K	7	0	244	0		0	0	203.571394499973	203.671358400024
42460.75	0.0999870999949053	558	hunger	stimuli/foods\clams.jpg	1	4	1	clams	1	D	2	0	32	0		0	0	203.721367100021	203.821354200016
42498.25	0.0999668000149541	559	hunger	stimuli/non_foods\non-food_animate_cat.jpg	1	4	1	non-food_animate_cat	0	V	15	0	98	0		0	0	203.871367199987	203.971334000002
43877.5	0.0999780999845825	560	hunger	stimuli/foods\apple.jpg	1	5	1	apple	1	F	3	0	1	0		0	0	209.387987299997	209.487965399981
43915	0.0999871999956667	561	hunger	stimuli/non_foods\non-food_animate_cheetah.jpg	1	5	1	non-food_animate_cheetah	0	D	2	0	100	0		0	0	209.537976899999	209.637964099995
43952.5	0.0999829999636859	562	hunger	stimuli/foods\cooked_ham.jpg	1	5	1	cooked_ham	1	X	17	0	35	0		0	0	209.687982500007	209.787965499971
43990	0.100001899991184	563	hunger	stimuli/foods\fruit_pie.jpg	1	5	1	fruit_pie	1	P	11	0	54	0		0	0	209.837975999981	209.937977899972
44027.5	0.0999970000120811	564	hunger	stimuli/non_foods\non-food_inanimate_grass.jpg	1	5	1	non-food_inanimate_grass	0	H	5	0	184	0		0	0	209.987972299976	210.087969299988
44065	0.0999848999781534	565	hunger	stimuli/non_foods\non-food_inanimate_highlighter.jpg	1	5	1	non-food_inanimate_highlighter	0	N	10	0	189	0		0	0	210.137973600009	210.237958499987
44102.5	0.0999888000078499	566	hunger	stimuli/non_foods\non-food_animate_runner.jpg	1	5	1	non-food_animate_runner	0	S	13	0	142	0		0	0	210.287968499993	210.387957300001
44140	0.0999924999778159	567	hunger	stimuli/foods\grapes.jpg	1	5	1	grapes	1	T	14	0	60	0		0	0	210.43796760001	210.537960099988
44177.5	0.0999509000102989	568	hunger	stimuli/non_foods\non-food_animate_grasshopper.jpg	1	5	1	non-food_animate_grasshopper	0	G	4	0	117	0		0	0	210.588000899996	210.687951800006
44215	0.0999722999986261	569	hunger	stimuli/non_foods\non-food_animate_ant.jpg	1	5	1	non-food_animate_ant	0	L	8	0	91	0		0	0	210.737980799982	210.837953099981
44252.5	0.0999793999944814	570	hunger	stimuli/non_foods\non-food_inanimate_scissors.jpg	1	5	1	non-food_inanimate_scissors	0	H	5	0	205	0		0	0	210.887968200026	210.987947600021
44290	0.099982000014279	571	hunger	stimuli/foods\brussel_sprouts.jpg	1	5	1	brussel_sprouts	1	F	3	0	15	0		0	0	211.03795779997	211.137939799984
44327.5	0.0999663000111468	572	hunger	stimuli/foods\fried_zucchini.jpg	1	5	1	fried_zucchini	1	W	16	0	51	0		0	0	211.187957599992	211.287923900003
44365	0.10000089998357	573	hunger	stimuli/foods\cupcake.jpg	1	5	1	cupcake	1	K	7	0	42	0		0	0	211.337935800024	211.437936700007
44402.5	0.0999957000021823	574	hunger	stimuli/non_foods\non-food_animate_ladybug.jpg	1	5	1	non-food_animate_ladybug	0	Z	18	0	124	0		0	0	211.48794859997	211.587944299972
44440	0.0999952999991365	575	hunger	stimuli/non_foods\non-food_animate_dolphin.jpg	1	5	1	non-food_animate_dolphin	0	J	6	0	106	0		0	0	211.637957800005	211.737953100004
44477.5	0.0999825999606401	576	hunger	stimuli/non_foods\non-food_inanimate_soccer_ball.jpg	1	5	1	non-food_inanimate_soccer_ball	0	T	14	0	210	0		0	0	211.78795670002	211.887939299981
44515	0.100025399995502	577	hunger	stimuli/foods\pork_and_rice.jpg	1	5	1	pork_and_rice	1	S	13	0	245	0		0	0	211.937953500019	212.037978900014
44552.5	0.0999911000253633	578	hunger	stimuli/non_foods\non-food_animate_ram.jpg	1	5	1	non-food_animate_ram	0	H	5	0	140	0		0	0	212.087938299985	212.18792940001
44590	0.10002249997342	579	hunger	stimuli/non_foods\non-food_inanimate_couch.jpg	1	5	1	non-food_inanimate_couch	0	R	12	0	176	0		0	0	212.2379296	212.337952099973
44627.5	0.0999643999966793	580	hunger	stimuli/non_foods\non-food_animate_giraffe.jpg	1	5	1	non-food_animate_giraffe	0	X	17	0	115	0		0	0	212.387972099998	212.487936499994
44665	0.0999831999652088	581	hunger	stimuli/foods\blackberry.jpg	1	5	1	blackberry	1	F	3	0	11	0		0	0	212.53794900002	212.637932199985
44702.5	0.0999735000077635	582	hunger	stimuli/foods\clams.jpg	1	5	1	clams	1	R	12	0	32	0		0	0	212.687959700008	212.787933200016
44740	0.0999915000284091	583	hunger	stimuli/non_foods\non-food_animate_lion.jpg	1	5	1	non-food_animate_lion	0	D	2	0	125	0		0	0	212.837938699988	212.937930200016
44777.5	0.0999884000048041	584	hunger	stimuli/non_foods\non-food_animate_mammoth.jpg	1	5	1	non-food_animate_mammoth	0	X	17	0	128	0		0	0	212.987939800019	213.087928200024
44815	0.0999888000078499	585	hunger	stimuli/foods\figs.jpg	1	5	1	figs	1	K	7	0	48	0		0	0	213.137939699984	213.237928499992
44852.5	0.0999829999636859	586	hunger	stimuli/foods\hamburger.jpg	1	5	1	hamburger	1	H	5	0	64	0		0	0	213.287941600021	213.387924599985
44890	0.100032299989834	587	hunger	stimuli/non_foods\non-food_inanimate_tree.jpg	1	5	1	non-food_inanimate_tree	0	V	15	0	223	0		0	0	213.437936600007	213.537968899996
44927.5	0.0999861000454985	588	hunger	stimuli/foods\kiwi.jpg	1	5	1	kiwi	1	L	8	0	69	0		0	0	213.587936999975	213.68792310002
44965	0.0999872999964282	589	hunger	stimuli/foods\broccoli.jpg	1	5	1	broccoli	1	B	0	0	13	0		0	0	213.737933799974	213.83792109997
45002.5	0.0999933000421152	590	hunger	stimuli/foods\rockmelon.jpg	1	5	1	rockmelon	1	N	10	0	262	0		0	0	213.887931199977	213.987924500019
45040	0.0999743000138551	591	hunger	stimuli/non_foods\non-food_animate_kangaroo.jpg	1	5	1	non-food_animate_kangaroo	0	S	13	0	122	0		0	0	214.03793479997	214.137909099984
45077.5	0.0999722999986261	592	hunger	stimuli/foods\pickles.jpg	1	5	1	pickles	1	N	10	0	242	0		0	0	214.187944400008	214.287916700006
45115	0.0999854000401683	593	hunger	stimuli/non_foods\non-food_animate_green_bug.jpg	1	5	1	non-food_animate_green_bug	0	C	1	0	118	0		0	0	214.33792999998	214.43791540002
45152.5	0.099987699999474	594	hunger	stimuli/foods\cherry.jpg	1	5	1	cherry	1	B	0	0	23	0		0	0	214.487926699978	214.587914399977
45190	0.0999870999949053	595	hunger	stimuli/foods\bagel.jpg	1	5	1	bagel	1	P	11	0	6	0		0	0	214.637928000011	214.737915100006
45227.5	0.0999862999888137	596	hunger	stimuli/foods\chocolate_chip_cookies.jpg	1	5	1	chocolate_chip_cookies	1	G	4	0	27	0		0	0	214.787925600016	214.887911900005
45265	0.0999827000196092	597	hunger	stimuli/non_foods\non-food_animate_peacock.jpg	1	5	1	non-food_animate_peacock	0	V	15	0	134	0		0	0	214.93792419997	215.03790689999
45302.5	0.0999866000493057	598	hunger	stimuli/non_foods\non-food_animate_sea_lion.jpg	1	5	1	non-food_animate_sea_lion	0	S	13	0	143	0		0	0	215.087921599974	215.187908200023
45340	0.0999605999677442	599	hunger	stimuli/foods\salmon.jpg	1	5	1	salmon	1	K	7	0	264	0		0	0	215.237946900015	215.337907499983
45377.5	0.0999787000473589	600	hunger	stimuli/foods\grapefruits.jpg	1	5	1	grapefruits	1	G	4	0	59	0		0	0	215.387923299975	215.487902000023
45415	0.0999792999937199	601	hunger	stimuli/foods\peas.jpg	1	5	1	peas	1	I	21	1	240	0		0	0	215.537917600013	215.637896900007
45452.5	0.0999851999804378	602	hunger	stimuli/foods\raisins.jpg	1	5	1	raisins	1	L	8	0	252	0		0	0	215.687915900024	215.787901100004
45490	0.100005100015551	603	hunger	stimuli/foods\linguine_with_clams.jpg	1	5	1	linguine_with_clams	1	R	12	0	77	0		0	0	215.837918000005	215.93792310002
45527.5	0.0999436000129208	604	hunger	stimuli/foods\frankfurter_and_provolone_salad.jpg	1	5	1	frankfurter_and_provolone_salad	1	K	7	0	49	0		0	0	215.987956399971	216.087899999984
45565	0.099986599991098	605	hunger	stimuli/non_foods\non-food_animate_duck.jpg	1	5	1	non-food_animate_duck	0	P	11	0	109	1	a	0.593308799958322	1	216.137912400009	216.237899
45602.5	0.0999884000048041	606	hunger	stimuli/non_foods\non-food_inanimate_orchid.jpg	1	5	1	non-food_inanimate_orchid	0	N	10	0	198	0		0	0	216.287909400009	216.387897800014
45640	0.0999827000196092	607	hunger	stimuli/foods\chestnut.jpg	1	5	1	chestnut	1	G	4	0	24	0		0	0	216.437912499998	216.537895200017
45677.5	0.0999895000131801	608	hunger	stimuli/non_foods\non-food_inanimate_bamboo.jpg	1	5	1	non-food_inanimate_bamboo	0	H	5	0	159	0		0	0	216.587906499975	216.687895999989
45715	0.0999827000196092	609	hunger	stimuli/foods\coffee_beans.jpg	1	5	1	coffee_beans	1	W	16	0	34	0		0	0	216.737907400005	216.837890100025
45752.5	0.0999911000253633	610	hunger	stimuli/non_foods\non-food_animate_donkey.jpg	1	5	1	non-food_animate_donkey	0	F	3	0	107	0		0	0	216.887900099973	216.987891199999
45790	0.0999575000023469	611	hunger	stimuli/foods\cucumber.jpg	1	5	1	cucumber	1	S	13	0	41	0		0	0	217.037933900021	217.137891400023
45827.5	0.099986599991098	612	hunger	stimuli/foods\capsicum.jpg	1	5	1	capsicum	1	D	2	0	18	0		0	0	217.187903399987	217.287889999978
45865	0.0999833000241779	613	hunger	stimuli/foods\oyster.jpg	1	5	1	oyster	1	S	13	0	233	0		0	0	217.337900399987	217.437883700011
45902.5	0.0999843999743462	614	hunger	stimuli/foods\chocolate_pudding.jpg	1	5	1	chocolate_pudding	1	F	3	0	29	1	a	0	0	217.48790040001	217.587884799985
45940	0.0999946999945678	615	hunger	stimuli/non_foods\non-food_animate_mouse.jpg	1	5	1	non-food_animate_mouse	0	S	13	0	131	0		0	0	217.637908499979	217.737903199974
45977.5	0.0999445000197738	616	hunger	stimuli/non_foods\non-food_animate_yellow_bug.jpg	1	5	1	non-food_animate_yellow_bug	0	J	6	0	155	0		0	0	217.787937099987	217.887881600007
46015	0.0999835000257008	617	hunger	stimuli/non_foods\non-food_animate_sea_turtle.jpg	1	5	1	non-food_animate_sea_turtle	0	U	23	1	144	0		0	0	217.937894499977	218.037878000003
46052.5	0.0999875999987125	618	hunger	stimuli/non_foods\non-food_inanimate_drum_set.jpg	1	5	1	non-food_inanimate_drum_set	0	T	14	0	179	0		0	0	218.087893599994	218.187881199992
46090	0.0999860999872908	619	hunger	stimuli/non_foods\non-food_animate_caterpillar.jpg	1	5	1	non-food_animate_caterpillar	0	F	3	0	99	0		0	0	218.237892300007	218.337878399994
46127.5	0.099984799977392	620	hunger	stimuli/foods\lamb_chops.jpg	1	5	1	lamb_chops	1	B	0	0	70	0		0	0	218.387890400016	218.487875199993
46165	0.0999869999941438	621	hunger	stimuli/foods\red_beans.jpg	1	5	1	red_beans	1	M	9	0	255	1	a	0.593208200007211	1	218.537888300023	218.637875300017
46202.5	0.099982000014279	622	hunger	stimuli/non_foods\non-food_animate_raccoon.jpg	1	5	1	non-food_animate_raccoon	0	X	17	0	139	0		0	0	218.687888199987	218.787870200002
46240	0.0999841999728233	623	hunger	stimuli/foods\chocolate_pralines.jpg	1	5	1	chocolate_pralines	1	D	2	0	28	0		0	0	218.837886699999	218.937870899972
46277.5	0.0999911999679171	624	hunger	stimuli/foods\onion.jpg	1	5	1	onion	1	N	10	0	229	0		0	0	218.987884400005	219.087875599973
46315	0.0999817000119947	625	hunger	stimuli/foods\steak.jpg	1	5	1	steak	1	D	2	0	270	0		0	0	219.137884899974	219.237866599986
46352.5	0.0999904999625869	626	hunger	stimuli/non_foods\non-food_inanimate_moss.jpg	1	5	1	non-food_inanimate_moss	0	R	12	0	194	0		0	0	219.287879200012	219.387869699975
46390	0.100004700012505	627	hunger	stimuli/non_foods\non-food_inanimate_towel.jpg	1	5	1	non-food_inanimate_towel	0	P	11	0	221	0		0	0	219.437886499974	219.537891199987
46427.5	0.0999504000064917	628	hunger	stimuli/non_foods\non-food_inanimate_bicycle.jpg	1	5	1	non-food_inanimate_bicycle	0	N	10	0	161	0		0	0	219.587914499978	219.687864899985
46465	0.0999848999781534	629	hunger	stimuli/foods\coconut.jpg	1	5	1	coconut	1	P	11	0	33	0		0	0	219.73787870002	219.837863599998
46502.5	0.0999837999697775	630	hunger	stimuli/non_foods\non-food_inanimate_folding_chair.jpg	1	5	1	non-food_inanimate_folding_chair	0	B	0	0	182	0		0	0	219.887875600019	219.987859399989
46540	0.0999869999941438	631	hunger	stimuli/non_foods\non-food_inanimate_chandelier.jpg	1	5	1	non-food_inanimate_chandelier	0	D	2	0	173	0		0	0	220.037872500019	220.137859500013
46577.5	0.0999816000112332	632	hunger	stimuli/foods\egg.jpg	1	5	1	egg	1	G	4	0	45	0		0	0	220.187872399983	220.287853999995
46615	0.099979400052689	633	hunger	stimuli/foods\tomato.jpg	1	5	1	tomato	1	M	9	0	276	0		0	0	220.337867499969	220.437846900022
46652.5	0.0999855999834836	634	hunger	stimuli/foods\cereal.jpg	1	5	1	cereal	1	L	8	0	22	0		0	0	220.487869600009	220.587855199992
46690	0.0999903000192717	635	hunger	stimuli/non_foods\non-food_animate_woman.jpg	1	5	1	non-food_animate_woman	0	D	2	0	154	0		0	0	220.637864999997	220.737855300016
46727.5	0.099984799977392	636	hunger	stimuli/non_foods\non-food_inanimate_bed.jpg	1	5	1	non-food_inanimate_bed	0	F	3	0	160	1	a	0	0	220.787865400023	220.887850200001
46765	0.0999828000203706	637	hunger	stimuli/foods\hazelnuts.jpg	1	5	1	hazelnuts	1	W	16	0	65	0		0	0	220.937867500004	221.037850300025
46802.5	0.0999855000409298	638	hunger	stimuli/non_foods\non-food_animate_snail.jpg	1	5	1	non-food_animate_snail	0	M	9	0	149	0		0	0	221.087861599983	221.187847100024
46840	0.0999472999828868	639	hunger	stimuli/non_foods\non-food_animate_cat.jpg	1	5	1	non-food_animate_cat	0	J	6	0	98	0		0	0	221.237892600009	221.337839899992
46877.5	0.100003800005652	640	hunger	stimuli/foods\cabbage.jpg	1	5	1	cabbage	1	K	7	0	16	0		0	0	221.387843400007	221.487847200013
46915	0.0999872999964282	641	hunger	stimuli/foods\spring_onions.jpg	1	5	1	spring_onions	1	X	17	0	269	0		0	0	221.537857200019	221.637844500015
46952.5	0.0999878000002354	642	hunger	stimuli/foods\spaghetti_with_meat_sauce.jpg	1	5	1	spaghetti_with_meat_sauce	1	Z	18	0	267	0		0	0	221.687855499971	221.787843299971
46990	0.0999782999861054	643	hunger	stimuli/non_foods\non-food_inanimate_toy_airplane.jpg	1	5	1	non-food_inanimate_toy_airplane	0	C	1	0	222	0		0	0	221.837855299993	221.937833599979
47027.5	0.099978500045836	644	hunger	stimuli/non_foods\non-food_animate_parrot.jpg	1	5	1	non-food_animate_parrot	0	Z	18	0	133	0		0	0	221.987849399971	222.087827900017
47065	0.0999845000333153	645	hunger	stimuli/foods\mortadella.jpg	1	5	1	mortadella	1	C	1	0	83	0		0	0	222.137849199993	222.237833700026
47102.5	0.100003500003368	646	hunger	stimuli/non_foods\non-food_animate_young_boy.jpg	1	5	1	non-food_animate_young_boy	0	Z	18	0	156	0		0	0	222.287836899981	222.387840399984
47140	0.100000699982047	647	hunger	stimuli/foods\chilli.jpg	1	5	1	chilli	1	K	7	0	25	0		0	0	222.437834699987	222.537835399969
