onset	duration	eventnumber	hunger_condition	stimfilename	blockno	trialno	is_faststream	stim	food_idx	letter	letter_idx	istarget	image_number	response	keypressed	rt	correct	time_stimon	time_stimoff
4994.5	0.0999720999998317	0	hunger	stimuli/non_foods\non-food_inanimate_short_sleeved_shirt.jpg	1	1	1	non-food_inanimate_short_sleeved_shirt	0	P	11	0	207	0		0	0	51.1005417999995	51.2005138999994
5031.75	0.100057900000138	1	hunger	stimuli/non_foods\non-food_inanimate_watering_can.jpg	1	1	1	non-food_inanimate_watering_can	0	B	0	0	225	0		0	0	51.2505173999998	51.3505752999999
5069.25	0.099984399999812	2	hunger	stimuli/non_foods\non-food_animate_donkey.jpg	1	1	1	non-food_animate_donkey	0	L	8	0	107	0		0	0	51.4005269999998	51.5005113999996
5107	0.0999658000000636	3	hunger	stimuli/non_foods\non-food_animate_seal.jpg	1	1	1	non-food_animate_seal	0	S	13	0	146	0		0	0	51.5505463999998	51.6505121999999
5144.25	0.099978999999621	4	hunger	stimuli/non_foods\non-food_animate_gorilla.jpg	1	1	1	non-food_animate_gorilla	0	W	16	0	116	0		0	0	51.7005288999999	51.8005078999995
5181.75	0.0999877999993259	5	hunger	stimuli/non_foods\non-food_inanimate_highlighter.jpg	1	1	1	non-food_inanimate_highlighter	0	L	8	0	189	0		0	0	51.8505224	51.9505101999994
5219.25	0.099984399999812	6	hunger	stimuli/foods\pepperoni_pizza.jpg	1	1	1	pepperoni_pizza	1	B	0	0	241	0		0	0	52.0005236999996	52.1005080999994
5256.75	0.100004400000216	7	hunger	stimuli/foods\pineapple.jpg	1	1	1	pineapple	1	L	8	0	243	0		0	0	52.1505275	52.2505319000002
5294.5	0.0999490000003789	8	hunger	stimuli/non_foods\non-food_inanimate_protractor.jpg	1	1	1	non-food_inanimate_protractor	0	X	17	0	201	0		0	0	52.3005582999995	52.4005072999998
5331.75	0.0999847999992198	9	hunger	stimuli/foods\hamburger.jpg	1	1	1	hamburger	1	J	6	0	64	0		0	0	52.4505220000001	52.5505067999993
5369.25	0.0999784000005093	10	hunger	stimuli/non_foods\non-food_inanimate_horn.jpg	1	1	1	non-food_inanimate_horn	0	F	3	0	190	0		0	0	52.6005142999993	52.7004926999998
5406.75	0.0999781000000439	11	hunger	stimuli/non_foods\non-food_animate_lizard.jpg	1	1	1	non-food_animate_lizard	0	R	12	0	126	0		0	0	52.7505096999994	52.8504877999994
5444.25	0.09998110000015	12	hunger	stimuli/non_foods\non-food_animate_iguana.jpg	1	1	1	non-food_animate_iguana	0	Z	18	0	121	0		0	0	52.9005238	53.0005049000001
5482	0.0997340000003533	13	hunger	stimuli/non_foods\non-food_animate_cat.jpg	1	1	1	non-food_animate_cat	0	X	17	0	98	0		0	0	53.0507701999995	53.1505041999999
5519.25	0.0999816999992618	14	hunger	stimuli/foods\garlic.jpg	1	1	1	garlic	1	W	16	0	56	0		0	0	53.2005159	53.3004975999993
5556.75	0.0999827000005098	15	hunger	stimuli/non_foods\non-food_inanimate_buds.jpg	1	1	1	non-food_inanimate_buds	0	T	14	0	166	0		0	0	53.3505128999996	53.4504956000001
5594.25	0.0999847000002774	16	hunger	stimuli/non_foods\non-food_inanimate_chair.jpg	1	1	1	non-food_inanimate_chair	0	R	12	0	172	0		0	0	53.5005081999998	53.6004929000001
5631.75	0.0999816000003193	17	hunger	stimuli/foods\oregano.jpg	1	1	1	oregano	1	U	23	1	231	0		0	0	53.6505087999994	53.7504903999998
5669.25	0.0999946000001728	18	hunger	stimuli/non_foods\non-food_animate_caterpillar.jpg	1	1	1	non-food_animate_caterpillar	0	L	8	0	99	0		0	0	53.8004990999998	53.9004937
5706.75	0.0999639999999999	19	hunger	stimuli/foods\steak.jpg	1	1	1	steak	1	H	5	0	270	0		0	0	53.9505172999998	54.0504812999998
5744.25	0.0999791000003825	20	hunger	stimuli/non_foods\non-food_animate_chicken.jpg	1	1	1	non-food_animate_chicken	0	V	15	0	101	0		0	0	54.1004999999996	54.2004790999999
5781.75	0.0999887999996645	21	hunger	stimuli/non_foods\non-food_inanimate_moss.jpg	1	1	1	non-food_inanimate_moss	0	N	10	0	194	0		0	0	54.2504928999997	54.3504816999994
5819.25	0.0999860000001718	22	hunger	stimuli/foods\figs.jpg	1	1	1	figs	1	T	14	0	48	0		0	0	54.4004926999996	54.5004786999998
5856.75	0.0999891999999818	23	hunger	stimuli/non_foods\non-food_inanimate_nettle.jpg	1	1	1	non-food_inanimate_nettle	0	R	12	0	197	0		0	0	54.5504901999993	54.6504793999993
5894.25	0.0999958000002152	24	hunger	stimuli/non_foods\non-food_inanimate_bicycle.jpg	1	1	1	non-food_inanimate_bicycle	0	H	5	0	161	0		0	0	54.7004897999996	54.8004855999998
5931.75	0.0999739999997473	25	hunger	stimuli/non_foods\non-food_inanimate_desk.jpg	1	1	1	non-food_inanimate_desk	0	T	14	0	178	0		0	0	54.8504972000001	54.9504711999998
5969.25	0.0999876000005315	26	hunger	stimuli/non_foods\non-food_inanimate_soccer_ball.jpg	1	1	1	non-food_inanimate_soccer_ball	0	P	11	0	210	0		0	0	55.0004862999995	55.1004739
6006.75	0.0999880999997913	27	hunger	stimuli/foods\blackberry.jpg	1	1	1	blackberry	1	M	9	0	11	0		0	0	55.1504930000001	55.2504810999999
6044.25	0.0999874999997701	28	hunger	stimuli/foods\carrot.jpg	1	1	1	carrot	1	B	0	0	19	0		0	0	55.300491	55.4004784999997
6081.75	0.0999845999995159	29	hunger	stimuli/non_foods\non-food_animate_killer_whale.jpg	1	1	1	non-food_animate_killer_whale	0	X	17	0	123	0		0	0	55.4504913000001	55.5504758999996
6119.25	0.0999871999993047	30	hunger	stimuli/foods\rice.jpg	1	1	1	rice	1	R	12	0	257	0		0	0	55.6004935000001	55.7004806999994
6157	0.0999542999998084	31	hunger	stimuli/foods\grapes.jpg	1	1	1	grapes	1	D	2	0	60	0		0	0	55.7505192999997	55.8504735999995
6194.25	0.0999880999997913	32	hunger	stimuli/non_foods\non-food_animate_slug.jpg	1	1	1	non-food_animate_slug	0	J	6	0	148	0		0	0	55.9004863	56.0004743999998
6231.75	0.0999813999997059	33	hunger	stimuli/non_foods\non-food_inanimate_padlock.jpg	1	1	1	non-food_inanimate_padlock	0	M	9	0	199	0		0	0	56.0504873	56.1504686999997
6269.25	0.0999949999995806	34	hunger	stimuli/non_foods\non-food_animate_mammoth.jpg	1	1	1	non-food_animate_mammoth	0	R	12	0	128	0		0	0	56.2004771000002	56.3004720999998
6306.75	0.099978999999621	35	hunger	stimuli/foods\papaya.jpg	1	1	1	papaya	1	X	17	0	235	0		0	0	56.3504856999998	56.4504646999994
6344.25	0.0999795999996422	36	hunger	stimuli/non_foods\non-food_inanimate_stoplight.jpg	1	1	1	non-food_inanimate_stoplight	0	K	7	0	214	0		0	0	56.5004804999999	56.6004600999995
6381.75	0.100007500000174	37	hunger	stimuli/non_foods\non-food_animate_alligator.jpg	1	1	1	non-food_animate_alligator	0	Z	18	0	90	0		0	0	56.6504588999996	56.7504663999998
6419.25	0.0999992999995811	38	hunger	stimuli/foods\potato_and_green_bean_salad.jpg	1	1	1	potato_and_green_bean_salad	1	G	4	0	246	0		0	0	56.8004786000001	56.9004778999997
6456.75	0.0999867999998969	39	hunger	stimuli/foods\orange.jpg	1	1	1	orange	1	W	16	0	230	0		0	0	56.9504754	57.0504621999999
6494.25	0.0999868999997489	40	hunger	stimuli/foods\beetroots.jpg	1	1	1	beetroots	1	L	8	0	10	0		0	0	57.1004741999996	57.2004610999993
6531.75	0.099986600000193	41	hunger	stimuli/non_foods\non-food_inanimate_orchid.jpg	1	1	1	non-food_inanimate_orchid	0	T	14	0	198	0		0	0	57.2504731999998	57.3504598
6569.25	0.0999744999999166	42	hunger	stimuli/foods\spinach.jpg	1	1	1	spinach	1	M	9	0	268	0		0	0	57.4004845999998	57.5004590999997
6606.75	0.099982299999283	43	hunger	stimuli/non_foods\non-food_animate_frog.jpg	1	1	1	non-food_animate_frog	0	J	6	0	113	0		0	0	57.5504725000001	57.6504547999994
6644.25	0.0999837999997908	44	hunger	stimuli/foods\omelette.jpg	1	1	1	omelette	1	S	13	0	228	0		0	0	57.7004688999996	57.8004526999994
6681.75	0.0999885000001086	45	hunger	stimuli/non_foods\non-food_animate_green_bug.jpg	1	1	1	non-food_animate_green_bug	0	E	20	1	118	0		0	0	57.8504696	57.9504581000001
6719.25	0.0999700000002122	46	hunger	stimuli/non_foods\non-food_inanimate_headphones.jpg	1	1	1	non-food_inanimate_headphones	0	X	17	0	188	0		0	0	58.0004726999996	58.1004426999998
6756.75	0.0999891999999818	47	hunger	stimuli/foods\lettuce.jpg	1	1	1	lettuce	1	G	4	0	75	1	a	0.391819499999656	1	58.1504546999995	58.2504438999995
6794.25	0.0999867000000449	48	hunger	stimuli/non_foods\non-food_inanimate_cap.jpg	1	1	1	non-food_inanimate_cap	0	H	5	0	171	0		0	0	58.3004578	58.4004445
6831.75	0.0999860000001718	49	hunger	stimuli/foods\salmon.jpg	1	1	1	salmon	1	T	14	0	264	0		0	0	58.4504532999999	58.5504393000001
6869.25	0.0999799000001076	50	hunger	stimuli/non_foods\non-food_animate_pigeon.jpg	1	1	1	non-food_animate_pigeon	0	H	5	0	136	0		0	0	58.6004619999994	58.7004418999995
6906.75	0.0999709999996412	51	hunger	stimuli/foods\rice_cake.jpg	1	1	1	rice_cake	1	G	4	0	258	0		0	0	58.7504657999998	58.8504367999994
6944.25	0.0999766999993881	52	hunger	stimuli/foods\chocolate_bar.jpg	1	1	1	chocolate_bar	1	H	5	0	26	0		0	0	58.9004543999999	59.0004310999993
6981.75	0.100013399999625	53	hunger	stimuli/foods\taco.jpg	1	1	1	taco	1	X	17	0	274	0		0	0	59.0504314	59.1504447999996
7019.25	0.0999858999994103	54	hunger	stimuli/foods\nectarine.jpg	1	1	1	nectarine	1	C	1	0	87	0		0	0	59.2004539	59.3004397999994
7056.75	0.0999867000000449	55	hunger	stimuli/non_foods\non-food_inanimate_leaf.jpg	1	1	1	non-food_inanimate_leaf	0	W	16	0	192	0		0	0	59.3504544999996	59.4504411999997
7094.25	0.0999812999998539	56	hunger	stimuli/non_foods\non-food_inanimate_toilet.jpg	1	1	1	non-food_inanimate_toilet	0	B	0	0	220	0		0	0	59.5004552	59.6004364999999
7131.75	0.0999849999998332	57	hunger	stimuli/non_foods\non-food_animate_grasshopper.jpg	1	1	1	non-food_animate_grasshopper	0	R	12	0	117	0		0	0	59.6504495999998	59.7504345999996
7169.25	0.0999889000004259	58	hunger	stimuli/foods\gnocchi.jpg	1	1	1	gnocchi	1	P	11	0	58	1	a	0	0	59.8004440999994	59.9004329999998
7206.75	0.0999855000000025	59	hunger	stimuli/foods\avocado.jpg	1	1	1	avocado	1	M	9	0	5	0		0	0	59.9504406999995	60.0504261999995
7244.25	0.0999763999998322	60	hunger	stimuli/foods\lentils.jpg	1	1	1	lentils	1	T	14	0	74	0		0	0	60.1004406000002	60.200417
7281.75	0.100001199999497	61	hunger	stimuli/non_foods\non-food_animate_monkey.jpg	1	1	1	non-food_animate_monkey	0	M	9	0	130	0		0	0	60.2504227999998	60.3504239999993
7319.25	0.0999726999998529	62	hunger	stimuli/foods\pork_and_rice.jpg	1	1	1	pork_and_rice	1	X	17	0	245	0		0	0	60.4004428999997	60.5004155999995
7356.75	0.0999818000000232	63	hunger	stimuli/foods\fruit_flan.jpg	1	1	1	fruit_flan	1	R	12	0	53	0		0	0	60.5504577000002	60.6504395000002
7394.25	0.0999818000000232	64	hunger	stimuli/non_foods\non-food_animate_student_female.jpg	1	1	1	non-food_animate_student_female	0	H	5	0	151	0		0	0	60.7004372000001	60.8004190000001
7431.75	0.0999769000000015	65	hunger	stimuli/non_foods\non-food_animate_mouse.jpg	1	1	1	non-food_animate_mouse	0	G	4	0	131	0		0	0	60.8504321	60.950409
7469.25	0.100010900000598	66	hunger	stimuli/non_foods\non-food_inanimate_toy_airplane.jpg	1	1	1	non-food_inanimate_toy_airplane	0	B	0	0	222	0		0	0	61.0004181999993	61.1004290999999
7506.75	0.0999855000000025	67	hunger	stimuli/foods\clams.jpg	1	1	1	clams	1	N	10	0	32	0		0	0	61.1504371999999	61.2504226999999
7544.25	0.0999905999997281	68	hunger	stimuli/foods\onion.jpg	1	1	1	onion	1	V	15	0	229	0		0	0	61.3004333999997	61.4004239999995
7581.75	0.099992000000384	69	hunger	stimuli/foods\capsicum.jpg	1	1	1	capsicum	1	H	5	0	18	0		0	0	61.4504352999993	61.5504272999997
7619.25	0.0999709999996412	70	hunger	stimuli/non_foods\non-food_inanimate_chandelier.jpg	1	1	1	non-food_inanimate_chandelier	0	W	16	0	173	0		0	0	61.6004482999997	61.7004192999993
7656.75	0.0999732999998741	71	hunger	stimuli/non_foods\non-food_inanimate_speakers.jpg	1	1	1	non-food_inanimate_speakers	0	S	13	0	212	0		0	0	61.7504367000001	61.85041
7694.25	0.0999742999993032	72	hunger	stimuli/foods\minestrone_soup.jpg	1	1	1	minestrone_soup	1	P	11	0	82	0		0	0	61.9004328000001	62.0004070999994
7731.75	0.099996399999327	73	hunger	stimuli/non_foods\non-food_animate_dragonfly.jpg	1	1	1	non-food_animate_dragonfly	0	S	13	0	108	0		0	0	62.0504215000001	62.1504178999994
7769.25	0.0999619999993229	74	hunger	stimuli/foods\croissant.jpg	1	1	1	croissant	1	D	2	0	40	0		0	0	62.2004508	62.3004127999993
7806.75	0.0999877000003835	75	hunger	stimuli/non_foods\non-food_inanimate_canoe.jpg	1	1	1	non-food_inanimate_canoe	0	C	1	0	170	0		0	0	62.3504274999996	62.4504152
7844.25	0.0999823000001925	76	hunger	stimuli/non_foods\non-food_animate_seahorse.jpg	1	1	1	non-food_animate_seahorse	0	H	5	0	145	0		0	0	62.5004310999993	62.6004133999995
7881.75	0.0999837999997908	77	hunger	stimuli/foods\brussel_sprouts.jpg	1	1	1	brussel_sprouts	1	F	3	0	15	0		0	0	62.6504266000002	62.7504104
7919.25	0.0999900999995589	78	hunger	stimuli/non_foods\non-food_inanimate_sun_flower.jpg	1	1	1	non-food_inanimate_sun_flower	0	M	9	0	216	0		0	0	62.8004110000002	62.9004010999997
7956.75	0.0999854000001505	79	hunger	stimuli/foods\pasta_carbonara.jpg	1	1	1	pasta_carbonara	1	X	17	0	236	0		0	0	62.9504149999993	63.0504003999995
7994.25	0.0999867999998969	80	hunger	stimuli/foods\radish.jpg	1	1	1	radish	1	D	2	0	251	0		0	0	63.1004081999999	63.2003949999998
8031.75	0.0999886999998125	81	hunger	stimuli/non_foods\non-food_inanimate_hammer.jpg	1	1	1	non-food_inanimate_hammer	0	J	6	0	186	0		0	0	63.2504085999999	63.3503972999997
8069.25	0.0999859999992623	82	hunger	stimuli/foods\cinnamon_sroll.jpg	1	1	1	cinnamon_sroll	1	V	15	0	31	0		0	0	63.4004094000002	63.5003953999994
8106.75	0.100006000000576	83	hunger	stimuli/non_foods\non-food_animate_dolphin.jpg	1	1	1	non-food_animate_dolphin	0	X	17	0	106	0		0	0	63.5504058999995	63.6504119000001
8144.25	0.0999852999993891	84	hunger	stimuli/non_foods\non-food_inanimate_pine_cone.jpg	1	1	1	non-food_inanimate_pine_cone	0	D	2	0	200	0		0	0	63.7004188000001	63.8004040999995
8181.75	0.0999864000004891	85	hunger	stimuli/foods\lamb_chops.jpg	1	1	1	lamb_chops	1	S	13	0	70	0		0	0	63.8504152999994	63.9504016999999
8219.25	0.099963800000296	86	hunger	stimuli/foods\cucumber.jpg	1	1	1	cucumber	1	P	11	0	41	0		0	0	64.0004351999996	64.1003989999999
8256.75	0.0999855000000025	87	hunger	stimuli/non_foods\non-food_animate_tortoise.jpg	1	1	1	non-food_animate_tortoise	0	X	17	0	153	0		0	0	64.1504128999995	64.2503983999995
8294.25	0.0999865999992835	88	hunger	stimuli/non_foods\non-food_animate_kangaroo.jpg	1	1	1	non-food_animate_kangaroo	0	H	5	0	122	0		0	0	64.3004105	64.4003970999993
8331.75	0.0999860000001718	89	hunger	stimuli/foods\donut.jpg	1	1	1	donut	1	R	12	0	44	0		0	0	64.4504109999998	64.550397
8369.25	0.0999848999999813	90	hunger	stimuli/foods\fries.jpg	1	1	1	fries	1	V	15	0	52	0		0	0	64.6004081000001	64.7003930000001
8406.75	0.0999738000000434	91	hunger	stimuli/foods\lemon.jpg	1	1	1	lemon	1	M	9	0	72	0		0	0	64.7504067	64.8503805
8444.25	0.0999814999995579	92	hunger	stimuli/non_foods\non-food_animate_millipede.jpg	1	1	1	non-food_animate_millipede	0	C	1	0	129	0		0	0	64.9003954999998	65.0003769999994
8481.75	0.0999831000008271	93	hunger	stimuli/non_foods\non-food_inanimate_suitcase.jpg	1	1	1	non-food_inanimate_suitcase	0	R	12	0	215	0		0	0	65.0503943999993	65.1503775000001
8519.25	0.0999676000001273	94	hunger	stimuli/foods\mandarin.jpg	1	1	1	mandarin	1	L	8	0	79	0		0	0	65.2004131999993	65.3003807999994
8556.75	0.0999850999996852	95	hunger	stimuli/foods\asparagus.jpg	1	1	1	asparagus	1	D	2	0	4	0		0	0	65.3503890000002	65.4503740999999
8594.25	0.0999884000002567	96	hunger	stimuli/foods\chocolate_chip_cookies.jpg	1	1	1	chocolate_chip_cookies	1	R	12	0	27	0		0	0	65.5003880999993	65.6003764999996
8631.75	0.100004299999455	97	hunger	stimuli/foods\cauliflower.jpg	1	1	1	cauliflower	1	C	1	0	20	0		0	0	65.6503806000001	65.7503848999995
8669.25	0.0999816000003193	98	hunger	stimuli/non_foods\non-food_inanimate_guitar.jpg	1	1	1	non-food_inanimate_guitar	0	H	5	0	185	0		0	0	65.8003964999998	65.9003781000001
8706.75	0.0999880999997913	99	hunger	stimuli/foods\cooked_ham.jpg	1	1	1	cooked_ham	1	R	12	0	35	0		0	0	65.9503831000002	66.0503712
8744.25	0.100003599999582	100	hunger	stimuli/foods\pickles.jpg	1	1	1	pickles	1	W	16	0	242	0		0	0	66.1003713	66.2003748999996
8781.75	0.0999836000000869	101	hunger	stimuli/foods\prawn.jpg	1	1	1	prawn	1	P	11	0	249	0		0	0	66.2503909999996	66.3503745999997
8819.25	0.09998110000015	102	hunger	stimuli/foods\risotto_with_peas_and_asparagus_tips.jpg	1	1	1	risotto_with_peas_and_asparagus_tips	1	J	6	0	259	0		0	0	66.4003926999994	66.5003737999996
8856.75	0.0999885000001086	103	hunger	stimuli/foods\fennel.jpg	1	1	1	fennel	1	K	7	0	47	0		0	0	66.5503774999997	66.6503659999998
8894.25	0.0999855999998545	104	hunger	stimuli/non_foods\non-food_animate_owl.jpg	1	1	1	non-food_animate_owl	0	H	5	0	132	0		0	0	66.7003791999996	66.8003647999994
8931.75	0.100005299999793	105	hunger	stimuli/non_foods\non-food_animate_young_boy.jpg	1	1	1	non-food_animate_young_boy	0	P	11	0	156	0		0	0	66.8503651000001	66.9503703999999
8969.25	0.099987699999474	106	hunger	stimuli/foods\mussels.jpg	1	1	1	mussels	1	B	0	0	86	0		0	0	67.0003863000002	67.1003739999996
9006.75	0.0999838999996427	107	hunger	stimuli/foods\egg.jpg	1	1	1	egg	1	J	6	0	45	0		0	0	67.1503843	67.2503681999997
9044.25	0.100029400000494	108	hunger	stimuli/foods\raw_ham.jpg	1	1	1	raw_ham	1	P	11	0	253	0		0	0	67.3003783999993	67.4004077999998
9081.75	0.100006100000428	109	hunger	stimuli/non_foods\non-food_inanimate_broom.jpg	1	1	1	non-food_inanimate_broom	0	J	6	0	164	0		0	0	67.4503749999994	67.5503810999999
9119.25	0.0999905000007857	110	hunger	stimuli/non_foods\non-food_animate_elephant.jpg	1	1	1	non-food_animate_elephant	0	L	8	0	111	0		0	0	67.6003735999993	67.7003641000001
9156.75	0.0999812999998539	111	hunger	stimuli/foods\roasted_chicken.jpg	1	1	1	roasted_chicken	1	X	17	0	261	0		0	0	67.7503773999997	67.8503586999996
9194.25	0.0999915999991572	112	hunger	stimuli/non_foods\non-food_inanimate_button.jpg	1	1	1	non-food_inanimate_button	0	P	11	0	168	0		0	0	67.9003695000001	68.0003610999993
9231.75	0.09997790000034	113	hunger	stimuli/foods\pear.jpg	1	1	1	pear	1	D	2	0	239	0		0	0	68.0503758999994	68.1503537999997
9269.25	0.0999727000007624	114	hunger	stimuli/non_foods\non-food_animate_baby_crawling.jpg	1	1	1	non-food_animate_baby_crawling	0	P	11	0	92	0		0	0	68.2003750999993	68.3003478000001
9306.75	0.0999873000000662	115	hunger	stimuli/non_foods\non-food_inanimate_bowling_ball.jpg	1	1	1	non-food_inanimate_bowling_ball	0	J	6	0	162	0		0	0	68.3503630999994	68.4503503999995
9344.25	0.0999848999999813	116	hunger	stimuli/foods\dates.jpg	1	1	1	dates	1	X	17	0	43	0		0	0	68.5003577999996	68.6003426999996
9381.75	0.0999822000003405	117	hunger	stimuli/foods\spaghetti_with_meat_sauce.jpg	1	1	1	spaghetti_with_meat_sauce	1	P	11	0	267	0		0	0	68.6503583999993	68.7503405999996
9419.25	0.100019499999689	118	hunger	stimuli/foods\meatballs.jpg	1	1	1	meatballs	1	C	1	0	81	0		0	0	68.8003486999996	68.9003681999993
9456.75	0.0999873999999181	119	hunger	stimuli/non_foods\non-food_animate_Asian_man.jpg	1	1	1	non-food_animate_Asian_man	0	R	12	0	88	0		0	0	68.9503556999998	69.0503430999997
9494.25	0.0999776999997266	120	hunger	stimuli/foods\linguine_with_clams.jpg	1	1	1	linguine_with_clams	1	K	7	0	77	0		0	0	69.1003743000001	69.2003519999998
9531.75	0.0999888999995164	121	hunger	stimuli/non_foods\non-food_inanimate_bucket.jpg	1	1	1	non-food_inanimate_bucket	0	P	11	0	165	0		0	0	69.2503624999999	69.3503513999995
9569.25	0.0999961999996231	122	hunger	stimuli/non_foods\non-food_inanimate_clover.jpg	1	1	1	non-food_inanimate_clover	0	W	16	0	174	0		0	0	69.4003635999998	69.5003597999994
9606.75	0.0999697000006563	123	hunger	stimuli/foods\cracker.jpg	1	1	1	cracker	1	R	12	0	38	0		0	0	69.5503783999993	69.6503481
9644.25	0.0999831000008271	124	hunger	stimuli/foods\risotto_with_zucchini.jpg	1	1	1	risotto_with_zucchini	1	P	11	0	260	0		0	0	69.7003621999993	69.8003453000001
9681.75	0.0999851999995371	125	hunger	stimuli/non_foods\non-food_animate_cow.jpg	1	1	1	non-food_animate_cow	0	X	17	0	103	0		0	0	69.8503608999999	69.9503460999995
9719.25	0.0999805999999808	126	hunger	stimuli/foods\rockmelon.jpg	1	1	1	rockmelon	1	M	9	0	262	0		0	0	70.0003624999999	70.1003430999999
9756.75	0.0999876000005315	127	hunger	stimuli/foods\kiwi.jpg	1	1	1	kiwi	1	W	16	0	69	0		0	0	70.1503440999995	70.2503317000001
9794.25	0.0999860999991142	128	hunger	stimuli/non_foods\non-food_animate_giraffe.jpg	1	1	1	non-food_animate_giraffe	0	K	7	0	115	0		0	0	70.3003557000002	70.4003417999993
9831.75	0.0999848999999813	129	hunger	stimuli/foods\green_beans.jpg	1	1	1	green_beans	1	F	3	0	61	0		0	0	70.4503514999997	70.5503363999997
9869.25	0.0999824000000444	130	hunger	stimuli/foods\grilled_chicken_breast.jpg	1	1	1	grilled_chicken_breast	1	B	0	0	63	0		0	0	70.6003520999993	70.7003344999994
9906.75	0.0999807999996847	131	hunger	stimuli/non_foods\non-food_inanimate_bamboo.jpg	1	1	1	non-food_inanimate_bamboo	0	L	8	0	159	0		0	0	70.7503538999999	70.8503346999996
9944.25	0.0999830999999176	132	hunger	stimuli/foods\mushroom.jpg	1	1	1	mushroom	1	T	14	0	85	0		0	0	70.9003511000001	71.0003342
9981.75	0.0999782999997478	133	hunger	stimuli/foods\potato_chips.jpg	1	1	1	potato_chips	1	L	8	0	247	0		0	0	71.0503583999998	71.1503366999996
10019.25	0.0999819999997271	134	hunger	stimuli/non_foods\non-food_animate_fox.jpg	1	1	1	non-food_animate_fox	0	F	3	0	112	0		0	0	71.2003470999998	71.3003290999995
10056.75	0.0999704999994719	135	hunger	stimuli/non_foods\non-food_animate_skunk.jpg	1	1	1	non-food_animate_skunk	0	D	2	0	147	0		0	0	71.3503443999998	71.4503148999993
10094.25	0.0999918999996225	136	hunger	stimuli/foods\salami.jpg	1	1	1	salami	1	P	11	0	263	0		0	0	71.5003453999998	71.6003372999994
10131.75	0.100012500000048	137	hunger	stimuli/non_foods\non-food_inanimate_gloves.jpg	1	1	1	non-food_inanimate_gloves	0	F	3	0	183	0		0	0	71.6503132999997	71.7503257999997
10169.25	0.099989800000003	138	hunger	stimuli/foods\celery.jpg	1	1	1	celery	1	H	5	0	21	0		0	0	71.8003385000002	71.9003283000002
10206.75	0.0999728999995568	139	hunger	stimuli/non_foods\non-food_animate_raccoon.jpg	1	1	1	non-food_animate_raccoon	0	T	14	0	139	0		0	0	71.9503395000002	72.0503123999997
11190.25	0.0999635999996826	140	hunger	stimuli/non_foods\non-food_inanimate_cactus_pot_plant.jpg	1	2	1	non-food_inanimate_cactus_pot_plant	0	P	11	0	169	0		0	0	75.8836443999999	75.9836079999995
11227.75	0.10001899999952	141	hunger	stimuli/foods\corncob.jpg	1	2	1	corncob	1	L	8	0	37	0		0	0	76.0336060999998	76.1336250999993
11265.25	0.0999907999994321	142	hunger	stimuli/non_foods\non-food_inanimate_hay.jpg	1	2	1	non-food_inanimate_hay	0	B	0	0	187	0		0	0	76.1836432999999	76.2836340999993
11302.75	0.099963800000296	143	hunger	stimuli/foods\oven-roasted_tomatoes.jpg	1	2	1	oven-roasted_tomatoes	1	M	9	0	232	0		0	0	76.3336511999996	76.4336149999999
11340.25	0.0999784000005093	144	hunger	stimuli/foods\coffee_beans.jpg	1	2	1	coffee_beans	1	G	4	0	34	0		0	0	76.4836312999996	76.5836097000001
11377.75	0.0999915000002147	145	hunger	stimuli/foods\honey.jpg	1	2	1	honey	1	H	5	0	66	0		0	0	76.6336274999994	76.7336189999996
11415.25	0.0999850999996852	146	hunger	stimuli/non_foods\non-food_inanimate_bed.jpg	1	2	1	non-food_inanimate_bed	0	B	0	0	160	0		0	0	76.7836281999998	76.8836132999995
11452.75	0.10000620000028	147	hunger	stimuli/non_foods\non-food_animate_squirrel.jpg	1	2	1	non-food_animate_squirrel	0	P	11	0	150	0		0	0	76.9336261999997	77.0336324
11490.25	0.0999820000006366	148	hunger	stimuli/non_foods\non-food_animate_rhino.jpg	1	2	1	non-food_animate_rhino	0	K	7	0	141	0		0	0	77.0836291999995	77.1836112000001
11527.75	0.0999998000006599	149	hunger	stimuli/non_foods\non-food_inanimate_scissors.jpg	1	2	1	non-food_inanimate_scissors	0	L	8	0	205	0		0	0	77.2336228999993	77.3336227
11565.25	0.0999862999997276	150	hunger	stimuli/foods\peach.jpg	1	2	1	peach	1	W	16	0	238	0		0	0	77.3836186999997	77.4836049999994
11602.75	0.0999705999993239	151	hunger	stimuli/non_foods\non-food_animate_young_girl.jpg	1	2	1	non-food_animate_young_girl	0	X	17	0	157	0		0	0	77.5336348000001	77.6336053999994
11640.25	0.0999869999996008	152	hunger	stimuli/non_foods\non-food_inanimate_fern.jpg	1	2	1	non-food_inanimate_fern	0	B	0	0	180	0		0	0	77.683618	77.7836049999996
11677.75	0.099990899999284	153	hunger	stimuli/non_foods\non-food_animate_bee.jpg	1	2	1	non-food_animate_bee	0	C	1	0	95	0		0	0	77.8336152000002	77.9336060999995
11715.25	0.0999884000002567	154	hunger	stimuli/foods\eggplant.jpg	1	2	1	eggplant	1	R	12	0	46	0		0	0	77.9836397999998	78.0836282
11752.75	0.0999713999999585	155	hunger	stimuli/foods\frankfurter_and_provolone_salad.jpg	1	2	1	frankfurter_and_provolone_salad	1	V	15	0	49	0		0	0	78.1336265	78.2335978999999
11790.25	0.099984399999812	156	hunger	stimuli/foods\mortadella.jpg	1	2	1	mortadella	1	Z	18	0	83	0		0	0	78.2836165999997	78.3836009999995
11827.75	0.0999847000002774	157	hunger	stimuli/foods\ice_cream.jpg	1	2	1	ice_cream	1	S	13	0	68	0		0	0	78.4336002999999	78.5335850000001
11865.25	0.0999874999997701	158	hunger	stimuli/foods\bagel.jpg	1	2	1	bagel	1	R	12	0	6	0		0	0	78.5836011000001	78.6835885999999
11902.75	0.0999885000001086	159	hunger	stimuli/foods\chocolate_pudding.jpg	1	2	1	chocolate_pudding	1	B	0	0	29	0		0	0	78.7335955999997	78.8335840999998
11940.25	0.0999861999998757	160	hunger	stimuli/foods\baked_cod_with_carrots_and_green_beans.jpg	1	2	1	baked_cod_with_carrots_and_green_beans	1	F	3	0	7	0		0	0	78.8835988999999	78.9835850999998
11977.75	0.0999867000000449	161	hunger	stimuli/non_foods\non-food_animate_dachshund.jpg	1	2	1	non-food_animate_dachshund	0	Z	18	0	104	0		0	0	79.0335927999995	79.1335794999995
12015.25	0.0999793000000864	162	hunger	stimuli/foods\fried_calamari.jpg	1	2	1	fried_calamari	1	M	9	0	50	0		0	0	79.1836055999993	79.2835848999994
12052.75	0.0999839999994947	163	hunger	stimuli/non_foods\non-food_animate_runner.jpg	1	2	1	non-food_animate_runner	0	K	7	0	142	0		0	0	79.3335907000001	79.4335746999996
12090.25	0.0999996000000465	164	hunger	stimuli/foods\pomegranate.jpg	1	2	1	pomegranate	1	J	6	0	244	0		0	0	79.4835905999998	79.5835901999999
12127.75	0.100004500000068	165	hunger	stimuli/non_foods\non-food_inanimate_tree.jpg	1	2	1	non-food_inanimate_tree	0	D	2	0	223	0		0	0	79.6336000000001	79.7336045000002
12165.25	0.0999598999997033	166	hunger	stimuli/foods\apple.jpg	1	2	1	apple	1	V	15	0	1	0		0	0	79.7836243000002	79.8835841999999
12202.75	0.100007600000026	167	hunger	stimuli/non_foods\non-food_inanimate_skateboard.jpg	1	2	1	non-food_inanimate_skateboard	0	W	16	0	208	0		0	0	79.9335765999995	80.0335841999995
12240.25	0.0999401999997644	168	hunger	stimuli/foods\peas.jpg	1	2	1	peas	1	J	6	0	240	0		0	0	80.0836393999998	80.1835795999996
12277.75	0.099989800000003	169	hunger	stimuli/foods\savory_pie.jpg	1	2	1	savory_pie	1	C	1	0	265	0		0	0	80.2335890999993	80.3335788999993
12315.25	0.0999794000008478	170	hunger	stimuli/foods\museli_bars.jpg	1	2	1	museli_bars	1	G	4	0	84	0		0	0	80.3835943999993	80.4835738000002
12352.75	0.0999820000006366	171	hunger	stimuli/non_foods\non-food_animate_ram.jpg	1	2	1	non-food_animate_ram	0	Z	18	0	140	0		0	0	80.5335897999994	80.6335718
12390.25	0.0999922999999399	172	hunger	stimuli/foods\chilli.jpg	1	2	1	chilli	1	B	0	0	25	0		0	0	80.6835869999995	80.7835792999995
12427.75	0.0999938000004477	173	hunger	stimuli/non_foods\non-food_animate_polar_bear.jpg	1	2	1	non-food_animate_polar_bear	0	G	4	0	137	0		0	0	80.8335873999995	80.9335811999999
12465.25	0.0999775000000227	174	hunger	stimuli/non_foods\non-food_inanimate_nest.jpg	1	2	1	non-food_inanimate_nest	0	N	10	0	196	0		0	0	80.9835876999996	81.0835651999996
12502.75	0.0999761000002763	175	hunger	stimuli/foods\red_beans.jpg	1	2	1	red_beans	1	T	14	0	255	0		0	0	81.1335863999993	81.2335624999996
12540.25	0.0999858000004679	176	hunger	stimuli/foods\wafer.jpg	1	2	1	wafer	1	L	8	0	277	0		0	0	81.2835811999994	81.3835669999999
12577.75	0.0999662000003809	177	hunger	stimuli/foods\pumpkin.jpg	1	2	1	pumpkin	1	W	16	0	250	0		0	0	81.4335881999996	81.5335544
12615.25	0.100011599999561	178	hunger	stimuli/foods\cannoli.jpg	1	2	1	cannoli	1	E	20	1	17	0		0	0	81.5835551999999	81.6835667999994
12652.75	0.0999827000005098	179	hunger	stimuli/foods\almonds.jpg	1	2	1	almonds	1	S	13	0	0	0		0	0	81.7335809999995	81.8335637
12690.25	0.0999877999993259	180	hunger	stimuli/non_foods\non-food_inanimate_table.jpg	1	2	1	non-food_inanimate_table	0	G	4	0	217	1	a	0.391845399999511	1	81.8835773000001	81.9835650999994
12727.75	0.0999744999999166	181	hunger	stimuli/foods\lemon_meringue_pie.jpg	1	2	1	lemon_meringue_pie	1	R	12	0	73	0		0	0	82.0335761999995	82.1335506999994
12765.25	0.0999873000000662	182	hunger	stimuli/foods\swordfish.jpg	1	2	1	swordfish	1	D	2	0	273	0		0	0	82.1835654999995	82.2835527999996
12802.75	0.0999860000001718	183	hunger	stimuli/non_foods\non-food_inanimate_stapler.jpg	1	2	1	non-food_inanimate_stapler	0	Z	18	0	213	0		0	0	82.3335615999995	82.4335475999997
12840.25	0.0999856999997064	184	hunger	stimuli/foods\grapefruits.jpg	1	2	1	grapefruits	1	D	2	0	59	0		0	0	82.4835634000001	82.5835490999998
12877.75	0.0999986999995599	185	hunger	stimuli/non_foods\non-food_inanimate_towel.jpg	1	2	1	non-food_inanimate_towel	0	Z	18	0	221	0		0	0	82.6335588000002	82.7335574999997
12915.25	0.0999798000002556	186	hunger	stimuli/non_foods\non-food_inanimate_cupboard.jpg	1	2	1	non-food_inanimate_cupboard	0	W	16	0	177	0		0	0	82.7835728999999	82.8835527000001
12952.75	0.0999837999997908	187	hunger	stimuli/foods\broccoli.jpg	1	2	1	broccoli	1	R	12	0	13	0		0	0	82.9335732999998	83.0335570999996
12990.25	0.0999917999997706	188	hunger	stimuli/foods\cherry.jpg	1	2	1	cherry	1	W	16	0	23	0		0	0	83.0835613999998	83.1835531999996
13027.75	0.0999988000003214	189	hunger	stimuli/non_foods\non-food_animate_sea_lion.jpg	1	2	1	non-food_animate_sea_lion	0	J	6	0	143	0		0	0	83.2335619999994	83.3335607999998
13065.25	0.0999596999999994	190	hunger	stimuli/foods\chocolate_pralines.jpg	1	2	1	chocolate_pralines	1	Z	18	0	28	0		0	0	83.3835891999997	83.4835488999997
13102.75	0.0999823000001925	191	hunger	stimuli/foods\lollies.jpg	1	2	1	lollies	1	B	0	0	78	0		0	0	83.5335654999999	83.6335478000001
13140.25	0.0999854000001505	192	hunger	stimuli/non_foods\non-food_animate_german_shepherd.jpg	1	2	1	non-food_animate_german_shepherd	0	J	6	0	114	0		0	0	83.6835622999997	83.7835476999999
13177.75	0.0999846000004254	193	hunger	stimuli/non_foods\non-food_inanimate_socks.jpg	1	2	1	non-food_inanimate_socks	0	W	16	0	211	0		0	0	83.8335604999993	83.9335450999997
13215.25	0.099984499999664	194	hunger	stimuli/non_foods\non-food_inanimate_tent.jpg	1	2	1	non-food_inanimate_tent	0	D	2	0	219	0		0	0	83.9835572000002	84.0835416999998
13252.75	0.0999869999996008	195	hunger	stimuli/foods\cupcake.jpg	1	2	1	cupcake	1	P	11	0	42	0		0	0	84.1335552	84.2335421999996
13290.25	0.0999877000003835	196	hunger	stimuli/non_foods\non-food_animate_ladybug.jpg	1	2	1	non-food_animate_ladybug	0	R	12	0	124	0		0	0	84.2835553999994	84.3835430999998
13327.75	0.099978000000192	197	hunger	stimuli/non_foods\non-food_inanimate_waterlily.jpg	1	2	1	non-food_inanimate_waterlily	0	T	14	0	226	0		0	0	84.4335637999993	84.5335417999995
13365.25	0.0999861000000237	198	hunger	stimuli/foods\brownie.jpg	1	2	1	brownie	1	B	0	0	14	0		0	0	84.5835502	84.6835363
13402.75	0.0999951000003421	199	hunger	stimuli/non_foods\non-food_inanimate_couch.jpg	1	2	1	non-food_inanimate_couch	0	L	8	0	176	0		0	0	84.7335416999995	84.8335367999998
13440.25	0.0999836000000869	200	hunger	stimuli/foods\cream_donuts.jpg	1	2	1	cream_donuts	1	X	17	0	39	0		0	0	84.8835500999994	84.9835336999995
13477.75	0.0999775999998747	201	hunger	stimuli/non_foods\non-food_inanimate_folding_chair.jpg	1	2	1	non-food_inanimate_folding_chair	0	D	2	0	182	0		0	0	85.0335551999997	85.1335327999996
13515.25	0.0999692999994295	202	hunger	stimuli/foods\fruit_salad.jpg	1	2	1	fruit_salad	1	J	6	0	55	0		0	0	85.1835614000001	85.2835306999996
13552.75	0.0999903000001723	203	hunger	stimuli/non_foods\non-food_animate_butterfly.jpg	1	2	1	non-food_animate_butterfly	0	M	9	0	96	0		0	0	85.3335444999993	85.4335347999995
13590.25	0.0999795999996422	204	hunger	stimuli/foods\waffle.jpg	1	2	1	waffle	1	C	1	0	278	0		0	0	85.4835470999997	85.5835266999993
13627.75	0.0999892999998337	205	hunger	stimuli/foods\pea_pod.jpg	1	2	1	pea_pod	1	J	6	0	237	0		0	0	85.6335413999996	85.7335306999994
13665.25	0.0999882000005528	206	hunger	stimuli/foods\tomato.jpg	1	2	1	tomato	1	D	2	0	276	0		0	0	85.7835412999993	85.8835294999999
13702.75	0.0999797000004037	207	hunger	stimuli/foods\spring_onions.jpg	1	2	1	spring_onions	1	F	3	0	269	0		0	0	85.9335450999997	86.0335248000001
13740.25	0.0999864000004891	208	hunger	stimuli/non_foods\non-food_inanimate_lighter.jpg	1	2	1	non-food_inanimate_lighter	0	E	20	1	193	0		0	0	86.0835382999994	86.1835246999999
13777.75	0.0999836999999388	209	hunger	stimuli/non_foods\non-food_animate_eagle.jpg	1	2	1	non-food_animate_eagle	0	V	15	0	110	0		0	0	86.2335392999994	86.3335229999993
13815.25	0.0999874999997701	210	hunger	stimuli/foods\lasagna.jpg	1	2	1	lasagna	1	F	3	0	71	0		0	0	86.3835331	86.4835205999998
13852.75	0.0999791999993249	211	hunger	stimuli/non_foods\non-food_inanimate_shell.jpg	1	2	1	non-food_inanimate_shell	0	H	5	0	206	1	a	0.541850000000522	1	86.5335346000002	86.6335137999995
13890.25	0.0999894999995377	212	hunger	stimuli/non_foods\non-food_inanimate_tulip.jpg	1	2	1	non-food_inanimate_tulip	0	V	15	0	224	0		0	0	86.6835283	86.7835177999996
13927.75	0.099975699999959	213	hunger	stimuli/non_foods\non-food_animate_horse.jpg	1	2	1	non-food_animate_horse	0	K	7	0	119	0		0	0	86.8335299	86.9335056
13965.25	0.0999690999997256	214	hunger	stimuli/non_foods\non-food_animate_porcupine.jpg	1	2	1	non-food_animate_porcupine	0	N	10	0	138	0		0	0	86.9835469999998	87.0835160999995
14002.75	0.099985600000764	215	hunger	stimuli/non_foods\non-food_inanimate_fire_extinguisher.jpg	1	2	1	non-food_inanimate_fire_extinguisher	0	F	3	0	181	0		0	0	87.1335285999994	87.2335142000002
14040.25	0.0999689999998736	216	hunger	stimuli/foods\hotdog.jpg	1	2	1	hotdog	1	R	12	0	67	0		0	0	87.2835298	87.3834987999999
14077.75	0.0999896000002991	217	hunger	stimuli/foods\chestnut.jpg	1	2	1	chestnut	1	P	11	0	24	0		0	0	87.4335223999997	87.533512
14115.25	0.0999853000002986	218	hunger	stimuli/foods\potatoes.jpg	1	2	1	potatoes	1	M	9	0	248	0		0	0	87.5835252999996	87.6835105999999
14152.75	0.0999880999997913	219	hunger	stimuli/non_foods\non-food_inanimate_drum_set.jpg	1	2	1	non-food_inanimate_drum_set	0	S	13	0	179	0		0	0	87.7335224999997	87.8335105999995
14190.25	0.100004699999772	220	hunger	stimuli/non_foods\non-food_inanimate_rope.jpg	1	2	1	non-food_inanimate_rope	0	W	16	0	204	0		0	0	87.8835245999999	87.9835292999996
14227.75	0.0999730000003183	221	hunger	stimuli/non_foods\non-food_inanimate_construction_helment.jpg	1	2	1	non-food_inanimate_construction_helment	0	G	4	0	175	0		0	0	88.0335203999994	88.1334933999997
14265.25	0.0999846999993679	222	hunger	stimuli/foods\fruit_pie.jpg	1	2	1	fruit_pie	1	X	17	0	54	0		0	0	88.1835203000001	88.2835049999994
14302.75	0.0999867000000449	223	hunger	stimuli/non_foods\non-food_inanimate_wrench.jpg	1	2	1	non-food_inanimate_wrench	0	T	14	0	227	0		0	0	88.333517	88.4335037000001
14340.25	0.0999934000001304	224	hunger	stimuli/non_foods\non-food_animate_ant.jpg	1	2	1	non-food_animate_ant	0	B	0	0	91	0		0	0	88.4835165999993	88.5835099999995
14377.75	0.0999451999996381	225	hunger	stimuli/foods\hazelnuts.jpg	1	2	1	hazelnuts	1	N	10	0	65	0		0	0	88.6335607000001	88.7335058999997
14415.25	0.0999738000000434	226	hunger	stimuli/non_foods\non-food_animate_swan.jpg	1	2	1	non-food_animate_swan	0	C	1	0	152	0		0	0	88.7835292	88.883503
14452.75	0.0999863000006371	227	hunger	stimuli/non_foods\non-food_inanimate_ring.jpg	1	2	1	non-food_inanimate_ring	0	W	16	0	203	0		0	0	88.9335138999995	89.0335002000002
14490.25	0.100005399999645	228	hunger	stimuli/foods\lime.jpg	1	2	1	lime	1	J	6	0	76	0		0	0	89.0834912	89.1834965999997
14527.75	0.0999854000001505	229	hunger	stimuli/foods\fried_zucchini.jpg	1	2	1	fried_zucchini	1	C	1	0	51	0		0	0	89.2335083999997	89.3334937999998
14565.25	0.0999858000004679	230	hunger	stimuli/foods\baked_lamb_with_potatoes.jpg	1	2	1	baked_lamb_with_potatoes	1	F	3	0	8	0		0	0	89.3835094999995	89.4834953
14602.75	0.0999855000000025	231	hunger	stimuli/foods\pancakes.jpg	1	2	1	pancakes	1	T	14	0	234	0		0	0	89.5335070000001	89.6334925000001
14640.25	0.100001799999518	232	hunger	stimuli/non_foods\non-food_animate_cheetah.jpg	1	2	1	non-food_animate_cheetah	0	R	12	0	100	0		0	0	89.6835043999999	89.7835061999995
14677.75	0.0999830999999176	233	hunger	stimuli/non_foods\non-food_animate_sea_turtle.jpg	1	2	1	non-food_animate_sea_turtle	0	T	14	0	144	0		0	0	89.8335065000001	89.9334896
14715.25	0.0999884000002567	234	hunger	stimuli/non_foods\non-food_animate_deer.jpg	1	2	1	non-food_animate_deer	0	J	6	0	105	0		0	0	89.9835003999997	90.0834887999999
14752.75	0.0999856999997064	235	hunger	stimuli/foods\cereal.jpg	1	2	1	cereal	1	Z	18	0	22	0		0	0	90.1335012999998	90.2334869999995
14790.25	0.0999925000005533	236	hunger	stimuli/non_foods\non-food_animate_woman.jpg	1	2	1	non-food_animate_woman	0	L	8	0	154	0		0	0	90.2834993999995	90.3834919000001
14827.75	0.0999755000002551	237	hunger	stimuli/foods\mango.jpg	1	2	1	mango	1	C	1	0	80	0		0	0	90.4335094999997	90.5334849999999
14865.25	0.0999873000000662	238	hunger	stimuli/non_foods\non-food_inanimate_briefcase.jpg	1	2	1	non-food_inanimate_briefcase	0	T	14	0	163	0		0	0	90.5834982999995	90.6834855999996
14902.75	0.0999824999998964	239	hunger	stimuli/non_foods\non-food_inanimate_grass.jpg	1	2	1	non-food_inanimate_grass	0	H	5	0	184	0		0	0	90.7334979999996	90.8334804999995
14940.25	0.0999839999994947	240	hunger	stimuli/foods\banana.jpg	1	2	1	banana	1	F	3	0	9	0		0	0	90.8834969	90.9834808999994
14977.75	0.099975799999811	241	hunger	stimuli/foods\raw_sausage.jpg	1	2	1	raw_sausage	1	Z	18	0	254	0		0	0	91.0334943999997	91.1334701999995
15015.25	0.0999809000004461	242	hunger	stimuli/non_foods\non-food_animate_hummingbird.jpg	1	2	1	non-food_animate_hummingbird	0	K	7	0	120	0		0	0	91.1834947999996	91.2834757000001
15052.75	0.099984399999812	243	hunger	stimuli/foods\coconut.jpg	1	2	1	coconut	1	H	5	0	33	0		0	0	91.3334925999998	91.4334769999996
15090.25	0.0999849999998332	244	hunger	stimuli/non_foods\non-food_inanimate_alarm_clock.jpg	1	2	1	non-food_inanimate_alarm_clock	0	T	14	0	158	0		0	0	91.4834884000002	91.5834734
15127.75	0.0999884000002567	245	hunger	stimuli/non_foods\non-food_animate_Causasian_man.jpg	1	2	1	non-food_animate_Causasian_man	0	G	4	0	89	0		0	0	91.6334867999994	91.7334751999997
15165.25	0.0999786000002132	246	hunger	stimuli/foods\ginger_root.jpg	1	2	1	ginger_root	1	J	6	0	57	0		0	0	91.7834918999997	91.8834704999999
15202.75	0.0999855000000025	247	hunger	stimuli/non_foods\non-food_animate_penguin.jpg	1	2	1	non-food_animate_penguin	0	S	13	0	135	0		0	0	91.9334852000002	92.0334707000002
15240.25	0.0999661999994714	248	hunger	stimuli/non_foods\non-food_animate_camel.jpg	1	2	1	non-food_animate_camel	0	J	6	0	97	0		0	0	92.0835016999999	92.1834678999994
15277.75	0.0999781000000439	249	hunger	stimuli/non_foods\non-food_animate_llama.jpg	1	2	1	non-food_animate_llama	0	D	2	0	127	0		0	0	92.2334903999999	92.3334685
15315.25	0.0999858000004679	250	hunger	stimuli/foods\artichoke.jpg	1	2	1	artichoke	1	T	14	0	3	0		0	0	92.3834810999997	92.4834669000002
15352.75	0.099992000000384	251	hunger	stimuli/foods\oyster.jpg	1	2	1	oyster	1	J	6	0	233	0		0	0	92.5334802999996	92.6334723
15390.25	0.0999818000000232	252	hunger	stimuli/non_foods\non-food_animate_yellow_bug.jpg	1	2	1	non-food_animate_yellow_bug	0	T	14	0	155	0		0	0	92.6834844999994	92.7834662999994
15427.75	0.0999608000001899	253	hunger	stimuli/non_foods\non-food_animate_duck.jpg	1	2	1	non-food_animate_duck	0	B	0	0	109	0		0	0	92.8334789999999	92.9334398000001
15465.25	0.100002099999983	254	hunger	stimuli/non_foods\non-food_inanimate_jeans.jpg	1	2	1	non-food_inanimate_jeans	0	V	15	0	191	0		0	0	92.9834755000002	93.0834776000002
15502.75	0.0999854000001505	255	hunger	stimuli/foods\stew_with_potatoes_and_carrots.jpg	1	2	1	stew_with_potatoes_and_carrots	1	Z	18	0	271	0		0	0	93.1334733999993	93.2334587999994
15540.25	0.0999598999997033	256	hunger	stimuli/foods\apricot.jpg	1	2	1	apricot	1	M	9	0	2	0		0	0	93.2834985	93.3834583999997
15577.75	0.0999840999993467	257	hunger	stimuli/foods\cinnamon.jpg	1	2	1	cinnamon	1	G	4	0	30	0		0	0	93.4334724	93.5334564999994
15615.25	0.0999881999996433	258	hunger	stimuli/non_foods\non-food_animate_bat.jpg	1	2	1	non-food_animate_bat	0	B	0	0	94	0		0	0	93.5834691999999	93.6834573999995
15652.75	0.0999812999998539	259	hunger	stimuli/foods\watermelon.jpg	1	2	1	watermelon	1	M	9	0	279	0		0	0	93.7334701999998	93.8334514999997
15690.25	0.0999946000001728	260	hunger	stimuli/foods\toasted_bread_with_tomatoes.jpg	1	2	1	toasted_bread_with_tomatoes	1	V	15	0	275	0		0	0	93.8834671999994	93.9834617999995
15727.75	0.0999467999999979	261	hunger	stimuli/foods\raisins.jpg	1	2	1	raisins	1	H	5	0	252	0		0	0	94.0335080999994	94.1334548999994
15765.25	0.0999824999998964	262	hunger	stimuli/non_foods\non-food_animate_lion.jpg	1	2	1	non-food_animate_lion	0	B	0	0	125	0		0	0	94.1834674000002	94.2834499000001
15802.75	0.0999869999996008	263	hunger	stimuli/non_foods\non-food_animate_snail.jpg	1	2	1	non-food_animate_snail	0	H	5	0	149	0		0	0	94.3334599999998	94.4334469999994
15840.25	0.0999831999997696	264	hunger	stimuli/non_foods\non-food_inanimate_teddy_bear.jpg	1	2	1	non-food_inanimate_teddy_bear	0	F	3	0	218	0		0	0	94.4834627	94.5834458999998
15877.75	0.0999885000001086	265	hunger	stimuli/non_foods\non-food_inanimate_bush.jpg	1	2	1	non-food_inanimate_bush	0	Z	18	0	167	0		0	0	94.6334571999996	94.7334456999997
15915.25	0.0999861000000237	266	hunger	stimuli/foods\cooked_prawn.jpg	1	2	1	cooked_prawn	1	C	1	0	36	0		0	0	94.7834583999993	94.8834444999993
15952.75	0.0999730000003183	267	hunger	stimuli/non_foods\non-food_inanimate_rack.jpg	1	2	1	non-food_inanimate_rack	0	L	8	0	202	0		0	0	94.9334621999997	95.0334352
15990.25	0.100012299999435	268	hunger	stimuli/foods\brie.jpg	1	2	1	brie	1	B	0	0	12	0		0	0	95.0834734	95.1834856999994
16027.75	0.0999855000000025	269	hunger	stimuli/foods\smoked_ham.jpg	1	2	1	smoked_ham	1	L	8	0	266	0		0	0	95.2334549999996	95.3334404999996
16065.25	0.0999850000007427	270	hunger	stimuli/foods\cabbage.jpg	1	2	1	cabbage	1	K	7	0	16	0		0	0	95.3834554999994	95.4834405000001
16102.75	0.0999851000005947	271	hunger	stimuli/foods\red_cabbage.jpg	1	2	1	red_cabbage	1	D	2	0	256	0		0	0	95.5334514999995	95.6334366000001
16140.25	0.0999808000005942	272	hunger	stimuli/non_foods\non-food_animate_clown.jpg	1	2	1	non-food_animate_clown	0	C	1	0	102	0		0	0	95.6834525999993	95.7834333999999
16177.75	0.0999679000005926	273	hunger	stimuli/non_foods\non-food_animate_peacock.jpg	1	2	1	non-food_animate_peacock	0	D	2	0	134	0		0	0	95.8334559999994	95.9334239
16215.25	0.0999799999999595	274	hunger	stimuli/non_foods\non-food_inanimate_skirt.jpg	1	2	1	non-food_inanimate_skirt	0	P	11	0	209	0		0	0	95.9834420999996	96.0834220999996
16252.75	0.0999873000000662	275	hunger	stimuli/foods\strawberry.jpg	1	2	1	strawberry	1	C	1	0	272	0		0	0	96.1334319999996	96.2334192999997
16290.25	0.0999828000003617	276	hunger	stimuli/non_foods\non-food_animate_parrot.jpg	1	2	1	non-food_animate_parrot	0	H	5	0	133	0		0	0	96.2834386999994	96.3834214999997
16327.75	0.0999835999991774	277	hunger	stimuli/foods\green_olives.jpg	1	2	1	green_olives	1	F	3	0	62	0		0	0	96.4334361000001	96.5334196999993
16365.25	0.0999837999997908	278	hunger	stimuli/non_foods\non-food_animate_baby_sitting.jpg	1	2	1	non-food_animate_baby_sitting	0	B	0	0	93	0		0	0	96.5834353999999	96.6834191999997
16402.75	0.0999880999997913	279	hunger	stimuli/non_foods\non-food_inanimate_nailpolish.jpg	1	2	1	non-food_inanimate_nailpolish	0	R	12	0	195	0		0	0	96.7334277999998	96.8334158999996
17019.25	0.0999910000000455	280	hunger	stimuli/foods\cabbage.jpg	1	3	1	cabbage	1	J	6	0	16	0		0	0	99.2000927999998	99.3000837999998
17056.75	0.0999855000000025	281	hunger	stimuli/foods\apple.jpg	1	3	1	apple	1	Z	18	0	1	0		0	0	99.3500838999998	99.4500693999998
17094.25	0.0999818000000232	282	hunger	stimuli/non_foods\non-food_inanimate_clover.jpg	1	3	1	non-food_inanimate_clover	0	V	15	0	174	0		0	0	99.5000884000001	99.6000702000001
17131.75	0.099984499999664	283	hunger	stimuli/non_foods\non-food_animate_penguin.jpg	1	3	1	non-food_animate_penguin	0	C	1	0	135	0		0	0	99.6500814000001	99.7500658999998
17169.25	0.0999943999995594	284	hunger	stimuli/foods\avocado.jpg	1	3	1	avocado	1	N	10	0	5	0		0	0	99.8000818	99.9000761999996
17206.75	0.099992100000236	285	hunger	stimuli/foods\frankfurter_and_provolone_salad.jpg	1	3	1	frankfurter_and_provolone_salad	1	K	7	0	49	0		0	0	99.9500717999999	100.0500639
17244.25	0.0999846000004254	286	hunger	stimuli/non_foods\non-food_inanimate_canoe.jpg	1	3	1	non-food_inanimate_canoe	0	H	5	0	170	0		0	0	100.1000779	100.2000625
17281.75	0.0999851999995371	287	hunger	stimuli/foods\stew_with_potatoes_and_carrots.jpg	1	3	1	stew_with_potatoes_and_carrots	1	V	15	0	271	0		0	0	100.2500788	100.350063999999
17319.25	0.0999835000002349	288	hunger	stimuli/foods\cannoli.jpg	1	3	1	cannoli	1	W	16	0	17	0		0	0	100.400074499999	100.500058
17356.75	0.0999901000004684	289	hunger	stimuli/foods\raw_ham.jpg	1	3	1	raw_ham	1	V	15	0	253	0		0	0	100.5500711	100.6500612
17394.25	0.0999818999998752	290	hunger	stimuli/non_foods\non-food_animate_sea_lion.jpg	1	3	1	non-food_animate_sea_lion	0	F	3	0	143	0		0	0	100.7000748	100.8000567
17431.75	0.09998110000015	291	hunger	stimuli/foods\coconut.jpg	1	3	1	coconut	1	N	10	0	33	0		0	0	100.8500759	100.950057
17469.25	0.0999854000001505	292	hunger	stimuli/non_foods\non-food_inanimate_bucket.jpg	1	3	1	non-food_inanimate_bucket	0	W	16	0	165	0		0	0	101.0000722	101.1000576
17506.75	0.0999837999997908	293	hunger	stimuli/non_foods\non-food_inanimate_chandelier.jpg	1	3	1	non-food_inanimate_chandelier	0	K	7	0	173	0		0	0	101.1500709	101.2500547
17544.25	0.0999697000006563	294	hunger	stimuli/foods\cream_donuts.jpg	1	3	1	cream_donuts	1	B	0	0	39	0		0	0	101.300068099999	101.4000378
17581.75	0.0999824000000444	295	hunger	stimuli/foods\salami.jpg	1	3	1	salami	1	U	23	1	263	0		0	0	101.450068499999	101.550050899999
17619.25	0.0999937999995382	296	hunger	stimuli/non_foods\non-food_inanimate_cap.jpg	1	3	1	non-food_inanimate_cap	0	V	15	0	171	0		0	0	101.6000641	101.7000579
17656.75	0.0999849999998332	297	hunger	stimuli/foods\pancakes.jpg	1	3	1	pancakes	1	D	2	0	234	0		0	0	101.7500659	101.8500509
17694.25	0.0999750999999378	298	hunger	stimuli/foods\baked_cod_with_carrots_and_green_beans.jpg	1	3	1	baked_cod_with_carrots_and_green_beans	1	W	16	0	7	0		0	0	101.9000637	102.0000388
17731.75	0.0999787999999171	299	hunger	stimuli/non_foods\non-food_animate_cheetah.jpg	1	3	1	non-food_animate_cheetah	0	B	0	0	100	0		0	0	102.050051499999	102.150030299999
17769.25	0.0999873000000662	300	hunger	stimuli/non_foods\non-food_inanimate_bowling_ball.jpg	1	3	1	non-food_inanimate_bowling_ball	0	V	15	0	162	0		0	0	102.2000496	102.3000369
17806.75	0.0999906999995801	301	hunger	stimuli/non_foods\non-food_animate_donkey.jpg	1	3	1	non-food_animate_donkey	0	Z	18	0	107	0		0	0	102.3500422	102.450032899999
17844.25	0.0999981000004482	302	hunger	stimuli/foods\lettuce.jpg	1	3	1	lettuce	1	R	12	0	75	0		0	0	102.5000463	102.6000444
17881.75	0.0999873999999181	303	hunger	stimuli/foods\omelette.jpg	1	3	1	omelette	1	M	9	0	228	0		0	0	102.6500551	102.7500425
17919.25	0.0999846000004254	304	hunger	stimuli/foods\ginger_root.jpg	1	3	1	ginger_root	1	B	0	0	57	0		0	0	102.8000551	102.9000397
17956.75	0.0999828999993042	305	hunger	stimuli/non_foods\non-food_inanimate_skateboard.jpg	1	3	1	non-food_inanimate_skateboard	0	N	10	0	208	0		0	0	102.9500526	103.050035499999
17994.25	0.0999818000000232	306	hunger	stimuli/non_foods\non-food_animate_young_boy.jpg	1	3	1	non-food_animate_young_boy	0	G	4	0	156	0		0	0	103.1000502	103.200032
18031.75	0.0999856999997064	307	hunger	stimuli/foods\peas.jpg	1	3	1	peas	1	W	16	0	240	0		0	0	103.250046	103.3500317
18069.25	0.100025800000367	308	hunger	stimuli/non_foods\non-food_animate_mammoth.jpg	1	3	1	non-food_animate_mammoth	0	N	10	0	128	0		0	0	103.400041299999	103.5000671
18106.75	0.0999400000000605	309	hunger	stimuli/non_foods\non-food_inanimate_guitar.jpg	1	3	1	non-food_inanimate_guitar	0	X	17	0	185	0		0	0	103.5500888	103.6500288
18144.25	0.0999818000000232	310	hunger	stimuli/foods\donut.jpg	1	3	1	donut	1	S	13	0	44	0		0	0	103.700042099999	103.800023899999
18181.75	0.0999793999999383	311	hunger	stimuli/non_foods\non-food_animate_clown.jpg	1	3	1	non-food_animate_clown	0	W	16	0	102	0		0	0	103.8500365	103.9500159
18219.25	0.0999891000001298	312	hunger	stimuli/foods\mushroom.jpg	1	3	1	mushroom	1	A	19	1	85	0		0	0	104.0000308	104.1000199
18256.75	0.0999976000002789	313	hunger	stimuli/non_foods\non-food_inanimate_couch.jpg	1	3	1	non-food_inanimate_couch	0	F	3	0	176	0		0	0	104.1500307	104.2500283
18294.25	0.0999839999994947	314	hunger	stimuli/non_foods\non-food_inanimate_ring.jpg	1	3	1	non-food_inanimate_ring	0	P	11	0	203	0		0	0	104.3000322	104.400016199999
18331.75	0.0999755999991976	315	hunger	stimuli/non_foods\non-food_animate_horse.jpg	1	3	1	non-food_animate_horse	0	F	3	0	119	1	a	0.443412999999964	1	104.4500311	104.550006699999
18369.25	0.099984499999664	316	hunger	stimuli/non_foods\non-food_animate_peacock.jpg	1	3	1	non-food_animate_peacock	0	V	15	0	134	0		0	0	104.6000279	104.7000124
18406.75	0.0999863999995796	317	hunger	stimuli/non_foods\non-food_animate_tortoise.jpg	1	3	1	non-food_animate_tortoise	0	S	13	0	153	0		0	0	104.7500277	104.850014099999
18444.25	0.0999750000000859	318	hunger	stimuli/foods\raw_sausage.jpg	1	3	1	raw_sausage	1	C	1	0	254	0		0	0	104.9000256	105.0000006
18481.75	0.100004799999624	319	hunger	stimuli/foods\chestnut.jpg	1	3	1	chestnut	1	S	13	0	24	0		0	0	105.0500114	105.150016199999
18519.25	0.0999936999996862	320	hunger	stimuli/foods\fennel.jpg	1	3	1	fennel	1	H	5	0	47	0		0	0	105.2000312	105.3000249
18556.75	0.099953099999766	321	hunger	stimuli/foods\green_beans.jpg	1	3	1	green_beans	1	D	2	0	61	0		0	0	105.3500675	105.450020599999
18594.25	0.0999897000001511	322	hunger	stimuli/foods\apricot.jpg	1	3	1	apricot	1	P	11	0	2	0		0	0	105.5000279	105.6000176
18631.75	0.0999883000004047	323	hunger	stimuli/non_foods\non-food_animate_camel.jpg	1	3	1	non-food_animate_camel	0	C	1	0	97	0		0	0	105.650025399999	105.7500137
18669.25	0.0999906999995801	324	hunger	stimuli/non_foods\non-food_inanimate_bicycle.jpg	1	3	1	non-food_inanimate_bicycle	0	S	13	0	161	0		0	0	105.8000241	105.9000148
18706.75	0.0999848999999813	325	hunger	stimuli/non_foods\non-food_animate_frog.jpg	1	3	1	non-food_animate_frog	0	G	4	0	113	0		0	0	105.9500254	106.050010299999
18744.25	0.0999899000007645	326	hunger	stimuli/foods\rice_cake.jpg	1	3	1	rice_cake	1	H	5	0	258	0		0	0	106.100022799999	106.2000127
18781.75	0.0999818999998752	327	hunger	stimuli/foods\cooked_prawn.jpg	1	3	1	cooked_prawn	1	C	1	0	36	0		0	0	106.250023099999	106.350004999999
18819.25	0.0999909000001935	328	hunger	stimuli/non_foods\non-food_animate_baby_sitting.jpg	1	3	1	non-food_animate_baby_sitting	0	Z	18	0	93	0		0	0	106.4000234	106.5000143
18856.75	0.0999859999992623	329	hunger	stimuli/foods\oyster.jpg	1	3	1	oyster	1	H	5	0	233	0		0	0	106.5500086	106.649994599999
18894.25	0.0999900999995589	330	hunger	stimuli/non_foods\non-food_animate_cat.jpg	1	3	1	non-food_animate_cat	0	R	12	0	98	0		0	0	106.7000067	106.799996799999
18931.75	0.0999885000001086	331	hunger	stimuli/foods\mandarin.jpg	1	3	1	mandarin	1	S	13	0	79	0		0	0	106.850005599999	106.949994099999
18969.25	0.10001789999933	332	hunger	stimuli/foods\cupcake.jpg	1	3	1	cupcake	1	W	16	0	42	0		0	0	107.000008	107.100025899999
19006.75	0.0999749000002339	333	hunger	stimuli/foods\cereal.jpg	1	3	1	cereal	1	S	13	0	22	0		0	0	107.1500227	107.2499976
19044.25	0.0999882999994952	334	hunger	stimuli/non_foods\non-food_inanimate_stoplight.jpg	1	3	1	non-food_inanimate_stoplight	0	Z	18	0	214	0		0	0	107.3000111	107.3999994
19081.75	0.0999841000002561	335	hunger	stimuli/non_foods\non-food_inanimate_cactus_pot_plant.jpg	1	3	1	non-food_inanimate_cactus_pot_plant	0	R	12	0	169	0		0	0	107.450011899999	107.549996
19119.25	0.0999869999996008	336	hunger	stimuli/non_foods\non-food_animate_bat.jpg	1	3	1	non-food_animate_bat	0	F	3	0	94	0		0	0	107.6000082	107.6999952
19156.75	0.0999823000001925	337	hunger	stimuli/non_foods\non-food_animate_slug.jpg	1	3	1	non-food_animate_slug	0	X	17	0	148	0		0	0	107.7500099	107.8499922
19194.25	0.0999860000001718	338	hunger	stimuli/non_foods\non-food_inanimate_briefcase.jpg	1	3	1	non-food_inanimate_briefcase	0	F	3	0	163	0		0	0	107.9000037	107.9999897
19231.75	0.0999892999998337	339	hunger	stimuli/non_foods\non-food_animate_owl.jpg	1	3	1	non-food_animate_owl	0	J	6	0	132	0		0	0	108.0500009	108.1499902
19269.25	0.0999768000001495	340	hunger	stimuli/foods\salmon.jpg	1	3	1	salmon	1	V	15	0	264	0		0	0	108.200013799999	108.2999906
19306.75	0.0999836999999388	341	hunger	stimuli/foods\roasted_chicken.jpg	1	3	1	roasted_chicken	1	C	1	0	261	0		0	0	108.3500011	108.4499848
19344.25	0.0999623999996402	342	hunger	stimuli/non_foods\non-food_inanimate_scissors.jpg	1	3	1	non-food_inanimate_scissors	0	G	4	0	205	0		0	0	108.500008	108.5999704
19381.75	0.100016399999731	343	hunger	stimuli/foods\cucumber.jpg	1	3	1	cucumber	1	X	17	0	41	0		0	0	108.6499705	108.749986899999
19419.25	0.0999863000006371	344	hunger	stimuli/non_foods\non-food_inanimate_hay.jpg	1	3	1	non-food_inanimate_hay	0	L	8	0	187	0		0	0	108.8000109	108.8999972
19456.75	0.099960700000338	345	hunger	stimuli/non_foods\non-food_inanimate_button.jpg	1	3	1	non-food_inanimate_button	0	S	13	0	168	0		0	0	108.9500209	109.0499816
19494.25	0.0999867999998969	346	hunger	stimuli/non_foods\non-food_inanimate_suitcase.jpg	1	3	1	non-food_inanimate_suitcase	0	T	14	0	215	0		0	0	109.0999918	109.1999786
19531.75	0.0999856999997064	347	hunger	stimuli/non_foods\non-food_animate_dachshund.jpg	1	3	1	non-food_animate_dachshund	0	D	2	0	104	0		0	0	109.2499934	109.349979099999
19569.25	0.0999807999996847	348	hunger	stimuli/foods\potato_chips.jpg	1	3	1	potato_chips	1	N	10	0	247	0		0	0	109.3999987	109.499979499999
19606.75	0.0999754000004032	349	hunger	stimuli/non_foods\non-food_animate_raccoon.jpg	1	3	1	non-food_animate_raccoon	0	H	5	0	139	0		0	0	109.5499906	109.649966
19644.25	0.0999870000005103	350	hunger	stimuli/foods\chocolate_pudding.jpg	1	3	1	chocolate_pudding	1	B	0	0	29	0		0	0	109.699989199999	109.7999762
19681.75	0.100005199999941	351	hunger	stimuli/non_foods\non-food_inanimate_desk.jpg	1	3	1	non-food_inanimate_desk	0	S	13	0	178	0		0	0	109.8499881	109.9499933
19719.25	0.0999862000007852	352	hunger	stimuli/non_foods\non-food_inanimate_fire_extinguisher.jpg	1	3	1	non-food_inanimate_fire_extinguisher	0	H	5	0	181	0		0	0	109.999985099999	110.0999713
19756.75	0.0999816000003193	353	hunger	stimuli/non_foods\non-food_animate_duck.jpg	1	3	1	non-food_animate_duck	0	M	9	0	109	0		0	0	110.149986099999	110.2499677
19794.25	0.0999344000001656	354	hunger	stimuli/foods\mortadella.jpg	1	3	1	mortadella	1	G	4	0	83	0		0	0	110.3000348	110.3999692
19831.75	0.0999904999998762	355	hunger	stimuli/non_foods\non-food_inanimate_highlighter.jpg	1	3	1	non-food_inanimate_highlighter	0	Z	18	0	189	0		0	0	110.4499872	110.5499777
19869.25	0.0999536000008447	356	hunger	stimuli/foods\fries.jpg	1	3	1	fries	1	X	17	0	52	0		0	0	110.600012399999	110.699966
19906.75	0.0999701999999161	357	hunger	stimuli/foods\fruit_salad.jpg	1	3	1	fruit_salad	1	T	14	0	55	0		0	0	110.7499947	110.8499649
19944.25	0.0999850999996852	358	hunger	stimuli/non_foods\non-food_animate_chicken.jpg	1	3	1	non-food_animate_chicken	0	Z	18	0	101	0		0	0	110.8999785	110.999963599999
19981.75	0.0999848999999813	359	hunger	stimuli/non_foods\non-food_animate_gorilla.jpg	1	3	1	non-food_animate_gorilla	0	S	13	0	116	0		0	0	111.049974699999	111.149959599999
20019.25	0.0999879000000874	360	hunger	stimuli/foods\pumpkin.jpg	1	3	1	pumpkin	1	H	5	0	250	0		0	0	111.1999762	111.2999641
20056.75	0.0999774000001707	361	hunger	stimuli/foods\lemon.jpg	1	3	1	lemon	1	J	6	0	72	0		0	0	111.349982799999	111.4499602
20094.25	0.0999924000007013	362	hunger	stimuli/foods\ice_cream.jpg	1	3	1	ice_cream	1	P	11	0	68	0		0	0	111.499970299999	111.5999627
20131.75	0.0999782999997478	363	hunger	stimuli/foods\minestrone_soup.jpg	1	3	1	minestrone_soup	1	H	5	0	82	0		0	0	111.6499735	111.7499518
20169.25	0.0999838999996427	364	hunger	stimuli/foods\chocolate_chip_cookies.jpg	1	3	1	chocolate_chip_cookies	1	Z	18	0	27	0		0	0	111.7999621	111.899946
20206.75	0.0999909000001935	365	hunger	stimuli/non_foods\non-food_animate_cow.jpg	1	3	1	non-food_animate_cow	0	J	6	0	103	0		0	0	111.949958499999	112.0499494
20244.25	0.0999824999998964	366	hunger	stimuli/non_foods\non-food_animate_baby_crawling.jpg	1	3	1	non-food_animate_baby_crawling	0	C	1	0	92	0		0	0	112.099960699999	112.199943199999
20281.75	0.0999794999997903	367	hunger	stimuli/foods\bagel.jpg	1	3	1	bagel	1	K	7	0	6	0		0	0	112.249959799999	112.349939299999
20319.25	0.0999664999999368	368	hunger	stimuli/non_foods\non-food_inanimate_padlock.jpg	1	3	1	non-food_inanimate_padlock	0	M	9	0	199	0		0	0	112.399976	112.4999425
20356.75	0.0999889000004259	369	hunger	stimuli/foods\grapes.jpg	1	3	1	grapes	1	W	16	0	60	0		0	0	112.5499519	112.6499408
20394.25	0.0999848000001293	370	hunger	stimuli/foods\cracker.jpg	1	3	1	cracker	1	O	22	1	38	0		0	0	112.6999526	112.7999374
20431.75	0.100012900000365	371	hunger	stimuli/foods\potato_and_green_bean_salad.jpg	1	3	1	potato_and_green_bean_salad	1	P	11	0	246	0		0	0	112.849937399999	112.9499503
20469.25	0.0999838999996427	372	hunger	stimuli/non_foods\non-food_inanimate_rack.jpg	1	3	1	non-food_inanimate_rack	0	H	5	0	202	0		0	0	112.9999615	113.099945399999
20506.75	0.0999695000000429	373	hunger	stimuli/non_foods\non-food_animate_parrot.jpg	1	3	1	non-food_animate_parrot	0	C	1	0	133	1	a	0.541829599999801	1	113.1499586	113.2499281
20544.25	0.0999998999996023	374	hunger	stimuli/foods\fried_zucchini.jpg	1	3	1	fried_zucchini	1	L	8	0	51	0		0	0	113.2999419	113.399941799999
20581.75	0.100009900000259	375	hunger	stimuli/non_foods\non-food_inanimate_folding_chair.jpg	1	3	1	non-food_inanimate_folding_chair	0	M	9	0	182	0		0	0	113.4499713	113.5499812
20619.25	0.0999803000004249	376	hunger	stimuli/non_foods\non-food_animate_young_girl.jpg	1	3	1	non-food_animate_young_girl	0	L	8	0	157	0		0	0	113.599963	113.6999433
20656.75	0.0999849999998332	377	hunger	stimuli/foods\lamb_chops.jpg	1	3	1	lamb_chops	1	K	7	0	70	0		0	0	113.7499532	113.8499382
20694.25	0.0999665999997887	378	hunger	stimuli/foods\grapefruits.jpg	1	3	1	grapefruits	1	F	3	0	59	0		0	0	113.8999531	113.9999197
20731.75	0.100000700000237	379	hunger	stimuli/non_foods\non-food_animate_green_bug.jpg	1	3	1	non-food_animate_green_bug	0	K	7	0	118	0		0	0	114.049934199999	114.1499349
20769.25	0.0999413999998069	380	hunger	stimuli/non_foods\non-food_animate_Causasian_man.jpg	1	3	1	non-food_animate_Causasian_man	0	S	13	0	89	0		0	0	114.1999958	114.299937199999
20806.75	0.0999791000003825	381	hunger	stimuli/non_foods\non-food_inanimate_buds.jpg	1	3	1	non-food_inanimate_buds	0	M	9	0	166	0		0	0	114.349958199999	114.4499373
20844.25	0.099984499999664	382	hunger	stimuli/non_foods\non-food_inanimate_waterlily.jpg	1	3	1	non-food_inanimate_waterlily	0	W	16	0	226	0		0	0	114.4999505	114.599934999999
20881.75	0.0999692999994295	383	hunger	stimuli/foods\mussels.jpg	1	3	1	mussels	1	P	11	0	86	0		0	0	114.6499456	114.7499149
20919.25	0.100000399999772	384	hunger	stimuli/non_foods\non-food_inanimate_drum_set.jpg	1	3	1	non-food_inanimate_drum_set	0	M	9	0	179	0		0	0	114.7999273	114.899927699999
20956.75	0.0999857000006159	385	hunger	stimuli/non_foods\non-food_inanimate_nailpolish.jpg	1	3	1	non-food_inanimate_nailpolish	0	D	2	0	195	0		0	0	114.94994	115.0499257
20994.25	0.0999798000002556	386	hunger	stimuli/non_foods\non-food_inanimate_nest.jpg	1	3	1	non-food_inanimate_nest	0	N	10	0	196	0		0	0	115.0999389	115.1999187
21031.75	0.099960700000338	387	hunger	stimuli/foods\chocolate_bar.jpg	1	3	1	chocolate_bar	1	P	11	0	26	0		0	0	115.2499627	115.3499234
21069.25	0.0999888999995164	388	hunger	stimuli/foods\spinach.jpg	1	3	1	spinach	1	M	9	0	268	0		0	0	115.3999359	115.499924799999
21106.75	0.0999852000004466	389	hunger	stimuli/non_foods\non-food_inanimate_fern.jpg	1	3	1	non-food_inanimate_fern	0	S	13	0	180	0		0	0	115.549937799999	115.649923
21144.25	0.0999842999999601	390	hunger	stimuli/foods\nectarine.jpg	1	3	1	nectarine	1	M	9	0	87	0		0	0	115.6999324	115.7999167
21181.75	0.0999880999997913	391	hunger	stimuli/foods\wafer.jpg	1	3	1	wafer	1	E	20	1	277	0		0	0	115.8499329	115.949920999999
21219.25	0.0999574999996184	392	hunger	stimuli/non_foods\non-food_inanimate_sun_flower.jpg	1	3	1	non-food_inanimate_sun_flower	0	H	5	0	216	0		0	0	115.9999613	116.0999188
21256.75	0.0999849999998332	393	hunger	stimuli/foods\corncob.jpg	1	3	1	corncob	1	K	7	0	37	0		0	0	116.1499297	116.2499147
21294.25	0.0999844000007215	394	hunger	stimuli/non_foods\non-food_inanimate_shell.jpg	1	3	1	non-food_inanimate_shell	0	R	12	0	206	1	a	0.54186910000044	1	116.299919399999	116.3999038
21331.75	0.0999824000000444	395	hunger	stimuli/foods\risotto_with_peas_and_asparagus_tips.jpg	1	3	1	risotto_with_peas_and_asparagus_tips	1	D	2	0	259	0		0	0	116.4499293	116.5499117
21369.25	0.0999849999998332	396	hunger	stimuli/foods\carrot.jpg	1	3	1	carrot	1	T	14	0	19	0		0	0	116.5999252	116.6999102
21406.75	0.0999805000001288	397	hunger	stimuli/foods\museli_bars.jpg	1	3	1	museli_bars	1	M	9	0	84	0		0	0	116.749929199999	116.849909699999
21444.25	0.0999917999997706	398	hunger	stimuli/non_foods\non-food_animate_fox.jpg	1	3	1	non-food_animate_fox	0	B	0	0	112	0		0	0	116.89992	116.9999118
21481.75	0.0999741999994512	399	hunger	stimuli/non_foods\non-food_inanimate_cupboard.jpg	1	3	1	non-food_inanimate_cupboard	0	M	9	0	177	0		0	0	117.0499349	117.1499091
21519.25	0.0999849999998332	400	hunger	stimuli/non_foods\non-food_animate_ladybug.jpg	1	3	1	non-food_animate_ladybug	0	C	1	0	124	0		0	0	117.1999197	117.299904699999
21556.75	0.0999872000002142	401	hunger	stimuli/foods\risotto_with_zucchini.jpg	1	3	1	risotto_with_zucchini	1	J	6	0	260	0		0	0	117.3499188	117.449906
21594.25	0.0999801999996635	402	hunger	stimuli/foods\beetroots.jpg	1	3	1	beetroots	1	G	4	0	10	0		0	0	117.4999226	117.5999028
21631.75	0.100000999999793	403	hunger	stimuli/foods\raisins.jpg	1	3	1	raisins	1	P	11	0	252	0		0	0	117.6499189	117.749919899999
21669.25	0.0999683999998524	404	hunger	stimuli/non_foods\non-food_inanimate_jeans.jpg	1	3	1	non-food_inanimate_jeans	0	C	1	0	191	0		0	0	117.799932899999	117.899901299999
21706.75	0.0999845999995159	405	hunger	stimuli/foods\toasted_bread_with_tomatoes.jpg	1	3	1	toasted_bread_with_tomatoes	1	B	0	0	275	0		0	0	117.9499152	118.049899799999
21744.25	0.0999879999999393	406	hunger	stimuli/foods\capsicum.jpg	1	3	1	capsicum	1	W	16	0	18	0		0	0	118.0999099	118.1998979
21781.75	0.0999891999999818	407	hunger	stimuli/foods\clams.jpg	1	3	1	clams	1	C	1	0	32	0		0	0	118.2499109	118.3499001
21819.25	0.0999852000004466	408	hunger	stimuli/foods\meatballs.jpg	1	3	1	meatballs	1	Z	18	0	81	0		0	0	118.399910399999	118.4998956
21856.75	0.0999861999998757	409	hunger	stimuli/non_foods\non-food_animate_llama.jpg	1	3	1	non-food_animate_llama	0	F	3	0	127	0		0	0	118.5499079	118.6498941
21894.25	0.0999830999999176	410	hunger	stimuli/foods\pea_pod.jpg	1	3	1	pea_pod	1	K	7	0	237	0		0	0	118.6999067	118.7998898
21931.75	0.0999817000001713	411	hunger	stimuli/foods\gnocchi.jpg	1	3	1	gnocchi	1	F	3	0	58	0		0	0	118.8499069	118.9498886
21969.25	0.099987599999622	412	hunger	stimuli/foods\garlic.jpg	1	3	1	garlic	1	G	4	0	56	0		0	0	118.9999037	119.099891299999
22006.75	0.0999837999997908	413	hunger	stimuli/foods\spring_onions.jpg	1	3	1	spring_onions	1	B	0	0	269	0		0	0	119.1499047	119.2498885
22044.25	0.0999911999997494	414	hunger	stimuli/foods\hamburger.jpg	1	3	1	hamburger	1	Z	18	0	64	0		0	0	119.2998987	119.3998899
22081.75	0.0999956000005113	415	hunger	stimuli/non_foods\non-food_animate_woman.jpg	1	3	1	non-food_animate_woman	0	B	0	0	154	0		0	0	119.449912399999	119.549908
22119.25	0.0999538999994911	416	hunger	stimuli/foods\cinnamon_sroll.jpg	1	3	1	cinnamon_sroll	1	J	6	0	31	0		0	0	119.5999302	119.6998841
22156.75	0.0999871000003623	417	hunger	stimuli/foods\lime.jpg	1	3	1	lime	1	L	8	0	76	0		0	0	119.749895999999	119.8498831
22194.25	0.0999841000002561	418	hunger	stimuli/foods\peach.jpg	1	3	1	peach	1	V	15	0	238	0		0	0	119.8998985	119.9998826
22231.75	0.0999815999994098	419	hunger	stimuli/foods\prawn.jpg	1	3	1	prawn	1	X	17	0	249	0		0	0	120.0498999	120.1498815
22615.25	0.09998110000015	420	hunger	stimuli/non_foods\non-food_animate_dolphin.jpg	1	4	1	non-food_animate_dolphin	0	K	7	0	106	0		0	0	121.5832255	121.6832066
22652.75	0.0999868999997489	421	hunger	stimuli/foods\almonds.jpg	1	4	1	almonds	1	R	12	0	0	0		0	0	121.733214	121.8332009
22690.25	0.0999819999997271	422	hunger	stimuli/foods\waffle.jpg	1	4	1	waffle	1	S	13	0	278	0		0	0	121.8832148	121.9831968
22727.75	0.0999878000002354	423	hunger	stimuli/foods\savory_pie.jpg	1	4	1	savory_pie	1	D	2	0	265	0		0	0	122.033211299999	122.1331991
22765.25	0.0999830999999176	424	hunger	stimuli/non_foods\non-food_inanimate_pine_cone.jpg	1	4	1	non-food_inanimate_pine_cone	0	G	4	0	200	0		0	0	122.1832125	122.2831956
22802.75	0.0999713000001066	425	hunger	stimuli/foods\oven-roasted_tomatoes.jpg	1	4	1	oven-roasted_tomatoes	1	F	3	0	232	0		0	0	122.333213399999	122.433184699999
22840.25	0.0999858999994103	426	hunger	stimuli/non_foods\non-food_inanimate_tulip.jpg	1	4	1	non-food_inanimate_tulip	0	L	8	0	224	0		0	0	122.4832096	122.583195499999
22877.75	0.0999872000002142	427	hunger	stimuli/foods\mango.jpg	1	4	1	mango	1	C	1	0	80	0		0	0	122.6332076	122.7331948
22915.25	0.0999869999996008	428	hunger	stimuli/non_foods\non-food_animate_runner.jpg	1	4	1	non-food_animate_runner	0	N	10	0	142	0		0	0	122.7832036	122.8831906
22952.75	0.0999830999999176	429	hunger	stimuli/foods\radish.jpg	1	4	1	radish	1	W	16	0	251	0		0	0	122.9332036	123.0331867
22990.25	0.0999836000000869	430	hunger	stimuli/non_foods\non-food_animate_caterpillar.jpg	1	4	1	non-food_animate_caterpillar	0	X	17	0	99	0		0	0	123.083200999999	123.1831846
23027.75	0.0999971000001096	431	hunger	stimuli/foods\taco.jpg	1	4	1	taco	1	Z	18	0	274	0		0	0	123.2332005	123.3331976
23065.25	0.0999810000002981	432	hunger	stimuli/foods\cherry.jpg	1	4	1	cherry	1	J	6	0	23	0		0	0	123.383201	123.483182
23102.75	0.0999857000006159	433	hunger	stimuli/foods\fruit_flan.jpg	1	4	1	fruit_flan	1	S	13	0	53	0		0	0	123.533194099999	123.6331798
23140.25	0.0999770999997054	434	hunger	stimuli/foods\rice.jpg	1	4	1	rice	1	J	6	0	257	0		0	0	123.6832052	123.7831823
23177.75	0.0999983000001521	435	hunger	stimuli/foods\tomato.jpg	1	4	1	tomato	1	C	1	0	276	0		0	0	123.8331934	123.9331917
23215.25	0.0999382999998488	436	hunger	stimuli/non_foods\non-food_inanimate_skirt.jpg	1	4	1	non-food_inanimate_skirt	0	J	6	0	209	0		0	0	123.9832394	124.083177699999
23252.75	0.0999854000001505	437	hunger	stimuli/non_foods\non-food_inanimate_teddy_bear.jpg	1	4	1	non-food_inanimate_teddy_bear	0	H	5	0	218	0		0	0	124.1331931	124.2331785
23290.25	0.0999711000004027	438	hunger	stimuli/non_foods\non-food_animate_snail.jpg	1	4	1	non-food_animate_snail	0	L	8	0	149	0		0	0	124.2832045	124.3831756
23327.75	0.0999818000000232	439	hunger	stimuli/foods\egg.jpg	1	4	1	egg	1	B	0	0	45	0		0	0	124.4331922	124.533174
23365.25	0.10000989999935	440	hunger	stimuli/foods\pasta_carbonara.jpg	1	4	1	pasta_carbonara	1	Z	18	0	236	0		0	0	124.5831675	124.683177399999
23402.75	0.0999939000002996	441	hunger	stimuli/non_foods\non-food_animate_student_female.jpg	1	4	1	non-food_animate_student_female	0	R	12	0	151	0		0	0	124.7331792	124.8331731
23440.25	0.0999819999997271	442	hunger	stimuli/non_foods\non-food_inanimate_rope.jpg	1	4	1	non-food_inanimate_rope	0	W	16	0	204	0		0	0	124.8831875	124.983169499999
23477.75	0.0999848999999813	443	hunger	stimuli/non_foods\non-food_inanimate_stapler.jpg	1	4	1	non-food_inanimate_stapler	0	Z	18	0	213	0		0	0	125.0331833	125.1331682
23515.25	0.0999830999999176	444	hunger	stimuli/foods\celery.jpg	1	4	1	celery	1	N	10	0	21	0		0	0	125.1831856	125.2831687
23552.75	0.0999855000000025	445	hunger	stimuli/foods\broccoli.jpg	1	4	1	broccoli	1	D	2	0	13	0		0	0	125.333181399999	125.433166899999
23590.25	0.0999781999998959	446	hunger	stimuli/foods\hotdog.jpg	1	4	1	hotdog	1	C	1	0	67	0		0	0	125.4831815	125.5831597
23627.75	0.0999874999997701	447	hunger	stimuli/foods\rockmelon.jpg	1	4	1	rockmelon	1	N	10	0	262	0		0	0	125.6331794	125.7331669
23665.25	0.0999373000004198	448	hunger	stimuli/non_foods\non-food_inanimate_watering_can.jpg	1	4	1	non-food_inanimate_watering_can	0	H	5	0	225	0		0	0	125.783222499999	125.8831598
23702.75	0.0999850000007427	449	hunger	stimuli/non_foods\non-food_inanimate_towel.jpg	1	4	1	non-food_inanimate_towel	0	V	15	0	221	0		0	0	125.933176099999	126.0331611
23740.25	0.0999854000001505	450	hunger	stimuli/foods\green_olives.jpg	1	4	1	green_olives	1	W	16	0	62	0		0	0	126.0831731	126.1831585
23777.75	0.0999854000001505	451	hunger	stimuli/non_foods\non-food_inanimate_bamboo.jpg	1	4	1	non-food_inanimate_bamboo	0	C	1	0	159	0		0	0	126.233171299999	126.3331567
23815.25	0.0999849999998332	452	hunger	stimuli/non_foods\non-food_animate_polar_bear.jpg	1	4	1	non-food_animate_polar_bear	0	F	3	0	137	0		0	0	126.383174099999	126.483159099999
23852.75	0.0999861000000237	453	hunger	stimuli/non_foods\non-food_inanimate_toilet.jpg	1	4	1	non-food_inanimate_toilet	0	R	12	0	220	0		0	0	126.533167699999	126.633153799999
23890.25	0.09997790000034	454	hunger	stimuli/non_foods\non-food_inanimate_headphones.jpg	1	4	1	non-food_inanimate_headphones	0	S	13	0	188	0		0	0	126.683169899999	126.7831478
23927.75	0.0999995000001945	455	hunger	stimuli/foods\spaghetti_with_meat_sauce.jpg	1	4	1	spaghetti_with_meat_sauce	1	M	9	0	267	0		0	0	126.8331573	126.9331568
23965.25	0.0999914000003628	456	hunger	stimuli/non_foods\non-food_inanimate_construction_helment.jpg	1	4	1	non-food_inanimate_construction_helment	0	C	1	0	175	0		0	0	126.9831557	127.0831471
24002.75	0.0999890000002779	457	hunger	stimuli/foods\oregano.jpg	1	4	1	oregano	1	Z	18	0	231	0		0	0	127.1331544	127.2331434
24040.25	0.0999842999999601	458	hunger	stimuli/foods\lasagna.jpg	1	4	1	lasagna	1	N	10	0	71	0		0	0	127.2831547	127.383139
24077.75	0.0999884999991991	459	hunger	stimuli/non_foods\non-food_animate_pigeon.jpg	1	4	1	non-food_animate_pigeon	0	B	0	0	136	0		0	0	127.4331486	127.533137099999
24115.25	0.099998499999856	460	hunger	stimuli/non_foods\non-food_animate_rhino.jpg	1	4	1	non-food_animate_rhino	0	G	4	0	141	0		0	0	127.5831614	127.6831599
24152.75	0.0999891000001298	461	hunger	stimuli/non_foods\non-food_animate_butterfly.jpg	1	4	1	non-food_animate_butterfly	0	N	10	0	96	0		0	0	127.733157	127.8331461
24190.25	0.0999716999995144	462	hunger	stimuli/foods\banana.jpg	1	4	1	banana	1	H	5	0	9	0		0	0	127.8831773	127.983149
24227.75	0.099984499999664	463	hunger	stimuli/foods\cauliflower.jpg	1	4	1	cauliflower	1	L	8	0	20	0		0	0	128.0331553	128.133139799999
24265.25	0.099986600000193	464	hunger	stimuli/foods\steak.jpg	1	4	1	steak	1	G	4	0	270	0		0	0	128.1831563	128.2831429
24302.75	0.0999847000002774	465	hunger	stimuli/non_foods\non-food_inanimate_leaf.jpg	1	4	1	non-food_inanimate_leaf	0	A	19	1	192	0		0	0	128.3331553	128.43314
24340.25	0.099984399999812	466	hunger	stimuli/non_foods\non-food_animate_monkey.jpg	1	4	1	non-food_animate_monkey	0	F	3	0	130	0		0	0	128.4831531	128.5831375
24377.75	0.0999723000004451	467	hunger	stimuli/non_foods\non-food_inanimate_moss.jpg	1	4	1	non-food_inanimate_moss	0	C	1	0	194	1	a	0.391840899999806	1	128.633167999999	128.7331403
24415.25	0.0999729999994088	468	hunger	stimuli/foods\swordfish.jpg	1	4	1	swordfish	1	M	9	0	273	0		0	0	128.7831637	128.883136699999
24452.75	0.0999836999999388	469	hunger	stimuli/non_foods\non-food_inanimate_alarm_clock.jpg	1	4	1	non-food_inanimate_alarm_clock	0	K	7	0	158	0		0	0	128.9331494	129.0331331
24490.25	0.0999830999999176	470	hunger	stimuli/foods\watermelon.jpg	1	4	1	watermelon	1	D	2	0	279	0		0	0	129.0831523	129.1831354
24527.75	0.0999870999994528	471	hunger	stimuli/foods\linguine_with_clams.jpg	1	4	1	linguine_with_clams	1	C	1	0	77	0		0	0	129.2331439	129.333130999999
24565.25	0.0999604999997246	472	hunger	stimuli/non_foods\non-food_inanimate_hammer.jpg	1	4	1	non-food_inanimate_hammer	0	H	5	0	186	0		0	0	129.3831648	129.483125299999
24602.75	0.0999856999997064	473	hunger	stimuli/non_foods\non-food_animate_bee.jpg	1	4	1	non-food_animate_bee	0	L	8	0	95	0		0	0	129.5331298	129.6331155
24640.25	0.0999815000004673	474	hunger	stimuli/non_foods\non-food_inanimate_chair.jpg	1	4	1	non-food_inanimate_chair	0	S	13	0	172	0		0	0	129.683138599999	129.7831201
24677.75	0.0999796000005517	475	hunger	stimuli/non_foods\non-food_animate_elephant.jpg	1	4	1	non-food_animate_elephant	0	M	9	0	111	0		0	0	129.833127399999	129.933107
24715.25	0.10000779999973	476	hunger	stimuli/foods\baked_lamb_with_potatoes.jpg	1	4	1	baked_lamb_with_potatoes	1	C	1	0	8	0		0	0	129.9831159	130.083123699999
24752.75	0.099987599999622	477	hunger	stimuli/foods\honey.jpg	1	4	1	honey	1	D	2	0	66	0		0	0	130.1331371	130.233124699999
24790.25	0.0999845999995159	478	hunger	stimuli/non_foods\non-food_animate_porcupine.jpg	1	4	1	non-food_animate_porcupine	0	V	15	0	138	0		0	0	130.2831385	130.383123099999
24827.75	0.0999693999992814	479	hunger	stimuli/non_foods\non-food_animate_dragonfly.jpg	1	4	1	non-food_animate_dragonfly	0	G	4	0	108	0		0	0	130.4331492	130.533118599999
24865.25	0.0999870000005103	480	hunger	stimuli/foods\pear.jpg	1	4	1	pear	1	N	10	0	239	0		0	0	130.583133399999	130.6831204
24902.75	0.099981200000002	481	hunger	stimuli/foods\lollies.jpg	1	4	1	lollies	1	R	12	0	78	0		0	0	130.7331335	130.8331147
24940.25	0.0999816999992618	482	hunger	stimuli/non_foods\non-food_inanimate_bush.jpg	1	4	1	non-food_inanimate_bush	0	P	11	0	167	0		0	0	130.88313	130.983111699999
24977.75	0.0999935999998343	483	hunger	stimuli/non_foods\non-food_animate_seal.jpg	1	4	1	non-food_animate_seal	0	D	2	0	146	0		0	0	131.0331454	131.133139
25015.25	0.0999529000000621	484	hunger	stimuli/foods\orange.jpg	1	4	1	orange	1	M	9	0	230	0		0	0	131.1831622	131.2831151
25052.75	0.0999857000006159	485	hunger	stimuli/foods\papaya.jpg	1	4	1	papaya	1	R	12	0	235	0		0	0	131.333127399999	131.4331131
25090.25	0.0999859000003198	486	hunger	stimuli/non_foods\non-food_inanimate_bed.jpg	1	4	1	non-food_inanimate_bed	0	J	6	0	160	0		0	0	131.4831268	131.5831127
25127.75	0.0999873999999181	487	hunger	stimuli/non_foods\non-food_animate_swan.jpg	1	4	1	non-food_animate_swan	0	S	13	0	152	0		0	0	131.633124	131.7331114
25165.25	0.0999872000002142	488	hunger	stimuli/non_foods\non-food_animate_sea_turtle.jpg	1	4	1	non-food_animate_sea_turtle	0	M	9	0	144	0		0	0	131.7831209	131.8831081
25202.75	0.0999851000005947	489	hunger	stimuli/foods\cooked_ham.jpg	1	4	1	cooked_ham	1	R	12	0	35	0		0	0	131.9331238	132.0331089
25240.25	0.0999824000000444	490	hunger	stimuli/non_foods\non-food_inanimate_toy_airplane.jpg	1	4	1	non-food_inanimate_toy_airplane	0	P	11	0	222	0		0	0	132.0831213	132.1831037
25277.75	0.0999867000000449	491	hunger	stimuli/non_foods\non-food_animate_squirrel.jpg	1	4	1	non-food_animate_squirrel	0	K	7	0	150	0		0	0	132.233120299999	132.333106999999
25315.25	0.0999837999997908	492	hunger	stimuli/non_foods\non-food_inanimate_speakers.jpg	1	4	1	non-food_inanimate_speakers	0	L	8	0	212	0		0	0	132.3831172	132.483101
25352.75	0.0999861999998757	493	hunger	stimuli/foods\pomegranate.jpg	1	4	1	pomegranate	1	H	5	0	244	0		0	0	132.5331159	132.6331021
25390.25	0.0999754999993456	494	hunger	stimuli/foods\asparagus.jpg	1	4	1	asparagus	1	T	14	0	4	0		0	0	132.6831179	132.783093399999
25427.75	0.0999795000006998	495	hunger	stimuli/foods\strawberry.jpg	1	4	1	strawberry	1	B	0	0	272	0		0	0	132.833110199999	132.9330897
25465.25	0.0999627000001055	496	hunger	stimuli/foods\croissant.jpg	1	4	1	croissant	1	X	17	0	40	0		0	0	132.9831288	133.0830915
25502.75	0.0999827000005098	497	hunger	stimuli/non_foods\non-food_animate_lizard.jpg	1	4	1	non-food_animate_lizard	0	W	16	0	126	0		0	0	133.1330997	133.2330824
25540.25	0.0999980999995387	498	hunger	stimuli/foods\fried_calamari.jpg	1	4	1	fried_calamari	1	L	8	0	50	0		0	0	133.2830998	133.383097899999
25577.75	0.0999839000005522	499	hunger	stimuli/foods\brownie.jpg	1	4	1	brownie	1	X	17	0	14	0		0	0	133.433110299999	133.5330942
25615.25	0.0999873000000662	500	hunger	stimuli/non_foods\non-food_inanimate_gloves.jpg	1	4	1	non-food_inanimate_gloves	0	F	3	0	183	0		0	0	133.583108	133.6830953
25652.75	0.0999728000006144	501	hunger	stimuli/non_foods\non-food_inanimate_table.jpg	1	4	1	non-food_inanimate_table	0	Z	18	0	217	0		0	0	133.7331055	133.8330783
25690.25	0.099987599999622	502	hunger	stimuli/foods\lentils.jpg	1	4	1	lentils	1	G	4	0	74	0		0	0	133.8830945	133.9830821
25727.75	0.0999750000000859	503	hunger	stimuli/foods\kiwi.jpg	1	4	1	kiwi	1	Z	18	0	69	0		0	0	134.033101399999	134.133076399999
25765.25	0.0999840000004042	504	hunger	stimuli/non_foods\non-food_animate_seahorse.jpg	1	4	1	non-food_animate_seahorse	0	V	15	0	145	0		0	0	134.1831047	134.2830887
25802.75	0.0999870000005103	505	hunger	stimuli/non_foods\non-food_animate_kangaroo.jpg	1	4	1	non-food_animate_kangaroo	0	M	9	0	122	0		0	0	134.333100299999	134.4330873
25840.25	0.0999915000002147	506	hunger	stimuli/non_foods\non-food_animate_deer.jpg	1	4	1	non-food_animate_deer	0	X	17	0	105	0		0	0	134.4830894	134.5830809
25877.75	0.100002599999243	507	hunger	stimuli/non_foods\non-food_inanimate_nettle.jpg	1	4	1	non-food_inanimate_nettle	0	P	11	0	197	0		0	0	134.6330803	134.733082899999
25915.25	0.0999860000001718	508	hunger	stimuli/non_foods\non-food_animate_mouse.jpg	1	4	1	non-food_animate_mouse	0	T	14	0	131	0		0	0	134.7830937	134.8830797
25952.75	0.0999842000001081	509	hunger	stimuli/foods\dates.jpg	1	4	1	dates	1	F	3	0	43	0		0	0	134.933094999999	135.0330792
25990.25	0.0999922000000879	510	hunger	stimuli/foods\pepperoni_pizza.jpg	1	4	1	pepperoni_pizza	1	D	2	0	241	0		0	0	135.083092899999	135.1830851
26027.75	0.0999636000005921	511	hunger	stimuli/non_foods\non-food_inanimate_protractor.jpg	1	4	1	non-food_inanimate_protractor	0	J	6	0	201	0		0	0	135.233091999999	135.3330556
26065.25	0.0999838999996427	512	hunger	stimuli/non_foods\non-food_inanimate_grass.jpg	1	4	1	non-food_inanimate_grass	0	S	13	0	184	0		0	0	135.3830836	135.483067499999
26102.75	0.0999840999993467	513	hunger	stimuli/non_foods\non-food_animate_skunk.jpg	1	4	1	non-food_animate_skunk	0	F	3	0	147	0		0	0	135.5330776	135.633061699999
26140.25	0.0999873999999181	514	hunger	stimuli/non_foods\non-food_animate_lion.jpg	1	4	1	non-food_animate_lion	0	M	9	0	125	0		0	0	135.683082	135.783069399999
26177.75	0.0999839999994947	515	hunger	stimuli/non_foods\non-food_animate_iguana.jpg	1	4	1	non-food_animate_iguana	0	L	8	0	121	0		0	0	135.8330748	135.933058799999
26215.25	0.099997300000723	516	hunger	stimuli/foods\chilli.jpg	1	4	1	chilli	1	F	3	0	25	0		0	0	135.983078599999	136.0830759
26252.75	0.100011399999858	517	hunger	stimuli/foods\pineapple.jpg	1	4	1	pineapple	1	C	1	0	243	0		0	0	136.1330609	136.2330723
26290.25	0.0999865999992835	518	hunger	stimuli/foods\smoked_ham.jpg	1	4	1	smoked_ham	1	X	17	0	266	0		0	0	136.28308	136.383066599999
26327.75	0.099941200000103	519	hunger	stimuli/non_foods\non-food_inanimate_short_sleeved_shirt.jpg	1	4	1	non-food_inanimate_short_sleeved_shirt	0	O	22	1	207	0		0	0	136.4331259	136.5330671
26365.25	0.0999856999997064	520	hunger	stimuli/foods\potatoes.jpg	1	4	1	potatoes	1	J	6	0	248	0		0	0	136.5830792	136.683064899999
26402.75	0.0999879000000874	521	hunger	stimuli/non_foods\non-food_inanimate_horn.jpg	1	4	1	non-food_inanimate_horn	0	B	0	0	190	0		0	0	136.733078599999	136.833066499999
26440.25	0.0999826000006578	522	hunger	stimuli/non_foods\non-food_inanimate_socks.jpg	1	4	1	non-food_inanimate_socks	0	S	13	0	211	1	a	0.450165599999309	1	136.883082599999	136.9830652
26477.75	0.0999827999994523	523	hunger	stimuli/foods\red_beans.jpg	1	4	1	red_beans	1	J	6	0	255	0		0	0	137.0330757	137.1330585
26515.25	0.0999877000003835	524	hunger	stimuli/foods\grilled_chicken_breast.jpg	1	4	1	grilled_chicken_breast	1	T	14	0	63	0		0	0	137.183074099999	137.2830618
26552.75	0.0999826000006578	525	hunger	stimuli/foods\fruit_pie.jpg	1	4	1	fruit_pie	1	V	15	0	54	0		0	0	137.333076299999	137.4330589
26590.25	0.0999627000001055	526	hunger	stimuli/non_foods\non-food_animate_millipede.jpg	1	4	1	non-food_animate_millipede	0	G	4	0	129	0		0	0	137.4830943	137.583057
26627.75	0.0999881000007008	527	hunger	stimuli/non_foods\non-food_animate_Asian_man.jpg	1	4	1	non-food_animate_Asian_man	0	N	10	0	88	0		0	0	137.633070999999	137.7330591
26665.25	0.0999842999999601	528	hunger	stimuli/foods\figs.jpg	1	4	1	figs	1	J	6	0	48	0		0	0	137.783071299999	137.883055599999
26702.75	0.0999855999998545	529	hunger	stimuli/non_foods\non-food_inanimate_tent.jpg	1	4	1	non-food_inanimate_tent	0	B	0	0	219	0		0	0	137.933066	138.033051599999
26740.25	0.10000779999973	530	hunger	stimuli/non_foods\non-food_animate_grasshopper.jpg	1	4	1	non-food_animate_grasshopper	0	M	9	0	117	0		0	0	138.083067	138.183074799999
26777.75	0.0999416999993628	531	hunger	stimuli/non_foods\non-food_animate_ant.jpg	1	4	1	non-food_animate_ant	0	W	16	0	91	0		0	0	138.2331088	138.333050499999
26815.25	0.0999887999996645	532	hunger	stimuli/non_foods\non-food_animate_yellow_bug.jpg	1	4	1	non-food_animate_yellow_bug	0	G	4	0	155	0		0	0	138.383062	138.4830508
26852.75	0.0999727999997049	533	hunger	stimuli/non_foods\non-food_animate_eagle.jpg	1	4	1	non-food_animate_eagle	0	K	7	0	110	0		0	0	138.5330634	138.6330362
26890.25	0.0999859000003198	534	hunger	stimuli/non_foods\non-food_animate_ram.jpg	1	4	1	non-food_animate_ram	0	Z	18	0	140	0		0	0	138.6830567	138.7830426
26927.75	0.0999830999999176	535	hunger	stimuli/non_foods\non-food_inanimate_orchid.jpg	1	4	1	non-food_inanimate_orchid	0	B	0	0	198	0		0	0	138.833043799999	138.933026899999
26965.25	0.100004400000216	536	hunger	stimuli/non_foods\non-food_animate_alligator.jpg	1	4	1	non-food_animate_alligator	0	D	2	0	90	0		0	0	138.983039299999	139.0830437
27002.75	0.0999848000001293	537	hunger	stimuli/foods\pickles.jpg	1	4	1	pickles	1	H	5	0	242	0		0	0	139.1330558	139.2330406
27040.25	0.0999715999996624	538	hunger	stimuli/non_foods\non-food_animate_german_shepherd.jpg	1	4	1	non-food_animate_german_shepherd	0	F	3	0	114	0		0	0	139.2830717	139.383043299999
27077.75	0.0999869999996008	539	hunger	stimuli/non_foods\non-food_inanimate_wrench.jpg	1	4	1	non-food_inanimate_wrench	0	P	11	0	227	0		0	0	139.433053	139.533039999999
27115.25	0.0999884000002567	540	hunger	stimuli/non_foods\non-food_animate_hummingbird.jpg	1	4	1	non-food_animate_hummingbird	0	F	3	0	120	0		0	0	139.583052999999	139.6830414
27152.75	0.0999854000001505	541	hunger	stimuli/foods\chocolate_pralines.jpg	1	4	1	chocolate_pralines	1	M	9	0	28	0		0	0	139.7330542	139.8330396
27190.25	0.100010699999984	542	hunger	stimuli/non_foods\non-food_inanimate_soccer_ball.jpg	1	4	1	non-food_inanimate_soccer_ball	0	Z	18	0	210	0		0	0	139.883068	139.9830787
27227.75	0.0999555999997028	543	hunger	stimuli/foods\coffee_beans.jpg	1	4	1	coffee_beans	1	H	5	0	34	0		0	0	140.0330806	140.1330362
27265.25	0.0999862999997276	544	hunger	stimuli/non_foods\non-food_inanimate_broom.jpg	1	4	1	non-food_inanimate_broom	0	S	13	0	164	0		0	0	140.1830487	140.283034999999
27302.75	0.0999731000001702	545	hunger	stimuli/non_foods\non-food_inanimate_tree.jpg	1	4	1	non-food_inanimate_tree	0	H	5	0	223	0		0	0	140.333045699999	140.433018799999
27340.25	0.0999987999994119	546	hunger	stimuli/foods\onion.jpg	1	4	1	onion	1	K	7	0	229	0		0	0	140.4830363	140.5830351
27377.75	0.0999848999999813	547	hunger	stimuli/foods\hazelnuts.jpg	1	4	1	hazelnuts	1	F	3	0	65	0		0	0	140.6330418	140.7330267
27415.25	0.0999891000001298	548	hunger	stimuli/non_foods\non-food_inanimate_lighter.jpg	1	4	1	non-food_inanimate_lighter	0	I	21	1	193	0		0	0	140.7830409	140.88303
27452.75	0.0999837999997908	549	hunger	stimuli/foods\cinnamon.jpg	1	4	1	cinnamon	1	B	0	0	30	0		0	0	140.9330414	141.033025199999
27490.25	0.0999850999996852	550	hunger	stimuli/foods\brussel_sprouts.jpg	1	4	1	brussel_sprouts	1	N	10	0	15	0		0	0	141.0830385	141.1830236
27527.75	0.0999905999997281	551	hunger	stimuli/non_foods\non-food_animate_giraffe.jpg	1	4	1	non-food_animate_giraffe	0	F	3	0	115	0		0	0	141.2330424	141.333033
27565.25	0.0999815000004673	552	hunger	stimuli/foods\pork_and_rice.jpg	1	4	1	pork_and_rice	1	W	16	0	245	0		0	0	141.383032799999	141.4830143
27602.75	0.0999835000002349	553	hunger	stimuli/non_foods\non-food_animate_killer_whale.jpg	1	4	1	non-food_animate_killer_whale	0	H	5	0	123	0		0	0	141.533023999999	141.6330075
27640.25	0.0999769000000015	554	hunger	stimuli/foods\eggplant.jpg	1	4	1	eggplant	1	S	13	0	46	0		0	0	141.6830383	141.7830152
27677.75	0.0999748999993244	555	hunger	stimuli/foods\lemon_meringue_pie.jpg	1	4	1	lemon_meringue_pie	1	D	2	0	73	0		0	0	141.8330317	141.933006599999
27715.25	0.0999637000004441	556	hunger	stimuli/foods\artichoke.jpg	1	4	1	artichoke	1	F	3	0	3	0		0	0	141.983043499999	142.0830072
27752.75	0.0999883000004047	557	hunger	stimuli/foods\blackberry.jpg	1	4	1	blackberry	1	M	9	0	11	0		0	0	142.1330174	142.2330057
27790.25	0.0999941999998555	558	hunger	stimuli/foods\brie.jpg	1	4	1	brie	1	Z	18	0	12	0		0	0	142.283023	142.3830172
27827.75	0.0999848000001293	559	hunger	stimuli/foods\red_cabbage.jpg	1	4	1	red_cabbage	1	J	6	0	256	0		0	0	142.4330289	142.5330137
28461	0.0999783999995998	560	hunger	stimuli/non_foods\non-food_animate_ram.jpg	1	5	1	non-food_animate_ram	0	S	13	0	140	0		0	0	144.96634	145.0663184
28498.5	0.0999873000000662	561	hunger	stimuli/foods\spinach.jpg	1	5	1	spinach	1	V	15	0	268	0		0	0	145.1163301	145.2163174
28536	0.0999836999999388	562	hunger	stimuli/foods\ice_cream.jpg	1	5	1	ice_cream	1	K	7	0	68	0		0	0	145.266332	145.3663157
28573.5	0.10000029999992	563	hunger	stimuli/non_foods\non-food_inanimate_cupboard.jpg	1	5	1	non-food_inanimate_cupboard	0	G	4	0	177	0		0	0	145.416320599999	145.516320899999
28611	0.0999495000005481	564	hunger	stimuli/foods\lettuce.jpg	1	5	1	lettuce	1	F	3	0	75	0		0	0	145.566369499999	145.666319
28648.5	0.0999807999996847	565	hunger	stimuli/foods\pomegranate.jpg	1	5	1	pomegranate	1	X	17	0	244	0		0	0	145.7163374	145.8163182
28686	0.0999913999994533	566	hunger	stimuli/foods\spaghetti_with_meat_sauce.jpg	1	5	1	spaghetti_with_meat_sauce	1	M	9	0	267	0		0	0	145.8663298	145.9663212
28723.5	0.0999827999994523	567	hunger	stimuli/non_foods\non-food_inanimate_short_sleeved_shirt.jpg	1	5	1	non-food_inanimate_short_sleeved_shirt	0	S	13	0	207	0		0	0	146.0163334	146.116316199999
28761	0.0999862999997276	568	hunger	stimuli/foods\peach.jpg	1	5	1	peach	1	W	16	0	238	0		0	0	146.1663297	146.266315999999
28798.5	0.0999855999998545	569	hunger	stimuli/foods\red_cabbage.jpg	1	5	1	red_cabbage	1	V	15	0	256	0		0	0	146.3163273	146.4163129
28836	0.0999878000002354	570	hunger	stimuli/non_foods\non-food_animate_llama.jpg	1	5	1	non-food_animate_llama	0	L	8	0	127	0		0	0	146.466326299999	146.5663141
28873.5	0.0999935999998343	571	hunger	stimuli/non_foods\non-food_animate_killer_whale.jpg	1	5	1	non-food_animate_killer_whale	0	F	3	0	123	0		0	0	146.6163253	146.716318899999
28911	0.0999751999997898	572	hunger	stimuli/foods\onion.jpg	1	5	1	onion	1	P	11	0	229	0		0	0	146.7663328	146.866308
28948.5	0.0999839000005522	573	hunger	stimuli/non_foods\non-food_animate_sea_turtle.jpg	1	5	1	non-food_animate_sea_turtle	0	X	17	0	144	0		0	0	146.916324299999	147.0163082
28986	0.0999713999999585	574	hunger	stimuli/non_foods\non-food_animate_yellow_bug.jpg	1	5	1	non-food_animate_yellow_bug	0	M	9	0	155	0		0	0	147.0663255	147.1662969
29023.5	0.0999783999995998	575	hunger	stimuli/foods\museli_bars.jpg	1	5	1	museli_bars	1	Z	18	0	84	0		0	0	147.2163104	147.3162888
29061	0.100004900000386	576	hunger	stimuli/foods\donut.jpg	1	5	1	donut	1	S	13	0	44	0		0	0	147.3662964	147.4663013
29098.5	0.0999914000003628	577	hunger	stimuli/non_foods\non-food_animate_deer.jpg	1	5	1	non-food_animate_deer	0	Z	18	0	105	0		0	0	147.5163121	147.6163035
29136	0.0999879000000874	578	hunger	stimuli/foods\brussel_sprouts.jpg	1	5	1	brussel_sprouts	1	T	14	0	15	0		0	0	147.666317599999	147.766305499999
29173.5	0.0999807999996847	579	hunger	stimuli/foods\carrot.jpg	1	5	1	carrot	1	N	10	0	19	0		0	0	147.8163171	147.916297899999
29211	0.0999971000001096	580	hunger	stimuli/non_foods\non-food_animate_student_female.jpg	1	5	1	non-food_animate_student_female	0	R	12	0	151	0		0	0	147.966304	148.0663011
29248.5	0.0999859000003198	581	hunger	stimuli/non_foods\non-food_inanimate_couch.jpg	1	5	1	non-food_inanimate_couch	0	W	16	0	176	0		0	0	148.116311199999	148.2162971
29286	0.0999861000000237	582	hunger	stimuli/non_foods\non-food_inanimate_table.jpg	1	5	1	non-food_inanimate_table	0	X	17	0	217	0		0	0	148.2663077	148.3662938
29323.5	0.0999881999996433	583	hunger	stimuli/foods\salmon.jpg	1	5	1	salmon	1	N	10	0	264	0		0	0	148.4163067	148.5162949
29361	0.0999889999993684	584	hunger	stimuli/foods\fruit_salad.jpg	1	5	1	fruit_salad	1	H	5	0	55	0		0	0	148.566307	148.666295999999
29398.5	0.0999869999996008	585	hunger	stimuli/non_foods\non-food_animate_giraffe.jpg	1	5	1	non-food_animate_giraffe	0	X	17	0	115	0		0	0	148.7163049	148.8162919
29436	0.0999879000000874	586	hunger	stimuli/non_foods\non-food_animate_Asian_man.jpg	1	5	1	non-food_animate_Asian_man	0	P	11	0	88	0		0	0	148.8663042	148.9662921
29473.5	0.099988700000722	587	hunger	stimuli/non_foods\non-food_animate_frog.jpg	1	5	1	non-food_animate_frog	0	J	6	0	113	0		0	0	149.016299999999	149.1162887
29511	0.0999451000006957	588	hunger	stimuli/foods\raw_ham.jpg	1	5	1	raw_ham	1	H	5	0	253	0		0	0	149.166343999999	149.2662891
29548.5	0.0999826999996003	589	hunger	stimuli/non_foods\non-food_inanimate_towel.jpg	1	5	1	non-food_inanimate_towel	0	W	16	0	221	0		0	0	149.3163033	149.416286
29586	0.099986500000341	590	hunger	stimuli/foods\egg.jpg	1	5	1	egg	1	N	10	0	45	0		0	0	149.466298599999	149.5662851
29623.5	0.0999871000003623	591	hunger	stimuli/foods\pear.jpg	1	5	1	pear	1	F	3	0	239	0		0	0	149.6162981	149.7162852
29661	0.0999870999994528	592	hunger	stimuli/foods\taco.jpg	1	5	1	taco	1	S	13	0	274	0		0	0	149.7662939	149.866281
29698.5	0.099984399999812	593	hunger	stimuli/non_foods\non-food_inanimate_desk.jpg	1	5	1	non-food_inanimate_desk	0	G	4	0	178	0		0	0	149.9162947	150.016279099999
29736	0.0999840999993467	594	hunger	stimuli/non_foods\non-food_animate_owl.jpg	1	5	1	non-food_animate_owl	0	H	5	0	132	0		0	0	150.0662929	150.166276999999
29773.5	0.0999664000000848	595	hunger	stimuli/non_foods\non-food_inanimate_sun_flower.jpg	1	5	1	non-food_inanimate_sun_flower	0	N	10	0	216	0		0	0	150.2163098	150.3162762
29811	0.0999855999998545	596	hunger	stimuli/foods\red_beans.jpg	1	5	1	red_beans	1	L	8	0	255	0		0	0	150.3663035	150.4662891
29848.5	0.0999810999992405	597	hunger	stimuli/non_foods\non-food_inanimate_shell.jpg	1	5	1	non-food_inanimate_shell	0	J	6	0	206	0		0	0	150.5162964	150.616277499999
29886	0.0999887999996645	598	hunger	stimuli/non_foods\non-food_inanimate_buds.jpg	1	5	1	non-food_inanimate_buds	0	T	14	0	166	0		0	0	150.6662891	150.766277899999
29923.5	0.0999873999999181	599	hunger	stimuli/foods\grilled_chicken_breast.jpg	1	5	1	grilled_chicken_breast	1	P	11	0	63	0		0	0	150.8162825	150.9162699
29961	0.099963800000296	600	hunger	stimuli/non_foods\non-food_inanimate_lighter.jpg	1	5	1	non-food_inanimate_lighter	0	B	0	0	193	0		0	0	150.9662991	151.0662629
29998.5	0.0999891999999818	601	hunger	stimuli/non_foods\non-food_animate_millipede.jpg	1	5	1	non-food_animate_millipede	0	Z	18	0	129	0		0	0	151.1162752	151.2162644
30036	0.0999842999999601	602	hunger	stimuli/foods\coconut.jpg	1	5	1	coconut	1	T	14	0	33	0		0	0	151.2662851	151.3662694
30073.5	0.0999862999997276	603	hunger	stimuli/foods\cinnamon_sroll.jpg	1	5	1	cinnamon_sroll	1	B	0	0	31	0		0	0	151.4162833	151.5162696
30111	0.0999853000002986	604	hunger	stimuli/non_foods\non-food_inanimate_rope.jpg	1	5	1	non-food_inanimate_rope	0	R	12	0	204	0		0	0	151.566285299999	151.6662706
30148.5	0.0999893999996857	605	hunger	stimuli/non_foods\non-food_animate_parrot.jpg	1	5	1	non-food_animate_parrot	0	U	23	1	133	0		0	0	151.7162792	151.8162686
30186	0.09997470000053	606	hunger	stimuli/non_foods\non-food_animate_slug.jpg	1	5	1	non-food_animate_slug	0	S	13	0	148	0		0	0	151.866280499999	151.9662552
30223.5	0.0999919999994745	607	hunger	stimuli/non_foods\non-food_inanimate_clover.jpg	1	5	1	non-food_inanimate_clover	0	L	8	0	174	0		0	0	152.0162837	152.116275699999
30261	0.0999870999994528	608	hunger	stimuli/non_foods\non-food_inanimate_socks.jpg	1	5	1	non-food_inanimate_socks	0	K	7	0	211	0		0	0	152.1662728	152.2662599
30298.5	0.0999885000001086	609	hunger	stimuli/non_foods\non-food_animate_seahorse.jpg	1	5	1	non-food_animate_seahorse	0	Z	18	0	145	0		0	0	152.3162716	152.4162601
30336	0.0999832999996215	610	hunger	stimuli/foods\capsicum.jpg	1	5	1	capsicum	1	C	1	0	18	0		0	0	152.4662756	152.566258899999
30373.5	0.100015499999245	611	hunger	stimuli/non_foods\non-food_animate_rhino.jpg	1	5	1	non-food_animate_rhino	0	K	7	0	141	0		0	0	152.6162862	152.716301699999
30411	0.0999700000002122	612	hunger	stimuli/foods\pea_pod.jpg	1	5	1	pea_pod	1	C	1	0	237	0		0	0	152.7662882	152.8662582
30448.5	0.0999887999996645	613	hunger	stimuli/foods\cucumber.jpg	1	5	1	cucumber	1	J	6	0	41	0		0	0	152.9162582	153.016247
30486	0.0999864999994315	614	hunger	stimuli/non_foods\non-food_animate_camel.jpg	1	5	1	non-food_animate_camel	0	N	10	0	97	0		0	0	153.0662603	153.166246799999
30523.5	0.10000140000011	615	hunger	stimuli/foods\rice.jpg	1	5	1	rice	1	D	2	0	257	0		0	0	153.2162499	153.3162513
30561	0.0999828999993042	616	hunger	stimuli/foods\cherry.jpg	1	5	1	cherry	1	L	8	0	23	0		0	0	153.3662659	153.466248799999
30598.5	0.0999917000008281	617	hunger	stimuli/foods\nectarine.jpg	1	5	1	nectarine	1	D	2	0	87	0		0	0	153.516260699999	153.6162524
30636	0.0999828000003617	618	hunger	stimuli/non_foods\non-food_inanimate_stapler.jpg	1	5	1	non-food_inanimate_stapler	0	R	12	0	213	0		0	0	153.666264099999	153.7662469
30673.5	0.0999764999996842	619	hunger	stimuli/foods\oregano.jpg	1	5	1	oregano	1	Z	18	0	231	0		0	0	153.816274	153.916250499999
30711	0.0999840000004042	620	hunger	stimuli/foods\hamburger.jpg	1	5	1	hamburger	1	T	14	0	64	0		0	0	153.966262299999	154.0662463
30748.5	0.0999848000001293	621	hunger	stimuli/non_foods\non-food_animate_bee.jpg	1	5	1	non-food_animate_bee	0	F	3	0	95	0		0	0	154.1162601	154.2162449
30786	0.0999842000001081	622	hunger	stimuli/non_foods\non-food_animate_german_shepherd.jpg	1	5	1	non-food_animate_german_shepherd	0	N	10	0	114	0		0	0	154.2662548	154.366239
30823.5	0.0999918999996225	623	hunger	stimuli/foods\omelette.jpg	1	5	1	omelette	1	A	19	1	228	0		0	0	154.4162691	154.516261
30861	0.0999580000006972	624	hunger	stimuli/foods\fried_calamari.jpg	1	5	1	fried_calamari	1	S	13	0	50	0		0	0	154.566282899999	154.6662409
30898.5	0.0999868000008064	625	hunger	stimuli/non_foods\non-food_animate_swan.jpg	1	5	1	non-food_animate_swan	0	L	8	0	152	1	a	0.400144899999759	1	154.716253199999	154.81624
30936	0.0999864000004891	626	hunger	stimuli/non_foods\non-food_animate_kangaroo.jpg	1	5	1	non-food_animate_kangaroo	0	R	12	0	122	0		0	0	154.8662528	154.9662392
30973.5	0.0999865999992835	627	hunger	stimuli/non_foods\non-food_inanimate_cap.jpg	1	5	1	non-food_inanimate_cap	0	J	6	0	171	0		0	0	155.0162497	155.116236299999
31011	0.0999848999999813	628	hunger	stimuli/non_foods\non-food_animate_hummingbird.jpg	1	5	1	non-food_animate_hummingbird	0	G	4	0	120	0		0	0	155.1662502	155.2662351
31048.5	0.0999861000000237	629	hunger	stimuli/non_foods\non-food_animate_grasshopper.jpg	1	5	1	non-food_animate_grasshopper	0	C	1	0	117	0		0	0	155.316244799999	155.416230899999
31086	0.100008099999286	630	hunger	stimuli/foods\chocolate_chip_cookies.jpg	1	5	1	chocolate_chip_cookies	1	P	11	0	27	0		0	0	155.4662459	155.566253999999
31123.5	0.0999694000001909	631	hunger	stimuli/foods\peas.jpg	1	5	1	peas	1	S	13	0	240	0		0	0	155.616261499999	155.7162309
31161	0.0999892999998337	632	hunger	stimuli/foods\rice_cake.jpg	1	5	1	rice_cake	1	P	11	0	258	0		0	0	155.7662467	155.866236
31198.5	0.0999885000001086	633	hunger	stimuli/foods\cream_donuts.jpg	1	5	1	cream_donuts	1	H	5	0	39	0		0	0	155.9162336	156.0162221
31236	0.0999857999995584	634	hunger	stimuli/foods\fennel.jpg	1	5	1	fennel	1	W	16	0	47	0		0	0	156.0662346	156.166220399999
31273.5	0.0999880999997913	635	hunger	stimuli/foods\lamb_chops.jpg	1	5	1	lamb_chops	1	J	6	0	70	0		0	0	156.2162306	156.3162187
31311	0.100002300000597	636	hunger	stimuli/foods\papaya.jpg	1	5	1	papaya	1	L	8	0	235	0		0	0	156.366221499999	156.4662238
31348.5	0.0999860000001718	637	hunger	stimuli/non_foods\non-food_animate_runner.jpg	1	5	1	non-food_animate_runner	0	R	12	0	142	0		0	0	156.5162369	156.6162229
31386	0.099988800000574	638	hunger	stimuli/foods\pasta_carbonara.jpg	1	5	1	pasta_carbonara	1	W	16	0	236	0		0	0	156.666235199999	156.766224
31423.5	0.0999856999997064	639	hunger	stimuli/non_foods\non-food_animate_bat.jpg	1	5	1	non-food_animate_bat	0	X	17	0	94	0		0	0	156.8162341	156.916219799999
31461	0.0999918999996225	640	hunger	stimuli/non_foods\non-food_inanimate_padlock.jpg	1	5	1	non-food_inanimate_padlock	0	K	7	0	199	0		0	0	156.9662287	157.0662206
31498.5	0.0999859000003198	641	hunger	stimuli/foods\dates.jpg	1	5	1	dates	1	W	16	0	43	0		0	0	157.116233199999	157.2162191
31536	0.0999956000005113	642	hunger	stimuli/non_foods\non-food_animate_skunk.jpg	1	5	1	non-food_animate_skunk	0	M	9	0	147	0		0	0	157.2662279	157.3662235
31573.5	0.0999870999994528	643	hunger	stimuli/foods\figs.jpg	1	5	1	figs	1	G	4	0	48	0		0	0	157.4162268	157.516213899999
31611	0.0999838999996427	644	hunger	stimuli/non_foods\non-food_inanimate_bed.jpg	1	5	1	non-food_inanimate_bed	0	K	7	0	160	0		0	0	157.5662292	157.666213099999
31648.5	0.0999880999997913	645	hunger	stimuli/non_foods\non-food_animate_fox.jpg	1	5	1	non-food_animate_fox	0	T	14	0	112	0		0	0	157.7162228	157.8162109
31686	0.0999969000004057	646	hunger	stimuli/foods\cereal.jpg	1	5	1	cereal	1	L	8	0	22	0		0	0	157.8662293	157.9662262
31723.5	0.0999320999999327	647	hunger	stimuli/foods\watermelon.jpg	1	5	1	watermelon	1	M	9	0	279	0		0	0	158.016272	158.1162041
31761	0.0999804999992193	648	hunger	stimuli/foods\beetroots.jpg	1	5	1	beetroots	1	W	16	0	10	0		0	0	158.1662144	158.266194899999
31798.5	0.0999867000000449	649	hunger	stimuli/foods\celery.jpg	1	5	1	celery	1	S	13	0	21	0		0	0	158.3162228	158.4162095
31836	0.0999840999993467	650	hunger	stimuli/non_foods\non-food_animate_polar_bear.jpg	1	5	1	non-food_animate_polar_bear	0	Z	18	0	137	0		0	0	158.4662213	158.566205399999
31873.5	0.0999885000001086	651	hunger	stimuli/non_foods\non-food_inanimate_tulip.jpg	1	5	1	non-food_inanimate_tulip	0	I	21	1	224	0		0	0	158.6162196	158.7162081
31911	0.0999806999998327	652	hunger	stimuli/non_foods\non-food_inanimate_gloves.jpg	1	5	1	non-food_inanimate_gloves	0	X	17	0	183	0		0	0	158.7662216	158.8662023
31948.5	0.0999796000005517	653	hunger	stimuli/non_foods\non-food_inanimate_tent.jpg	1	5	1	non-food_inanimate_tent	0	L	8	0	219	0		0	0	158.916216	159.0161956
31986	0.100003700000343	654	hunger	stimuli/non_foods\non-food_animate_peacock.jpg	1	5	1	non-food_animate_peacock	0	K	7	0	134	1	a	0.550158199999714	1	159.0661979	159.1662016
32023.5	0.0999816000003193	655	hunger	stimuli/foods\blackberry.jpg	1	5	1	blackberry	1	F	3	0	11	0		0	0	159.2162142	159.3161958
32061	0.0999909000001935	656	hunger	stimuli/foods\avocado.jpg	1	5	1	avocado	1	Z	18	0	5	0		0	0	159.366211099999	159.466202
32098.5	0.099984499999664	657	hunger	stimuli/foods\steak.jpg	1	5	1	steak	1	X	17	0	270	0		0	0	159.5162112	159.616195699999
32136	0.099985600000764	658	hunger	stimuli/foods\corncob.jpg	1	5	1	corncob	1	T	14	0	37	0		0	0	159.666208799999	159.7661944
32173.5	0.0999596999999994	659	hunger	stimuli/foods\risotto_with_zucchini.jpg	1	5	1	risotto_with_zucchini	1	F	3	0	260	0		0	0	159.816225	159.9161847
32211	0.0999879999999393	660	hunger	stimuli/non_foods\non-food_animate_lion.jpg	1	5	1	non-food_animate_lion	0	B	0	0	125	0		0	0	159.9661971	160.0661851
32248.5	0.0999890000002779	661	hunger	stimuli/non_foods\non-food_inanimate_waterlily.jpg	1	5	1	non-food_inanimate_waterlily	0	M	9	0	226	0		0	0	160.1161975	160.2161865
32286	0.0999862999997276	662	hunger	stimuli/foods\fruit_pie.jpg	1	5	1	fruit_pie	1	P	11	0	54	0		0	0	160.2661958	160.3661821
32323.5	0.0999847000002774	663	hunger	stimuli/foods\clams.jpg	1	5	1	clams	1	F	3	0	32	0		0	0	160.416195	160.5161797
32361	0.0999896000002991	664	hunger	stimuli/non_foods\non-food_animate_cow.jpg	1	5	1	non-food_animate_cow	0	J	6	0	103	0		0	0	160.5661912	160.6661808
32398.5	0.0999805999999808	665	hunger	stimuli/foods\frankfurter_and_provolone_salad.jpg	1	5	1	frankfurter_and_provolone_salad	1	H	5	0	49	0		0	0	160.7161952	160.8161758
32436	0.0999860000001718	666	hunger	stimuli/foods\pineapple.jpg	1	5	1	pineapple	1	M	9	0	243	0		0	0	160.8661901	160.9661761
32473.5	0.0999885999999606	667	hunger	stimuli/non_foods\non-food_inanimate_bush.jpg	1	5	1	non-food_inanimate_bush	0	Z	18	0	167	0		0	0	161.016188099999	161.116176699999
