onset	duration	eventnumber	hunger_condition	stimfilename	blockno	trialno	is_faststream	stim	food_idx	letter	letter_idx	istarget	image_number	response	keypressed	rt	correct	time_stimon	time_stimoff
18164.25	0.0999473999254405	0	hunger	stimuli/foods\garlic.jpg	1	1	1	garlic	1	B	0	0	56	0		0	0	106.229412199929	106.329359599855
18201.75	0.0999803999438882	1	hunger	stimuli/non_foods\non-food_inanimate_nest.jpg	1	1	1	non-food_inanimate_nest	0	Z	18	0	196	0		0	0	106.379402399994	106.479382799938
18239.25	0.0999857999850065	2	hunger	stimuli/foods\cabbage.jpg	1	1	1	cabbage	1	V	15	0	16	0		0	0	106.529398499988	106.629384299973
18276.75	0.0999841999728233	3	hunger	stimuli/non_foods\non-food_inanimate_ring.jpg	1	1	1	non-food_inanimate_ring	0	T	14	0	203	0		0	0	106.679393099854	106.779377299827
18314.25	0.0999861999880522	4	hunger	stimuli/foods\ice_cream.jpg	1	1	1	ice_cream	1	P	11	0	68	0		0	0	106.82939219987	106.929378399858
18351.75	0.0999716999940574	5	hunger	stimuli/foods\pancakes.jpg	1	1	1	pancakes	1	C	1	0	234	0		0	0	106.979396999814	107.079368699808
18389.25	0.0999298000242561	6	hunger	stimuli/non_foods\non-food_animate_yellow_bug.jpg	1	1	1	non-food_animate_yellow_bug	0	L	8	0	155	0		0	0	107.129435799783	107.229365599807
18426.75	0.0999822001904249	7	hunger	stimuli/foods\baked_cod_with_carrots_and_green_beans.jpg	1	1	1	baked_cod_with_carrots_and_green_beans	1	Z	18	0	7	0		0	0	107.279391399818	107.379373600008
18464.25	0.0999545000959188	8	hunger	stimuli/foods\honey.jpg	1	1	1	honey	1	B	0	0	66	0		0	0	107.42938729981	107.529341799906
18501.75	0.0999894998967648	9	hunger	stimuli/foods\croissant.jpg	1	1	1	croissant	1	W	16	0	40	0		0	0	107.579379200004	107.679368699901
18539.25	0.099972500000149	10	hunger	stimuli/non_foods\non-food_animate_porcupine.jpg	1	1	1	non-food_animate_porcupine	0	F	3	0	138	0		0	0	107.729383199941	107.829355699942
18576.75	0.0999845000915229	11	hunger	stimuli/non_foods\non-food_inanimate_hammer.jpg	1	1	1	non-food_inanimate_hammer	0	K	7	0	186	0		0	0	107.879376599798	107.97936109989
18614.25	0.100047399988398	12	hunger	stimuli/non_foods\non-food_animate_iguana.jpg	1	1	1	non-food_animate_iguana	0	O	22	1	121	0		0	0	108.029377199942	108.129424599931
18652	0.0997597000095993	13	hunger	stimuli/foods\apple.jpg	1	1	1	apple	1	J	6	0	1	0		0	0	108.179602999939	108.279362699948
18689.25	0.0999823999591172	14	hunger	stimuli/non_foods\non-food_animate_Asian_man.jpg	1	1	1	non-food_animate_Asian_man	0	X	17	0	88	0		0	0	108.329375499859	108.429357899819
18726.75	0.0999902000185102	15	hunger	stimuli/non_foods\non-food_animate_deer.jpg	1	1	1	non-food_animate_deer	0	K	7	0	105	1	a	0.541824299842119	1	108.479367899941	108.57935809996
18764.25	0.0999646000564098	16	hunger	stimuli/non_foods\non-food_inanimate_pine_cone.jpg	1	1	1	non-food_inanimate_pine_cone	0	S	13	0	200	0		0	0	108.62938739988	108.729351999937
18801.75	0.0999725998844951	17	hunger	stimuli/foods\lentils.jpg	1	1	1	lentils	1	F	3	0	74	0		0	0	108.779369900003	108.879342499888
18839.25	0.0999736997764558	18	hunger	stimuli/foods\cannoli.jpg	1	1	1	cannoli	1	S	13	0	17	0		0	0	108.929368400015	109.029342099791
18876.75	0.0999855000991374	19	hunger	stimuli/non_foods\non-food_animate_camel.jpg	1	1	1	non-food_animate_camel	0	T	14	0	97	0		0	0	109.079362799879	109.179348299978
18914.25	0.100034599890932	20	hunger	stimuli/foods\pumpkin.jpg	1	1	1	pumpkin	1	K	7	0	250	0		0	0	109.229359399993	109.329393999884
18951.75	0.0999929001554847	21	hunger	stimuli/foods\gnocchi.jpg	1	1	1	gnocchi	1	M	9	0	58	0		0	0	109.379352199845	109.479345100001
18989.25	0.0999892998952419	22	hunger	stimuli/foods\green_olives.jpg	1	1	1	green_olives	1	B	0	0	62	0		0	0	109.529355400009	109.629344699904
19026.75	0.0999877001158893	23	hunger	stimuli/non_foods\non-food_animate_monkey.jpg	1	1	1	non-food_animate_monkey	0	K	7	0	130	0		0	0	109.679356899811	109.779344599927
19064.25	0.0999873001128435	24	hunger	stimuli/foods\raw_sausage.jpg	1	1	1	raw_sausage	1	L	8	0	254	0		0	0	109.829353799811	109.929341099923
19101.75	0.0999815000686795	25	hunger	stimuli/non_foods\non-food_inanimate_toy_airplane.jpg	1	1	1	non-food_inanimate_toy_airplane	0	D	2	0	222	0		0	0	109.979356699856	110.079338199925
19139.25	0.0999827000778168	26	hunger	stimuli/foods\ginger_root.jpg	1	1	1	ginger_root	1	X	17	0	57	0		0	0	110.129351399839	110.229334099917
19176.75	0.0999880998861045	27	hunger	stimuli/non_foods\non-food_animate_penguin.jpg	1	1	1	non-food_animate_penguin	0	P	11	0	135	0		0	0	110.279346199939	110.379334299825
19214.25	0.0999751000199467	28	hunger	stimuli/non_foods\non-food_inanimate_gloves.jpg	1	1	1	non-food_inanimate_gloves	0	T	14	0	183	0		0	0	110.429357799934	110.529332899954
19251.75	0.0999702999833971	29	hunger	stimuli/non_foods\non-food_animate_lion.jpg	1	1	1	non-food_animate_lion	0	M	9	0	125	0		0	0	110.579344299855	110.679314599838
19289.25	0.099983099848032	30	hunger	stimuli/foods\egg.jpg	1	1	1	egg	1	K	7	0	45	0		0	0	110.729346100008	110.829329199856
19326.75	0.0999954000581056	31	hunger	stimuli/non_foods\non-food_animate_giraffe.jpg	1	1	1	non-food_animate_giraffe	0	F	3	0	115	0		0	0	110.879341699881	110.97933709994
19364.25	0.0999685998540372	32	hunger	stimuli/foods\papaya.jpg	1	1	1	papaya	1	R	12	0	235	0		0	0	111.029347199947	111.129315799801
19401.75	0.0999652999453247	33	hunger	stimuli/foods\risotto_with_peas_and_asparagus_tips.jpg	1	1	1	risotto_with_peas_and_asparagus_tips	1	Z	18	0	259	0		0	0	111.179349799873	111.279315099819
19439.25	0.0999992000870407	34	hunger	stimuli/non_foods\non-food_inanimate_guitar.jpg	1	1	1	non-food_inanimate_guitar	0	X	17	0	185	0		0	0	111.329320899909	111.429320099996
19476.75	0.0999875999987125	35	hunger	stimuli/non_foods\non-food_animate_squirrel.jpg	1	1	1	non-food_animate_squirrel	0	T	14	0	150	0		0	0	111.479330600007	111.579318200005
19514.25	0.0999676999635994	36	hunger	stimuli/non_foods\non-food_animate_woman.jpg	1	1	1	non-food_animate_woman	0	C	1	0	154	0		0	0	111.62935069995	111.729318399914
19551.75	0.0999716001097113	37	hunger	stimuli/non_foods\non-food_animate_rhino.jpg	1	1	1	non-food_animate_rhino	0	M	9	0	141	0		0	0	111.779341399902	111.879313000012
19589.25	0.0999875001143664	38	hunger	stimuli/non_foods\non-food_inanimate_broom.jpg	1	1	1	non-food_inanimate_broom	0	X	17	0	164	0		0	0	111.929328699829	112.029316199943
19626.75	0.0999616000335664	39	hunger	stimuli/non_foods\non-food_inanimate_cactus_pot_plant.jpg	1	1	1	non-food_inanimate_cactus_pot_plant	0	I	21	1	169	0		0	0	112.079329399858	112.179290999891
19664.25	0.0999622000381351	40	hunger	stimuli/non_foods\non-food_inanimate_bowling_ball.jpg	1	1	1	non-food_inanimate_bowling_ball	0	H	5	0	162	0		0	0	112.229340299964	112.329302500002
19701.75	0.0999898000154644	41	hunger	stimuli/foods\spring_onions.jpg	1	1	1	spring_onions	1	T	14	0	269	0		0	0	112.379317199811	112.479306999827
19739.25	0.0999760001432151	42	hunger	stimuli/foods\coconut.jpg	1	1	1	coconut	1	C	1	0	33	0		0	0	112.529330999823	112.629306999967
19776.75	0.0999866998754442	43	hunger	stimuli/foods\museli_bars.jpg	1	1	1	museli_bars	1	V	15	0	84	1	a	0.600189000135288	1	112.679319699993	112.779306399869
19814.25	0.100007899804041	44	hunger	stimuli/non_foods\non-food_animate_baby_sitting.jpg	1	1	1	non-food_animate_baby_sitting	0	B	0	0	93	0		0	0	112.829319200013	112.929327099817
19851.75	0.0999499000608921	45	hunger	stimuli/foods\hazelnuts.jpg	1	1	1	hazelnuts	1	K	7	0	65	0		0	0	112.979349499801	113.079299399862
19889.25	0.0999879001174122	46	hunger	stimuli/foods\asparagus.jpg	1	1	1	asparagus	1	J	6	0	4	0		0	0	113.129312699893	113.229300600011
19926.75	0.0999810001812875	47	hunger	stimuli/foods\eggplant.jpg	1	1	1	eggplant	1	F	3	0	46	0		0	0	113.279312099796	113.379293099977
19964.25	0.0999695998616517	48	hunger	stimuli/non_foods\non-food_animate_raccoon.jpg	1	1	1	non-food_animate_raccoon	0	J	6	0	139	0		0	0	113.429310299922	113.529279899783
20001.75	0.0999829999636859	49	hunger	stimuli/foods\donut.jpg	1	1	1	donut	1	V	15	0	44	0		0	0	113.579283799976	113.67926679994
20039.25	0.0999805999454111	50	hunger	stimuli/non_foods\non-food_animate_polar_bear.jpg	1	1	1	non-food_animate_polar_bear	0	T	14	0	137	0		0	0	113.729300499894	113.829281099839
20076.75	0.0999828998465091	51	hunger	stimuli/non_foods\non-food_animate_caterpillar.jpg	1	1	1	non-food_animate_caterpillar	0	W	16	0	99	0		0	0	113.879289899953	113.979272799799
20114.25	0.100012199953198	52	hunger	stimuli/non_foods\non-food_inanimate_briefcase.jpg	1	1	1	non-food_inanimate_briefcase	0	V	15	0	163	0		0	0	114.029275399866	114.129287599819
20151.75	0.0999941998161376	53	hunger	stimuli/foods\grapefruits.jpg	1	1	1	grapefruits	1	M	9	0	59	0		0	0	114.179302799981	114.279296999797
20189.25	0.0999840998556465	54	hunger	stimuli/foods\cauliflower.jpg	1	1	1	cauliflower	1	X	17	0	20	0		0	0	114.329301099991	114.429285199847
20226.75	0.0999873999971896	55	hunger	stimuli/non_foods\non-food_inanimate_scissors.jpg	1	1	1	non-food_inanimate_scissors	0	D	2	0	205	0		0	0	114.47929519997	114.579282599967
20264.25	0.10000710003078	56	hunger	stimuli/non_foods\non-food_inanimate_bed.jpg	1	1	1	non-food_inanimate_bed	0	B	0	0	160	0		0	0	114.629293899983	114.729301000014
20301.75	0.0999706001020968	57	hunger	stimuli/foods\blackberry.jpg	1	1	1	blackberry	1	V	15	0	11	0		0	0	114.779282899806	114.879253499908
20339.25	0.0999789999332279	58	hunger	stimuli/foods\lettuce.jpg	1	1	1	lettuce	1	J	6	0	75	0		0	0	114.929285699967	115.029264699901
20376.75	0.0999753000214696	59	hunger	stimuli/non_foods\non-food_animate_peacock.jpg	1	1	1	non-food_animate_peacock	0	B	0	0	134	0		0	0	115.079291399801	115.179266699823
20414.25	0.0999831000808626	60	hunger	stimuli/non_foods\non-food_inanimate_toilet.jpg	1	1	1	non-food_inanimate_toilet	0	V	15	0	220	0		0	0	115.229280999862	115.329264099943
20451.75	0.0999771000351757	61	hunger	stimuli/non_foods\non-food_animate_seal.jpg	1	1	1	non-food_animate_seal	0	X	17	0	146	0		0	0	115.379277799977	115.479254900012
20489.25	0.100003799889237	62	hunger	stimuli/foods\toasted_bread_with_tomatoes.jpg	1	1	1	toasted_bread_with_tomatoes	1	J	6	0	275	0		0	0	115.529264200013	115.629267999902
20526.75	0.100003300001845	63	hunger	stimuli/foods\brownie.jpg	1	1	1	brownie	1	D	2	0	14	0		0	0	115.679281099932	115.779284399934
20564.25	0.0999785999301821	64	hunger	stimuli/non_foods\non-food_animate_baby_crawling.jpg	1	1	1	non-food_animate_baby_crawling	0	P	11	0	92	0		0	0	115.829287800007	115.929266399937
20601.75	0.0999819999560714	65	hunger	stimuli/foods\waffle.jpg	1	1	1	waffle	1	J	6	0	278	0		0	0	115.979277999839	116.079259999795
20639.25	0.100006900029257	66	hunger	stimuli/foods\lasagna.jpg	1	1	1	lasagna	1	A	19	1	71	0		0	0	116.129256099928	116.229262999957
20676.75	0.0999944000504911	67	hunger	stimuli/non_foods\non-food_inanimate_speakers.jpg	1	1	1	non-food_inanimate_speakers	0	Z	18	0	212	0		0	0	116.279266199796	116.379260599846
20714.25	0.0999942999333143	68	hunger	stimuli/foods\cupcake.jpg	1	1	1	cupcake	1	P	11	0	42	1	a	0.391831399872899	1	116.429263799917	116.52925809985
20751.75	0.0999652000609785	69	hunger	stimuli/foods\beetroots.jpg	1	1	1	beetroots	1	D	2	0	10	0		0	0	116.579290299909	116.67925549997
20789.25	0.0999832998495549	70	hunger	stimuli/foods\cooked_ham.jpg	1	1	1	cooked_ham	1	J	6	0	35	0		0	0	116.729267999995	116.829251299845
20826.75	0.099985099863261	71	hunger	stimuli/foods\prawn.jpg	1	1	1	prawn	1	L	8	0	249	0		0	0	116.879265700001	116.979250799865
20864.25	0.0999829999636859	72	hunger	stimuli/foods\cracker.jpg	1	1	1	cracker	1	S	13	0	38	0		0	0	117.029264499899	117.129247499863
20901.75	0.0999831000808626	73	hunger	stimuli/non_foods\non-food_animate_tortoise.jpg	1	1	1	non-food_animate_tortoise	0	B	0	0	153	0		0	0	117.179262099788	117.279245199868
20939.25	0.0999857001006603	74	hunger	stimuli/foods\raisins.jpg	1	1	1	raisins	1	D	2	0	252	0		0	0	117.329260999803	117.429246699903
20976.75	0.0999576000031084	75	hunger	stimuli/non_foods\non-food_animate_seahorse.jpg	1	1	1	non-food_animate_seahorse	0	T	14	0	145	0		0	0	117.479257399915	117.579214999918
21014.25	0.0999936999287456	76	hunger	stimuli/non_foods\non-food_animate_dragonfly.jpg	1	1	1	non-food_animate_dragonfly	0	C	1	0	108	0		0	0	117.629251000006	117.729244699934
21051.75	0.100001099985093	77	hunger	stimuli/foods\chocolate_pudding.jpg	1	1	1	chocolate_pudding	1	N	10	0	29	0		0	0	117.779240399832	117.879241499817
21089.25	0.099986300105229	78	hunger	stimuli/foods\steak.jpg	1	1	1	steak	1	J	6	0	270	0		0	0	117.929250799818	118.029237099923
21126.75	0.0999886998906732	79	hunger	stimuli/non_foods\non-food_inanimate_nailpolish.jpg	1	1	1	non-food_inanimate_nailpolish	0	S	13	0	195	0		0	0	118.079249399947	118.179238099838
21164.25	0.0999529999680817	80	hunger	stimuli/non_foods\non-food_inanimate_towel.jpg	1	1	1	non-food_inanimate_towel	0	R	12	0	221	0		0	0	118.229272899916	118.329225899884
21201.75	0.0999811000656337	81	hunger	stimuli/non_foods\non-food_animate_elephant.jpg	1	1	1	non-food_animate_elephant	0	H	5	0	111	0		0	0	118.379248899873	118.479229999939
21239.25	0.099984799977392	82	hunger	stimuli/non_foods\non-food_inanimate_skirt.jpg	1	1	1	non-food_inanimate_skirt	0	F	3	0	209	0		0	0	118.529245699989	118.629230499966
21276.75	0.0999610000289977	83	hunger	stimuli/non_foods\non-food_animate_bat.jpg	1	1	1	non-food_animate_bat	0	S	13	0	94	0		0	0	118.679241499864	118.779202499893
21314.25	0.0999954000581056	84	hunger	stimuli/non_foods\non-food_inanimate_desk.jpg	1	1	1	non-food_inanimate_desk	0	J	6	0	178	0		0	0	118.829232899938	118.929228299996
21351.75	0.0999972999561578	85	hunger	stimuli/non_foods\non-food_inanimate_orchid.jpg	1	1	1	non-food_inanimate_orchid	0	K	7	0	198	0		0	0	118.979225999909	119.079223299865
21389.25	0.0999791000504047	86	hunger	stimuli/foods\chocolate_pralines.jpg	1	1	1	chocolate_pralines	1	G	4	0	28	0		0	0	119.12923979992	119.229218899971
21426.75	0.100005999905989	87	hunger	stimuli/non_foods\non-food_animate_duck.jpg	1	1	1	non-food_animate_duck	0	S	13	0	109	0		0	0	119.279233499896	119.379239499802
21464.25	0.0999861999880522	88	hunger	stimuli/non_foods\non-food_inanimate_cupboard.jpg	1	1	1	non-food_inanimate_cupboard	0	V	15	0	177	0		0	0	119.429232799914	119.529218999902
21501.75	0.0999968000687659	89	hunger	stimuli/foods\mango.jpg	1	1	1	mango	1	G	4	0	80	0		0	0	119.579232099932	119.6792289
21539.25	0.0999853999819607	90	hunger	stimuli/non_foods\non-food_animate_hummingbird.jpg	1	1	1	non-food_animate_hummingbird	0	T	14	0	120	0		0	0	119.72923279996	119.829218199942
21576.75	0.0999728001188487	91	hunger	stimuli/foods\celery.jpg	1	1	1	celery	1	B	0	0	21	0		0	0	119.879222799791	119.97919559991
21614.25	0.0999950999394059	92	hunger	stimuli/foods\taco.jpg	1	1	1	taco	1	M	9	0	274	0		0	0	120.029232099885	120.129227199825
21651.75	0.0999825000762939	93	hunger	stimuli/non_foods\non-food_animate_fox.jpg	1	1	1	non-food_animate_fox	0	V	15	0	112	0		0	0	120.179218099918	120.279200599995
21689.25	0.0999857999850065	94	hunger	stimuli/foods\coffee_beans.jpg	1	1	1	coffee_beans	1	X	17	0	34	0		0	0	120.329214199912	120.429199999897
21726.75	0.0999733000062406	95	hunger	stimuli/foods\cream_donuts.jpg	1	1	1	cream_donuts	1	J	6	0	39	0		0	0	120.479224799899	120.579198099906
21764.25	0.0999851999804378	96	hunger	stimuli/non_foods\non-food_inanimate_highlighter.jpg	1	1	1	non-food_inanimate_highlighter	0	M	9	0	189	0		0	0	120.629211099818	120.729196299799
21801.75	0.0999813000671566	97	hunger	stimuli/foods\chocolate_chip_cookies.jpg	1	1	1	chocolate_chip_cookies	1	D	2	0	27	0		0	0	120.779221699806	120.879202999873
21839.25	0.0999550998676568	98	hunger	stimuli/non_foods\non-food_inanimate_nettle.jpg	1	1	1	non-food_inanimate_nettle	0	L	8	0	197	0		0	0	120.929213399999	121.029168499867
21876.75	0.0999894000124186	99	hunger	stimuli/foods\cinnamon_sroll.jpg	1	1	1	cinnamon_sroll	1	T	14	0	31	0		0	0	121.079193999991	121.179183400003
21914.25	0.099978799931705	100	hunger	stimuli/non_foods\non-food_inanimate_shell.jpg	1	1	1	non-food_inanimate_shell	0	S	13	0	206	0		0	0	121.229193300009	121.32917209994
21951.75	0.0999843999743462	101	hunger	stimuli/non_foods\non-food_animate_Causasian_man.jpg	1	1	1	non-food_animate_Causasian_man	0	Z	18	0	89	0		0	0	121.379199199844	121.479183599818
21989.25	0.0999944999348372	102	hunger	stimuli/foods\pomegranate.jpg	1	1	1	pomegranate	1	T	14	0	244	0		0	0	121.529201400001	121.629195899935
22026.75	0.100008599925786	103	hunger	stimuli/non_foods\non-food_animate_chicken.jpg	1	1	1	non-food_animate_chicken	0	J	6	0	101	0		0	0	121.679195599863	121.779204199789
22064.25	0.0999628999270499	104	hunger	stimuli/foods\omelette.jpg	1	1	1	omelette	1	K	7	0	228	0		0	0	121.829219399951	121.929182299878
22101.75	0.0999880000017583	105	hunger	stimuli/non_foods\non-food_inanimate_fire_extinguisher.jpg	1	1	1	non-food_inanimate_fire_extinguisher	0	P	11	0	181	0		0	0	121.979193199892	122.079181199893
22139.25	0.0999848998617381	106	hunger	stimuli/foods\potatoes.jpg	1	1	1	potatoes	1	L	8	0	248	0		0	0	122.129190000007	122.229174899869
22176.75	0.0999898998998106	107	hunger	stimuli/foods\rice.jpg	1	1	1	rice	1	C	1	0	257	0		0	0	122.27918730001	122.379177199909
22214.25	0.0999829000793397	108	hunger	stimuli/non_foods\non-food_inanimate_lighter.jpg	1	1	1	non-food_inanimate_lighter	0	K	7	0	193	0		0	0	122.429195599863	122.529178499943
22251.75	0.0999902000185102	109	hunger	stimuli/non_foods\non-food_animate_millipede.jpg	1	1	1	non-food_animate_millipede	0	Z	18	0	129	0		0	0	122.579188899836	122.679179099854
22289.25	0.099996300181374	110	hunger	stimuli/foods\mussels.jpg	1	1	1	mussels	1	H	5	0	86	0		0	0	122.729182799812	122.829179099994
22326.75	0.099959900137037	111	hunger	stimuli/non_foods\non-food_inanimate_folding_chair.jpg	1	1	1	non-food_inanimate_folding_chair	0	R	12	0	182	0		0	0	122.879212899832	122.979172799969
22364.25	0.0999910000246018	112	hunger	stimuli/foods\hotdog.jpg	1	1	1	hotdog	1	F	3	0	67	0		0	0	123.029184599873	123.129175599897
22401.75	0.0999841000884771	113	hunger	stimuli/non_foods\non-food_inanimate_suitcase.jpg	1	1	1	non-food_inanimate_suitcase	0	T	14	0	215	0		0	0	123.179188399808	123.279172499897
22439.25	0.0999882998876274	114	hunger	stimuli/non_foods\non-food_animate_lizard.jpg	1	1	1	non-food_animate_lizard	0	P	11	0	126	0		0	0	123.32917729998	123.429165599868
22476.75	0.100034900009632	115	hunger	stimuli/non_foods\non-food_animate_frog.jpg	1	1	1	non-food_animate_frog	0	U	23	1	113	0		0	0	123.479180399794	123.579215299804
22514.25	0.0999590000137687	116	hunger	stimuli/non_foods\non-food_inanimate_stoplight.jpg	1	1	1	non-food_inanimate_stoplight	0	N	10	0	214	0		0	0	123.629204399884	123.729163399898
22551.75	0.100028999848291	117	hunger	stimuli/foods\frankfurter_and_provolone_salad.jpg	1	1	1	frankfurter_and_provolone_salad	1	H	5	0	49	1	a	0.391794900177047	1	123.779153499985	123.879182499833
22589.25	0.0999759999103844	118	hunger	stimuli/foods\mushroom.jpg	1	1	1	mushroom	1	B	0	0	85	0		0	0	123.929179399973	124.029155399883
22626.75	0.0999804001767188	119	hunger	stimuli/non_foods\non-food_inanimate_drum_set.jpg	1	1	1	non-food_inanimate_drum_set	0	Z	18	0	179	0		0	0	124.079172599828	124.179153000005
22664.25	0.0999800998251885	120	hunger	stimuli/non_foods\non-food_animate_llama.jpg	1	1	1	non-food_animate_llama	0	G	4	0	127	0		0	0	124.22917159996	124.329151699785
22701.75	0.0999849999789149	121	hunger	stimuli/foods\fruit_pie.jpg	1	1	1	fruit_pie	1	T	14	0	54	0		0	0	124.379162499914	124.479147499893
22739.25	0.0999889001250267	122	hunger	stimuli/foods\kiwi.jpg	1	1	1	kiwi	1	F	3	0	69	0		0	0	124.52915849979	124.629147399915
22776.75	0.0999708001036197	123	hunger	stimuli/non_foods\non-food_inanimate_cap.jpg	1	1	1	non-food_inanimate_cap	0	B	0	0	171	0		0	0	124.679162999848	124.779133799952
22814.25	0.100013199960813	124	hunger	stimuli/foods\salmon.jpg	1	1	1	salmon	1	Z	18	0	264	0		0	0	124.829136000015	124.929149199976
22851.75	0.0999956000596285	125	hunger	stimuli/non_foods\non-food_inanimate_bamboo.jpg	1	1	1	non-food_inanimate_bamboo	0	T	14	0	159	0		0	0	124.97915719985	125.07915279991
22889.25	0.0999857999850065	126	hunger	stimuli/foods\spaghetti_with_meat_sauce.jpg	1	1	1	spaghetti_with_meat_sauce	1	N	10	0	267	0		0	0	125.129160400014	125.229146199999
22926.75	0.100013100076467	127	hunger	stimuli/foods\cinnamon.jpg	1	1	1	cinnamon	1	D	2	0	30	0		0	0	125.2791749998	125.379188099876
22964.25	0.0999714999925345	128	hunger	stimuli/non_foods\non-food_inanimate_clover.jpg	1	1	1	non-food_inanimate_clover	0	W	16	0	174	0		0	0	125.429172899807	125.529144399799
23001.75	0.0999855000991374	129	hunger	stimuli/non_foods\non-food_inanimate_construction_helment.jpg	1	1	1	non-food_inanimate_construction_helment	0	G	4	0	175	0		0	0	125.579153599916	125.679139100015
23039.25	0.0999800998251885	130	hunger	stimuli/non_foods\non-food_inanimate_fern.jpg	1	1	1	non-food_inanimate_fern	0	R	12	0	180	0		0	0	125.729156499961	125.829136599787
23076.75	0.0999855999834836	131	hunger	stimuli/non_foods\non-food_animate_slug.jpg	1	1	1	non-food_animate_slug	0	B	0	0	148	0		0	0	125.879151399946	125.979136999929
23114.25	0.0999837999697775	132	hunger	stimuli/foods\lime.jpg	1	1	1	lime	1	D	2	0	76	0		0	0	126.029149499955	126.129133299924
23151.75	0.0999898998998106	133	hunger	stimuli/non_foods\non-food_animate_cow.jpg	1	1	1	non-food_animate_cow	0	R	12	0	103	0		0	0	126.179144599941	126.27913449984
23189.25	0.0999843999743462	134	hunger	stimuli/non_foods\non-food_animate_runner.jpg	1	1	1	non-food_animate_runner	0	W	16	0	142	0		0	0	126.329146599863	126.429130999837
23226.75	0.100006199907511	135	hunger	stimuli/foods\capsicum.jpg	1	1	1	capsicum	1	L	8	0	18	0		0	0	126.479145699879	126.579151899787
23264.25	0.0999835000839084	136	hunger	stimuli/non_foods\non-food_inanimate_rope.jpg	1	1	1	non-food_inanimate_rope	0	V	15	0	204	0		0	0	126.629141999874	126.729125499958
23301.75	0.0999884998891503	137	hunger	stimuli/non_foods\non-food_inanimate_skateboard.jpg	1	1	1	non-food_inanimate_skateboard	0	N	10	0	208	0		0	0	126.779133399948	126.879121899838
23339.25	0.0999840998556465	138	hunger	stimuli/foods\artichoke.jpg	1	1	1	artichoke	1	Z	18	0	3	0		0	0	126.929138900014	127.029122999869
23376.75	0.0999761000275612	139	hunger	stimuli/foods\lollies.jpg	1	1	1	lollies	1	S	13	0	78	0		0	0	127.079142099945	127.179118199972
25764.25	0.0999777999240905	140	hunger	stimuli/foods\pork_and_rice.jpg	1	2	1	pork_and_rice	1	D	2	0	245	0		0	0	136.629022900015	136.729000699939
25801.75	0.0999928000383079	141	hunger	stimuli/non_foods\non-food_inanimate_bicycle.jpg	1	2	1	non-food_inanimate_bicycle	0	Z	18	0	161	0		0	0	136.779014299856	136.879007099895
25839.25	0.0999819999560714	142	hunger	stimuli/foods\cereal.jpg	1	2	1	cereal	1	V	15	0	22	0		0	0	136.929012199864	137.02899419982
25876.75	0.0999981998465955	143	hunger	stimuli/non_foods\non-food_animate_german_shepherd.jpg	1	2	1	non-food_animate_german_shepherd	0	K	7	0	114	0		0	0	137.079008399975	137.179006599821
25914.25	0.0999386999756098	144	hunger	stimuli/foods\carrot.jpg	1	2	1	carrot	1	D	2	0	19	0		0	0	137.229053599993	137.328992299968
25951.75	0.0999829999636859	145	hunger	stimuli/non_foods\non-food_inanimate_socks.jpg	1	2	1	non-food_inanimate_socks	0	P	11	0	211	0		0	0	137.379004999995	137.478987999959
25989.25	0.0999746001325548	146	hunger	stimuli/non_foods\non-food_animate_pigeon.jpg	1	2	1	non-food_animate_pigeon	0	F	3	0	136	0		0	0	137.528992799809	137.628967399942
26026.75	0.0999841999728233	147	hunger	stimuli/foods\fries.jpg	1	2	1	fries	1	D	2	0	52	0		0	0	137.679005099926	137.778989299899
26064.25	0.0999936000443995	148	hunger	stimuli/foods\swordfish.jpg	1	2	1	swordfish	1	P	11	0	273	0		0	0	137.828988399822	137.928981999867
26101.75	0.0999859999865294	149	hunger	stimuli/non_foods\non-food_animate_gorilla.jpg	1	2	1	non-food_animate_gorilla	0	T	14	0	116	0		0	0	137.978998399805	138.078984399792
26139.25	0.0999875001143664	150	hunger	stimuli/foods\oven-roasted_tomatoes.jpg	1	2	1	oven-roasted_tomatoes	1	H	5	0	232	0		0	0	138.12899589981	138.228983399924
26176.75	0.099972500000149	151	hunger	stimuli/foods\potato_and_green_bean_salad.jpg	1	2	1	potato_and_green_bean_salad	1	P	11	0	246	0		0	0	138.279006799916	138.378979299916
26214.25	0.0999994999729097	152	hunger	stimuli/foods\corncob.jpg	1	2	1	corncob	1	R	12	0	37	0		0	0	138.428993699839	138.528993199812
26251.75	0.0999860998708755	153	hunger	stimuli/non_foods\non-food_inanimate_stapler.jpg	1	2	1	non-food_inanimate_stapler	0	C	1	0	213	0		0	0	138.578977799974	138.678963899845
26289.25	0.0999825000762939	154	hunger	stimuli/non_foods\non-food_animate_swan.jpg	1	2	1	non-food_animate_swan	0	N	10	0	152	0		0	0	138.728982799919	138.828965299996
26326.75	0.099988600006327	155	hunger	stimuli/non_foods\non-food_animate_alligator.jpg	1	2	1	non-food_animate_alligator	0	F	3	0	90	0		0	0	138.878989699995	138.978978300001
26364.25	0.0999622999224812	156	hunger	stimuli/non_foods\non-food_animate_butterfly.jpg	1	2	1	non-food_animate_butterfly	0	X	17	0	96	0		0	0	139.02900859993	139.128970899852
26401.75	0.0999833999667317	157	hunger	stimuli/foods\red_beans.jpg	1	2	1	red_beans	1	D	2	0	255	0		0	0	139.178976399824	139.278959799791
26439.25	0.0999853999819607	158	hunger	stimuli/non_foods\non-food_inanimate_buds.jpg	1	2	1	non-food_inanimate_buds	0	F	3	0	166	0		0	0	139.328973799944	139.428959199926
26476.75	0.0999861001037061	159	hunger	stimuli/foods\watermelon.jpg	1	2	1	watermelon	1	C	1	0	279	0		0	0	139.478971799836	139.578957899939
26514.25	0.0999843999743462	160	hunger	stimuli/non_foods\non-food_inanimate_jeans.jpg	1	2	1	non-food_inanimate_jeans	0	W	16	0	191	0		0	0	139.628972699866	139.72895709984
26551.75	0.0999851000960916	161	hunger	stimuli/foods\spinach.jpg	1	2	1	spinach	1	X	17	0	268	0		0	0	139.778968999861	139.878954099957
26589.25	0.0999845999758691	162	hunger	stimuli/foods\peach.jpg	1	2	1	peach	1	V	15	0	238	0		0	0	139.928974999813	140.028959599789
26626.75	0.0999696999788284	163	hunger	stimuli/non_foods\non-food_animate_owl.jpg	1	2	1	non-food_animate_owl	0	J	6	0	132	0		0	0	140.078987499932	140.178957199911
26664.25	0.0999866998754442	164	hunger	stimuli/foods\mandarin.jpg	1	2	1	mandarin	1	V	15	0	79	0		0	0	140.228969699936	140.328956399811
26701.75	0.0999846998602152	165	hunger	stimuli/non_foods\non-food_animate_dachshund.jpg	1	2	1	non-food_animate_dachshund	0	M	9	0	104	0		0	0	140.378969599959	140.478954299819
26739.25	0.0999841999728233	166	hunger	stimuli/non_foods\non-food_inanimate_table.jpg	1	2	1	non-food_inanimate_table	0	G	4	0	217	0		0	0	140.528966899961	140.628951099934
26776.75	0.0999960000626743	167	hunger	stimuli/foods\meatballs.jpg	1	2	1	meatballs	1	T	14	0	81	0		0	0	140.678970499896	140.778966499958
26814.25	0.099966699955985	168	hunger	stimuli/foods\avocado.jpg	1	2	1	avocado	1	L	8	0	5	0		0	0	140.828978499863	140.928945199819
26851.75	0.100001400103793	169	hunger	stimuli/foods\pear.jpg	1	2	1	pear	1	U	23	1	239	0		0	0	140.978959899861	141.078961299965
26889.25	0.0999926999211311	170	hunger	stimuli/foods\fennel.jpg	1	2	1	fennel	1	D	2	0	47	0		0	0	141.128959900001	141.228952599922
26926.75	0.100013999966905	171	hunger	stimuli/non_foods\non-food_animate_student_female.jpg	1	2	1	non-food_animate_student_female	0	X	17	0	151	1	a	0.391803100006655	1	141.278931699926	141.378945699893
26964.25	0.100027899956331	172	hunger	stimuli/non_foods\non-food_animate_cat.jpg	1	2	1	non-food_animate_cat	0	K	7	0	98	0		0	0	141.428930899827	141.528958799783
27001.75	0.0999985001981258	173	hunger	stimuli/non_foods\non-food_animate_clown.jpg	1	2	1	non-food_animate_clown	0	N	10	0	102	0		0	0	141.578938499792	141.67893699999
27039.25	0.0999851999804378	174	hunger	stimuli/foods\stew_with_potatoes_and_carrots.jpg	1	2	1	stew_with_potatoes_and_carrots	1	D	2	0	271	0		0	0	141.728950799908	141.828935999889
27076.75	0.0999708999879658	175	hunger	stimuli/non_foods\non-food_inanimate_moss.jpg	1	2	1	non-food_inanimate_moss	0	N	10	0	194	0		0	0	141.878967599943	141.978938499931
27114.25	0.0999888000078499	176	hunger	stimuli/foods\apricot.jpg	1	2	1	apricot	1	D	2	0	2	0		0	0	142.028945499798	142.128934299806
27151.75	0.099988600006327	177	hunger	stimuli/non_foods\non-food_animate_ladybug.jpg	1	2	1	non-food_animate_ladybug	0	S	13	0	124	0		0	0	142.178944599815	142.278933199821
27189.25	0.0999803999438882	178	hunger	stimuli/foods\pasta_carbonara.jpg	1	2	1	pasta_carbonara	1	M	9	0	236	0		0	0	142.328945199959	142.428925599903
27226.75	0.100023899925873	179	hunger	stimuli/foods\fried_calamari.jpg	1	2	1	fried_calamari	1	T	14	0	50	0		0	0	142.478947599884	142.57897149981
27264.25	0.0999501999467611	180	hunger	stimuli/foods\cherry.jpg	1	2	1	cherry	1	F	3	0	23	0		0	0	142.628974599997	142.728924799943
27301.75	0.0999861001037061	181	hunger	stimuli/non_foods\non-food_animate_donkey.jpg	1	2	1	non-food_animate_donkey	0	J	6	0	107	0		0	0	142.778934999835	142.878921099938
27339.25	0.0999878000002354	182	hunger	stimuli/non_foods\non-food_inanimate_leaf.jpg	1	2	1	non-food_inanimate_leaf	0	R	12	0	192	0		0	0	142.928933299845	143.028921099845
27376.75	0.0999845000915229	183	hunger	stimuli/foods\risotto_with_zucchini.jpg	1	2	1	risotto_with_zucchini	1	T	14	0	260	0		0	0	143.078934999881	143.178919499973
27414.25	0.0999854998663068	184	hunger	stimuli/non_foods\non-food_animate_kangaroo.jpg	1	2	1	non-food_animate_kangaroo	0	D	2	0	122	0		0	0	143.228932800004	143.328918299871
27451.75	0.0999843999743462	185	hunger	stimuli/foods\rockmelon.jpg	1	2	1	rockmelon	1	P	11	0	262	0		0	0	143.378930799896	143.47891519987
27489.25	0.0999821000732481	186	hunger	stimuli/foods\minestrone_soup.jpg	1	2	1	minestrone_soup	1	J	6	0	82	0		0	0	143.52893089992	143.628912999993
27526.75	0.0999588000122458	187	hunger	stimuli/non_foods\non-food_inanimate_grass.jpg	1	2	1	non-food_inanimate_grass	0	R	12	0	184	0		0	0	143.67895059986	143.778909399873
27564.25	0.0999846998602152	188	hunger	stimuli/foods\lemon.jpg	1	2	1	lemon	1	F	3	0	72	0		0	0	143.828925699927	143.928910399787
27601.75	0.0999846998602152	189	hunger	stimuli/non_foods\non-food_inanimate_tulip.jpg	1	2	1	non-food_inanimate_tulip	0	V	15	0	224	0		0	0	143.978922599927	144.078907299787
27639.25	0.100003600120544	190	hunger	stimuli/foods\chilli.jpg	1	2	1	chilli	1	N	10	0	25	0		0	0	144.128920199815	144.228923799936
27676.75	0.10000989981927	191	hunger	stimuli/foods\pepperoni_pizza.jpg	1	2	1	pepperoni_pizza	1	F	3	0	241	0		0	0	144.278910499997	144.378920399817
27714.25	0.0999349998310208	192	hunger	stimuli/non_foods\non-food_inanimate_padlock.jpg	1	2	1	non-food_inanimate_padlock	0	W	16	0	199	0		0	0	144.428940400016	144.528875399847
27751.75	0.0999882000032812	193	hunger	stimuli/foods\chestnut.jpg	1	2	1	chestnut	1	N	10	0	24	0		0	0	144.57891339995	144.678901599953
27789.25	0.0999825000762939	194	hunger	stimuli/foods\banana.jpg	1	2	1	banana	1	C	1	0	9	0		0	0	144.728914799867	144.828897299943
27826.75	0.0999841000884771	195	hunger	stimuli/foods\pea_pod.jpg	1	2	1	pea_pod	1	V	15	0	237	0		0	0	144.878911899868	144.978895999957
27864.25	0.0999873999971896	196	hunger	stimuli/non_foods\non-food_inanimate_horn.jpg	1	2	1	non-food_inanimate_horn	0	C	1	0	190	0		0	0	145.028908899985	145.128896299982
27901.75	0.0999859001021832	197	hunger	stimuli/non_foods\non-food_animate_young_girl.jpg	1	2	1	non-food_animate_young_girl	0	L	8	0	157	0		0	0	145.178906899877	145.278892799979
27939.25	0.10001610009931	198	hunger	stimuli/non_foods\non-food_animate_skunk.jpg	1	2	1	non-food_animate_skunk	0	N	10	0	147	0		0	0	145.328904799884	145.428920899983
27976.75	0.0999718001112342	199	hunger	stimuli/foods\cooked_prawn.jpg	1	2	1	cooked_prawn	1	M	9	0	36	0		0	0	145.47891989979	145.578891699901
28014.25	0.0999861999880522	200	hunger	stimuli/foods\onion.jpg	1	2	1	onion	1	L	8	0	229	0		0	0	145.628895499976	145.728881699964
28051.75	0.0999880998861045	201	hunger	stimuli/foods\pickles.jpg	1	2	1	pickles	1	V	15	0	242	0		0	0	145.778898499906	145.878886599792
28089.25	0.0999894998967648	202	hunger	stimuli/foods\smoked_ham.jpg	1	2	1	smoked_ham	1	X	17	0	266	0		0	0	145.928899799939	146.028889299836
28126.75	0.0999525000806898	203	hunger	stimuli/non_foods\non-food_animate_dolphin.jpg	1	2	1	non-food_animate_dolphin	0	W	16	0	106	0		0	0	146.078930599848	146.178883099928
28164.25	0.0999694000929594	204	hunger	stimuli/foods\brussel_sprouts.jpg	1	2	1	brussel_sprouts	1	P	11	0	15	0		0	0	146.228912999853	146.328882399946
28201.75	0.0999813999515027	205	hunger	stimuli/non_foods\non-food_inanimate_tent.jpg	1	2	1	non-food_inanimate_tent	0	O	22	1	219	0		0	0	146.378893799847	146.478875199798
28239.25	0.0999965998344123	206	hunger	stimuli/foods\grilled_chicken_breast.jpg	1	2	1	grilled_chicken_breast	1	W	16	0	63	0		0	0	146.528878699988	146.628875299823
28276.75	0.0999841999728233	207	hunger	stimuli/non_foods\non-food_inanimate_chair.jpg	1	2	1	non-food_inanimate_chair	0	D	2	0	172	1	a	0.391826699953526	1	146.678889599862	146.778873799834
28314.25	0.0999912000261247	208	hunger	stimuli/foods\oyster.jpg	1	2	1	oyster	1	X	17	0	233	0		0	0	146.82888419996	146.928875399986
28351.75	0.0999826998449862	209	hunger	stimuli/foods\green_beans.jpg	1	2	1	green_beans	1	T	14	0	61	0		0	0	146.978886700002	147.078869399847
28389.25	0.0999990999698639	210	hunger	stimuli/non_foods\non-food_animate_snail.jpg	1	2	1	non-food_animate_snail	0	S	13	0	149	0		0	0	147.12888409989	147.228883199859
28426.75	0.0999871999956667	211	hunger	stimuli/non_foods\non-food_animate_ram.jpg	1	2	1	non-food_animate_ram	0	J	6	0	140	0		0	0	147.278885099804	147.3788722998
28464.25	0.0999865001067519	212	hunger	stimuli/non_foods\non-food_animate_sea_lion.jpg	1	2	1	non-food_animate_sea_lion	0	S	13	0	143	0		0	0	147.428876899881	147.528863399988
28501.75	0.0999864002224058	213	hunger	stimuli/foods\oregano.jpg	1	2	1	oregano	1	T	14	0	231	0		0	0	147.578876899788	147.678863300011
28539.25	0.100021699909121	214	hunger	stimuli/non_foods\non-food_inanimate_wrench.jpg	1	2	1	non-food_inanimate_wrench	0	F	3	0	227	0		0	0	147.728856900008	147.828878599918
28576.75	0.0999810001812875	215	hunger	stimuli/non_foods\non-food_animate_ant.jpg	1	2	1	non-food_animate_ant	0	H	5	0	91	0		0	0	147.878875299823	147.978856300004
28614.25	0.0999833999667317	216	hunger	stimuli/foods\linguine_with_clams.jpg	1	2	1	linguine_with_clams	1	D	2	0	77	0		0	0	148.028872599825	148.128855999792
28651.75	0.0999826998449862	217	hunger	stimuli/non_foods\non-food_inanimate_button.jpg	1	2	1	non-food_inanimate_button	0	V	15	0	168	0		0	0	148.178873799974	148.278856499819
28689.25	0.0999863999895751	218	hunger	stimuli/non_foods\non-food_inanimate_alarm_clock.jpg	1	2	1	non-food_inanimate_alarm_clock	0	N	10	0	158	0		0	0	148.328867699951	148.428854099941
28726.75	0.0999881001189351	219	hunger	stimuli/foods\lamb_chops.jpg	1	2	1	lamb_chops	1	C	1	0	70	0		0	0	148.478863499826	148.578851599945
28764.25	0.0999841999728233	220	hunger	stimuli/foods\fried_zucchini.jpg	1	2	1	fried_zucchini	1	N	10	0	51	0		0	0	148.628865899984	148.728850099957
28801.75	0.100012399954721	221	hunger	stimuli/foods\fruit_salad.jpg	1	2	1	fruit_salad	1	R	12	0	55	0		0	0	148.778836000012	148.878848399967
28839.25	0.0999855999834836	222	hunger	stimuli/non_foods\non-food_inanimate_rack.jpg	1	2	1	non-food_inanimate_rack	0	T	14	0	202	0		0	0	148.928861499997	149.02884709998
28876.75	0.0999736997764558	223	hunger	stimuli/foods\peas.jpg	1	2	1	peas	1	F	3	0	240	0		0	0	149.078860000009	149.178833699785
28914.25	0.0999866998754442	224	hunger	stimuli/foods\orange.jpg	1	2	1	orange	1	J	6	0	230	0		0	0	149.228847299935	149.328833999811
28951.75	0.0999843999743462	225	hunger	stimuli/non_foods\non-food_inanimate_chandelier.jpg	1	2	1	non-food_inanimate_chandelier	0	B	0	0	173	0		0	0	149.378849099856	149.47883349983
28989.25	0.0999729998875409	226	hunger	stimuli/non_foods\non-food_animate_mammoth.jpg	1	2	1	non-food_animate_mammoth	0	V	15	0	128	0		0	0	149.528881900012	149.6288548999
29026.75	0.0999735000077635	227	hunger	stimuli/foods\salami.jpg	1	2	1	salami	1	G	4	0	263	0		0	0	149.678882099921	149.778855599929
29064.25	0.0999548998661339	228	hunger	stimuli/non_foods\non-food_inanimate_short_sleeved_shirt.jpg	1	2	1	non-food_inanimate_short_sleeved_shirt	0	A	19	1	207	0		0	0	149.82886889996	149.928823799826
29101.75	0.0999962999485433	229	hunger	stimuli/non_foods\non-food_animate_bee.jpg	1	2	1	non-food_animate_bee	0	C	1	0	95	0		0	0	149.978840800002	150.078837099951
29139.25	0.0999871999956667	230	hunger	stimuli/non_foods\non-food_inanimate_waterlily.jpg	1	2	1	non-food_inanimate_waterlily	0	G	4	0	226	1	a	0.391792600043118	1	150.128835899988	150.228823099984
29176.75	0.0999843999743462	231	hunger	stimuli/non_foods\non-food_inanimate_headphones.jpg	1	2	1	non-food_inanimate_headphones	0	C	1	0	188	0		0	0	150.278838499915	150.378822899889
29214.25	0.0999852998647839	232	hunger	stimuli/foods\fruit_flan.jpg	1	2	1	fruit_flan	1	F	3	0	53	0		0	0	150.428836599924	150.528821899788
29251.75	0.100003400119022	233	hunger	stimuli/foods\broccoli.jpg	1	2	1	broccoli	1	D	2	0	13	0		0	0	150.578822699841	150.67882609996
29289.25	0.100013599963859	234	hunger	stimuli/non_foods\non-food_animate_killer_whale.jpg	1	2	1	non-food_animate_killer_whale	0	N	10	0	123	0		0	0	150.728838799987	150.828852399951
29326.75	0.0999825000762939	235	hunger	stimuli/foods\potato_chips.jpg	1	2	1	potato_chips	1	M	9	0	247	0		0	0	150.878839199897	150.978821699973
29364.25	0.0999813999515027	236	hunger	stimuli/non_foods\non-food_inanimate_bucket.jpg	1	2	1	non-food_inanimate_bucket	0	N	10	0	165	0		0	0	151.028835600009	151.128816999961
29401.75	0.099982799962163	237	hunger	stimuli/non_foods\non-food_animate_young_boy.jpg	1	2	1	non-food_animate_young_boy	0	T	14	0	156	0		0	0	151.17883479991	151.278817599872
29439.25	0.100017400225624	238	hunger	stimuli/foods\clams.jpg	1	2	1	clams	1	K	7	0	32	0		0	0	151.328830599785	151.42884800001
29476.75	0.0999148001428694	239	hunger	stimuli/foods\chocolate_bar.jpg	1	2	1	chocolate_bar	1	C	1	0	26	0		0	0	151.478876799811	151.578791599954
29514.25	0.0999836998526007	240	hunger	stimuli/foods\almonds.jpg	1	2	1	almonds	1	T	14	0	0	0		0	0	151.628830099944	151.728813799797
29551.75	0.0999833999667317	241	hunger	stimuli/non_foods\non-food_inanimate_protractor.jpg	1	2	1	non-food_inanimate_protractor	0	V	15	0	201	0		0	0	151.778825699817	151.878809099784
29589.25	0.0999857999850065	242	hunger	stimuli/foods\savory_pie.jpg	1	2	1	savory_pie	1	M	9	0	265	0		0	0	151.928822399816	152.028808199801
29626.75	0.0999688999727368	243	hunger	stimuli/foods\roasted_chicken.jpg	1	2	1	roasted_chicken	1	H	5	0	261	0		0	0	152.078820199938	152.178789099911
29664.25	0.0999694999773055	244	hunger	stimuli/foods\tomato.jpg	1	2	1	tomato	1	P	11	0	276	0		0	0	152.228821999859	152.328791499836
29701.75	0.0999879001174122	245	hunger	stimuli/foods\cucumber.jpg	1	2	1	cucumber	1	X	17	0	41	0		0	0	152.378809499787	152.478797399905
29739.25	0.0999801999423653	246	hunger	stimuli/non_foods\non-food_inanimate_hay.jpg	1	2	1	non-food_inanimate_hay	0	W	16	0	187	0		0	0	152.528822799912	152.628802999854
29776.75	0.0999773999210447	247	hunger	stimuli/non_foods\non-food_animate_horse.jpg	1	2	1	non-food_animate_horse	0	R	12	0	119	0		0	0	152.678806199925	152.778783599846
29814.25	0.0999900000169873	248	hunger	stimuli/non_foods\non-food_animate_sea_turtle.jpg	1	2	1	non-food_animate_sea_turtle	0	V	15	0	144	0		0	0	152.828810999868	152.928800999885
29851.75	0.100010100053623	249	hunger	stimuli/foods\brie.jpg	1	2	1	brie	1	T	14	0	12	0		0	0	152.978785199812	153.078795299865
29889.25	0.0999950999394059	250	hunger	stimuli/foods\raw_ham.jpg	1	2	1	raw_ham	1	C	1	0	253	0		0	0	153.128807999892	153.228803099832
29926.75	0.0999436001293361	251	hunger	stimuli/foods\dates.jpg	1	2	1	dates	1	J	6	0	43	0		0	0	153.278844599845	153.378788199974
29964.25	0.099962699925527	252	hunger	stimuli/foods\radish.jpg	1	2	1	radish	1	R	12	0	251	0		0	0	153.428801999893	153.528764699819
30001.75	0.0999924000352621	253	hunger	stimuli/non_foods\non-food_animate_cheetah.jpg	1	2	1	non-food_animate_cheetah	0	W	16	0	100	0		0	0	153.57878809981	153.678780499846
30039.25	0.0999853000976145	254	hunger	stimuli/non_foods\non-food_inanimate_watering_can.jpg	1	2	1	non-food_inanimate_watering_can	0	N	10	0	225	0		0	0	153.728793599876	153.828778899973
30076.75	0.0999932999256998	255	hunger	stimuli/foods\red_cabbage.jpg	1	2	1	red_cabbage	1	D	2	0	256	0		0	0	153.878793400014	153.97878669994
30114.25	0.100000799866393	256	hunger	stimuli/non_foods\non-food_inanimate_soccer_ball.jpg	1	2	1	non-food_inanimate_soccer_ball	0	G	4	0	210	0		0	0	154.028780299937	154.128781099804
30151.75	0.0999875001143664	257	hunger	stimuli/non_foods\non-food_animate_eagle.jpg	1	2	1	non-food_animate_eagle	0	V	15	0	110	0		0	0	154.178791599814	154.278779099928
30189.25	0.0999515000730753	258	hunger	stimuli/non_foods\non-food_animate_green_bug.jpg	1	2	1	non-food_animate_green_bug	0	L	8	0	118	0		0	0	154.32882389985	154.428775399923
30226.75	0.099986599991098	259	hunger	stimuli/foods\grapes.jpg	1	2	1	grapes	1	R	12	0	60	0		0	0	154.478791299975	154.578777899966
30264.25	0.0999763999134302	260	hunger	stimuli/non_foods\non-food_inanimate_tree.jpg	1	2	1	non-food_inanimate_tree	0	N	10	0	223	0		0	0	154.628770899959	154.728747299872
30301.75	0.0999861999880522	261	hunger	stimuli/non_foods\non-food_inanimate_canoe.jpg	1	2	1	non-food_inanimate_canoe	0	F	3	0	170	0		0	0	154.77877879981	154.878764999798
30339.25	0.099980799946934	262	hunger	stimuli/non_foods\non-food_inanimate_couch.jpg	1	2	1	non-food_inanimate_couch	0	S	13	0	176	0		0	0	154.928784699878	155.028765499825
30376.75	0.0999664999544621	263	hunger	stimuli/foods\lemon_meringue_pie.jpg	1	2	1	lemon_meringue_pie	1	R	12	0	73	0		0	0	155.078795299865	155.17876179982
30414.25	0.0999845999758691	264	hunger	stimuli/foods\nectarine.jpg	1	2	1	nectarine	1	V	15	0	87	0		0	0	155.228775999974	155.32876059995
30451.75	0.0999932000413537	265	hunger	stimuli/foods\wafer.jpg	1	2	1	wafer	1	L	8	0	277	0		0	0	155.378772899974	155.478766100015
30489.25	0.0999944000504911	266	hunger	stimuli/foods\figs.jpg	1	2	1	figs	1	I	21	1	48	0		0	0	155.528770899866	155.628765299916
30526.75	0.099996899953112	267	hunger	stimuli/non_foods\non-food_inanimate_sun_flower.jpg	1	2	1	non-food_inanimate_sun_flower	0	H	5	0	216	0		0	0	155.678775799926	155.778772699879
30564.25	0.0999840998556465	268	hunger	stimuli/foods\mortadella.jpg	1	2	1	mortadella	1	Z	18	0	83	0		0	0	155.828766999999	155.928751099855
30601.75	0.0999962000641972	269	hunger	stimuli/foods\bagel.jpg	1	2	1	bagel	1	T	14	0	6	0		0	0	155.978760799859	156.078756999923
30639.25	0.0999765999149531	270	hunger	stimuli/non_foods\non-food_animate_mouse.jpg	1	2	1	non-food_animate_mouse	0	P	11	0	131	0		0	0	156.128779599909	156.228756199824
30676.75	0.0999849999789149	271	hunger	stimuli/non_foods\non-food_animate_grasshopper.jpg	1	2	1	non-food_animate_grasshopper	0	L	8	0	117	0		0	0	156.278768399963	156.378753399942
30714.25	0.0999708999879658	272	hunger	stimuli/foods\pineapple.jpg	1	2	1	pineapple	1	H	5	0	243	0		0	0	156.428766099969	156.528736999957
30751.75	0.0999884000048041	273	hunger	stimuli/non_foods\non-food_animate_parrot.jpg	1	2	1	non-food_animate_parrot	0	J	6	0	133	0		0	0	156.578762999969	156.678751399973
30789.25	0.10000850004144	274	hunger	stimuli/foods\hamburger.jpg	1	2	1	hamburger	1	T	14	0	64	0		0	0	156.728769799927	156.828778299969
30826.75	0.0999735998921096	275	hunger	stimuli/non_foods\non-food_inanimate_bush.jpg	1	2	1	non-food_inanimate_bush	0	B	0	0	167	0		0	0	156.878772699973	156.978746299865
30864.25	0.0999856998678297	276	hunger	stimuli/non_foods\non-food_inanimate_teddy_bear.jpg	1	2	1	non-food_inanimate_teddy_bear	0	S	13	0	218	0		0	0	157.02875669999	157.128742399858
30901.75	0.0999839999713004	277	hunger	stimuli/foods\rice_cake.jpg	1	2	1	rice_cake	1	N	10	0	258	0		0	0	157.178756499896	157.278740499867
30939.25	0.0999837999697775	278	hunger	stimuli/foods\baked_lamb_with_potatoes.jpg	1	2	1	baked_lamb_with_potatoes	1	L	8	0	8	0		0	0	157.328755199909	157.428738999879
30976.75	0.0999876998830587	279	hunger	stimuli/foods\strawberry.jpg	1	2	1	strawberry	1	J	6	0	272	0		0	0	157.478753299918	157.578740999801
31697.5	0.099986300105229	280	hunger	stimuli/non_foods\non-food_animate_porcupine.jpg	1	3	1	non-food_animate_porcupine	0	R	12	0	138	0		0	0	160.362058099825	160.46204439993
31735	0.0999370999634266	281	hunger	stimuli/non_foods\non-food_inanimate_chandelier.jpg	1	3	1	non-food_inanimate_chandelier	0	C	1	0	173	0		0	0	160.512097199913	160.612034299877
31772.5	0.0999789999332279	282	hunger	stimuli/non_foods\non-food_inanimate_fire_extinguisher.jpg	1	3	1	non-food_inanimate_fire_extinguisher	0	K	7	0	181	0		0	0	160.662050399929	160.762029399863
31810	0.0999823999591172	283	hunger	stimuli/foods\rice_cake.jpg	1	3	1	rice_cake	1	J	6	0	258	0		0	0	160.812044899911	160.91202729987
31847.5	0.0999855000991374	284	hunger	stimuli/non_foods\non-food_inanimate_wrench.jpg	1	3	1	non-food_inanimate_wrench	0	S	13	0	227	0		0	0	160.962042099796	161.062027599895
31885	0.0999837999697775	285	hunger	stimuli/non_foods\non-food_animate_cheetah.jpg	1	3	1	non-food_animate_cheetah	0	K	7	0	100	0		0	0	161.112041399814	161.212025199784
31922.5	0.099982799962163	286	hunger	stimuli/non_foods\non-food_inanimate_orchid.jpg	1	3	1	non-food_inanimate_orchid	0	W	16	0	198	0		0	0	161.26203819993	161.362020999892
31960	0.0999841999728233	287	hunger	stimuli/foods\fries.jpg	1	3	1	fries	1	X	17	0	52	0		0	0	161.412036999827	161.5120211998
31997.5	0.0999708999879658	288	hunger	stimuli/foods\hazelnuts.jpg	1	3	1	hazelnuts	1	B	0	0	65	0		0	0	161.562052399851	161.662023299839
32035	0.0999860998708755	289	hunger	stimuli/non_foods\non-food_inanimate_alarm_clock.jpg	1	3	1	non-food_inanimate_alarm_clock	0	G	4	0	158	0		0	0	161.712023	161.812009099871
32072.5	0.0999875001143664	290	hunger	stimuli/non_foods\non-food_animate_baby_sitting.jpg	1	3	1	non-food_animate_baby_sitting	0	Z	18	0	93	0		0	0	161.862023699796	161.96201119991
32110	0.0999846998602152	291	hunger	stimuli/foods\chilli.jpg	1	3	1	chilli	1	M	9	0	25	0		0	0	162.01202429994	162.1120089998
32147.5	0.100003600120544	292	hunger	stimuli/non_foods\non-food_inanimate_gloves.jpg	1	3	1	non-food_inanimate_gloves	0	F	3	0	183	0		0	0	162.162028899882	162.262032500003
32185	0.0999584000092	293	hunger	stimuli/non_foods\non-food_animate_german_shepherd.jpg	1	3	1	non-food_animate_german_shepherd	0	I	21	1	114	0		0	0	162.312042499892	162.412000899902
32222.5	0.0999952000565827	294	hunger	stimuli/non_foods\non-food_animate_dragonfly.jpg	1	3	1	non-food_animate_dragonfly	0	N	10	0	108	0		0	0	162.462017599959	162.562012800016
32260	0.0999607001431286	295	hunger	stimuli/non_foods\non-food_animate_alligator.jpg	1	3	1	non-food_animate_alligator	0	R	12	0	90	1	a	0.391817300114781	1	162.612025899813	162.711986599956
32297.5	0.0999663998372853	296	hunger	stimuli/non_foods\non-food_inanimate_clover.jpg	1	3	1	non-food_inanimate_clover	0	H	5	0	174	0		0	0	162.762016399996	162.861982799834
32335	0.0999840998556465	297	hunger	stimuli/non_foods\non-food_inanimate_nailpolish.jpg	1	3	1	non-food_inanimate_nailpolish	0	B	0	0	195	0		0	0	162.912011899985	163.011995999841
32372.5	0.100007700035349	298	hunger	stimuli/non_foods\non-food_animate_young_boy.jpg	1	3	1	non-food_animate_young_boy	0	D	2	0	156	0		0	0	163.061992299976	163.162000000011
32410	0.0999874998815358	299	hunger	stimuli/non_foods\non-food_animate_cow.jpg	1	3	1	non-food_animate_cow	0	K	7	0	103	0		0	0	163.212012799922	163.312000299804
32447.5	0.0999696999788284	300	hunger	stimuli/non_foods\non-food_animate_parrot.jpg	1	3	1	non-food_animate_parrot	0	W	16	0	133	0		0	0	163.362026199931	163.46199589991
32485	0.0999854998663068	301	hunger	stimuli/non_foods\non-food_animate_giraffe.jpg	1	3	1	non-food_animate_giraffe	0	C	1	0	115	0		0	0	163.512009199942	163.611994699808
32522.5	0.0999858998693526	302	hunger	stimuli/foods\taco.jpg	1	3	1	taco	1	M	9	0	274	0		0	0	163.662006899947	163.761992799817
32560	0.0999868998769671	303	hunger	stimuli/non_foods\non-food_animate_iguana.jpg	1	3	1	non-food_animate_iguana	0	W	16	0	121	0		0	0	163.81200819998	163.911995099857
32597.5	0.0999793999362737	304	hunger	stimuli/non_foods\non-food_inanimate_scissors.jpg	1	3	1	non-food_inanimate_scissors	0	X	17	0	205	0		0	0	163.962004699977	164.061984099913
32635	0.0999648999422789	305	hunger	stimuli/foods\lime.jpg	1	3	1	lime	1	J	6	0	76	0		0	0	164.112016199855	164.211981099797
32672.5	0.0999875001143664	306	hunger	stimuli/non_foods\non-food_animate_ladybug.jpg	1	3	1	non-food_animate_ladybug	0	C	1	0	124	0		0	0	164.261995399836	164.361982899951
32710	0.0999857999850065	307	hunger	stimuli/foods\pickles.jpg	1	3	1	pickles	1	L	8	0	242	0		0	0	164.411992399953	164.511978199938
32747.5	0.0999882000032812	308	hunger	stimuli/foods\savory_pie.jpg	1	3	1	savory_pie	1	P	11	0	265	0		0	0	164.561988999834	164.661977199838
32785	0.0999832998495549	309	hunger	stimuli/foods\beetroots.jpg	1	3	1	beetroots	1	N	10	0	10	0		0	0	164.711986999959	164.811970299808
32822.5	0.0999838998541236	310	hunger	stimuli/non_foods\non-food_animate_baby_crawling.jpg	1	3	1	non-food_animate_baby_crawling	0	K	7	0	92	0		0	0	164.861986299977	164.961970199831
32860	0.0999824998434633	311	hunger	stimuli/non_foods\non-food_animate_bee.jpg	1	3	1	non-food_animate_bee	0	R	12	0	95	0		0	0	165.011987000005	165.111969499849
32897.5	0.100020800018683	312	hunger	stimuli/foods\grilled_chicken_breast.jpg	1	3	1	grilled_chicken_breast	1	V	15	0	63	0		0	0	165.161998299882	165.2620190999
32935	0.0999832998495549	313	hunger	stimuli/foods\red_cabbage.jpg	1	3	1	red_cabbage	1	B	0	0	256	0		0	0	165.311991099967	165.411974399816
32972.5	0.0999865001067519	314	hunger	stimuli/foods\mortadella.jpg	1	3	1	mortadella	1	D	2	0	83	0		0	0	165.461976999883	165.561963499989
33010	0.0999972000718117	315	hunger	stimuli/non_foods\non-food_animate_runner.jpg	1	3	1	non-food_animate_runner	0	E	20	1	142	0		0	0	165.611975299893	165.711972499965
33047.5	0.0999421000014991	316	hunger	stimuli/non_foods\non-food_animate_Asian_man.jpg	1	3	1	non-food_animate_Asian_man	0	K	7	0	88	0		0	0	165.76200499991	165.861947099911
33085	0.0999697998631746	317	hunger	stimuli/non_foods\non-food_animate_horse.jpg	1	3	1	non-food_animate_horse	0	F	3	0	119	1	a	0.391842500073835	1	165.91199459997	166.011964399833
33122.5	0.0999735998921096	318	hunger	stimuli/non_foods\non-food_inanimate_stoplight.jpg	1	3	1	non-food_inanimate_stoplight	0	N	10	0	214	1	a	0.541798300109804	1	166.061991899973	166.161965499865
33160	0.0999873999971896	319	hunger	stimuli/non_foods\non-food_inanimate_couch.jpg	1	3	1	non-food_inanimate_couch	0	F	3	0	176	0		0	0	166.211974299978	166.311961699976
33197.5	0.0999874998815358	320	hunger	stimuli/foods\gnocchi.jpg	1	3	1	gnocchi	1	L	8	0	58	0		0	0	166.361972999992	166.461960499873
33235	0.0999822001904249	321	hunger	stimuli/non_foods\non-food_animate_kangaroo.jpg	1	3	1	non-food_animate_kangaroo	0	D	2	0	122	0		0	0	166.511975899804	166.611958099995
33272.5	0.0999855000991374	322	hunger	stimuli/non_foods\non-food_inanimate_grass.jpg	1	3	1	non-food_inanimate_grass	0	G	4	0	184	0		0	0	166.661970699904	166.761956200004
33310	0.0999913001433015	323	hunger	stimuli/non_foods\non-food_animate_deer.jpg	1	3	1	non-food_animate_deer	0	R	12	0	105	0		0	0	166.811962399865	166.911953700008
33347.5	0.0999829999636859	324	hunger	stimuli/non_foods\non-food_animate_dachshund.jpg	1	3	1	non-food_animate_dachshund	0	N	10	0	104	0		0	0	166.961969399825	167.061952399788
33385	0.0999857999850065	325	hunger	stimuli/foods\mango.jpg	1	3	1	mango	1	L	8	0	80	0		0	0	167.111965499818	167.211951299803
33422.5	0.0999884998891503	326	hunger	stimuli/foods\cereal.jpg	1	3	1	cereal	1	T	14	0	22	0		0	0	167.261965899961	167.36195439985
33460	0.0999834998510778	327	hunger	stimuli/foods\omelette.jpg	1	3	1	omelette	1	H	5	0	228	0		0	0	167.411959799938	167.511943299789
33497.5	0.0999866998754442	328	hunger	stimuli/non_foods\non-food_inanimate_suitcase.jpg	1	3	1	non-food_inanimate_suitcase	0	M	9	0	215	0		0	0	167.561972799944	167.661959499819
33535	0.0999565001111478	329	hunger	stimuli/foods\chocolate_bar.jpg	1	3	1	chocolate_bar	1	N	10	0	26	0		0	0	167.71198929986	167.811945799971
33572.5	0.0999869999941438	330	hunger	stimuli/non_foods\non-food_inanimate_construction_helment.jpg	1	3	1	non-food_inanimate_construction_helment	0	D	2	0	175	0		0	0	167.861953199841	167.961940199835
33610	0.0999892998952419	331	hunger	stimuli/non_foods\non-food_animate_snail.jpg	1	3	1	non-food_animate_snail	0	S	13	0	149	0		0	0	168.011951999972	168.111941299867
33647.5	0.0999857001006603	332	hunger	stimuli/foods\watermelon.jpg	1	3	1	watermelon	1	H	5	0	279	0		0	0	168.161950599868	168.261936299969
33685	0.099986300105229	333	hunger	stimuli/foods\clams.jpg	1	3	1	clams	1	L	8	0	32	0		0	0	168.311948299874	168.411934599979
33722.5	0.0999913001433015	334	hunger	stimuli/non_foods\non-food_animate_mammoth.jpg	1	3	1	non-food_animate_mammoth	0	W	16	0	128	0		0	0	168.461943999864	168.561935300007
33760	0.100022100144997	335	hunger	stimuli/non_foods\non-food_inanimate_guitar.jpg	1	3	1	non-food_inanimate_guitar	0	B	0	0	185	0		0	0	168.611945799785	168.71196789993
33797.5	0.0999831999652088	336	hunger	stimuli/foods\museli_bars.jpg	1	3	1	museli_bars	1	N	10	0	84	0		0	0	168.761950499844	168.861933699809
33835	0.0999825000762939	337	hunger	stimuli/non_foods\non-food_animate_camel.jpg	1	3	1	non-food_animate_camel	0	W	16	0	97	0		0	0	168.911944999825	169.011927499902
33872.5	0.0999855999834836	338	hunger	stimuli/foods\potato_and_green_bean_salad.jpg	1	3	1	potato_and_green_bean_salad	1	K	7	0	246	0		0	0	169.061940599931	169.161926199915
33910	0.0999960000626743	339	hunger	stimuli/non_foods\non-food_animate_lion.jpg	1	3	1	non-food_animate_lion	0	C	1	0	125	0		0	0	169.211937599815	169.311933599878
33947.5	0.100004900014028	340	hunger	stimuli/foods\tomato.jpg	1	3	1	tomato	1	Z	18	0	276	0		0	0	169.361931199906	169.46193609992
33985	0.099992300150916	341	hunger	stimuli/foods\chocolate_pralines.jpg	1	3	1	chocolate_pralines	1	J	6	0	28	0		0	0	169.511934799841	169.611927099992
34022.5	0.0999795999377966	342	hunger	stimuli/foods\cucumber.jpg	1	3	1	cucumber	1	S	13	0	41	0		0	0	169.661940499907	169.761920099845
34060	0.100007599918172	343	hunger	stimuli/non_foods\non-food_animate_mouse.jpg	1	3	1	non-food_animate_mouse	0	F	3	0	131	0		0	0	169.811907799914	169.911915399833
34097.5	0.099986599991098	344	hunger	stimuli/foods\swordfish.jpg	1	3	1	swordfish	1	N	10	0	273	0		0	0	169.961928699864	170.061915299855
34135	0.0999693998601288	345	hunger	stimuli/foods\lettuce.jpg	1	3	1	lettuce	1	W	16	0	75	0		0	0	170.111926699989	170.211896099849
34172.5	0.0999718999955803	346	hunger	stimuli/non_foods\non-food_animate_elephant.jpg	1	3	1	non-food_animate_elephant	0	C	1	0	111	0		0	0	170.2619293998	170.361901299795
34210	0.100012000184506	347	hunger	stimuli/foods\mandarin.jpg	1	3	1	mandarin	1	M	9	0	79	0		0	0	170.411926499801	170.511938499985
34247.5	0.0999737000092864	348	hunger	stimuli/non_foods\non-food_animate_duck.jpg	1	3	1	non-food_animate_duck	0	B	0	0	109	0		0	0	170.561931599863	170.661905299872
34285	0.0999849999789149	349	hunger	stimuli/non_foods\non-food_inanimate_tree.jpg	1	3	1	non-food_inanimate_tree	0	V	15	0	223	0		0	0	170.71191939991	170.811904399889
34322.5	0.0999849999789149	350	hunger	stimuli/foods\raisins.jpg	1	3	1	raisins	1	G	4	0	252	0		0	0	170.861918399809	170.961903399788
34360	0.0999950000550598	351	hunger	stimuli/foods\brussel_sprouts.jpg	1	3	1	brussel_sprouts	1	F	3	0	15	0		0	0	171.011917099822	171.111912099877
34397.5	0.0999499000608921	352	hunger	stimuli/non_foods\non-food_inanimate_bed.jpg	1	3	1	non-food_inanimate_bed	0	D	2	0	160	0		0	0	171.161945499945	171.261895400006
34435	0.09997220011428	353	hunger	stimuli/foods\ginger_root.jpg	1	3	1	ginger_root	1	L	8	0	57	0		0	0	171.311916499864	171.411888699979
34472.5	0.0999837000854313	354	hunger	stimuli/non_foods\non-food_animate_penguin.jpg	1	3	1	non-food_animate_penguin	0	P	11	0	135	0		0	0	171.461904199794	171.561887899879
34510	0.0999975998420268	355	hunger	stimuli/non_foods\non-food_animate_swan.jpg	1	3	1	non-food_animate_swan	0	R	12	0	152	0		0	0	171.611891699955	171.711889299797
34547.5	0.0999854998663068	356	hunger	stimuli/foods\roasted_chicken.jpg	1	3	1	roasted_chicken	1	K	7	0	261	0		0	0	171.761900099926	171.861885599792
34585	0.099986599991098	357	hunger	stimuli/foods\pineapple.jpg	1	3	1	pineapple	1	W	16	0	243	0		0	0	171.91189709981	172.011883699801
34622.5	0.099994899937883	358	hunger	stimuli/foods\donut.jpg	1	3	1	donut	1	B	0	0	44	0		0	0	172.061886099866	172.161880999804
34660	0.100003500003368	359	hunger	stimuli/foods\pear.jpg	1	3	1	pear	1	I	21	1	239	0		0	0	172.211891599931	172.311895099934
34697.5	0.0999676999635994	360	hunger	stimuli/non_foods\non-food_animate_bat.jpg	1	3	1	non-food_animate_bat	0	P	11	0	94	0		0	0	172.361910399981	172.461878099944
34735	0.099989099893719	361	hunger	stimuli/non_foods\non-food_inanimate_skirt.jpg	1	3	1	non-food_inanimate_skirt	0	X	17	0	209	0		0	0	172.511889199959	172.611878299853
34772.5	0.0999861001037061	362	hunger	stimuli/foods\nectarine.jpg	1	3	1	nectarine	1	R	12	0	87	0		0	0	172.661889399868	172.761875499971
34810	0.100015299860388	363	hunger	stimuli/non_foods\non-food_animate_peacock.jpg	1	3	1	non-food_animate_peacock	0	P	11	0	134	1	a	0.691799900028855	1	172.811872299993	172.911887599854
34847.5	0.0999651998281479	364	hunger	stimuli/foods\cream_donuts.jpg	1	3	1	cream_donuts	1	N	10	0	39	0		0	0	172.961911499966	173.061876699794
34885	0.0999837999697775	365	hunger	stimuli/non_foods\non-food_animate_pigeon.jpg	1	3	1	non-food_animate_pigeon	0	L	8	0	136	0		0	0	173.111890399829	173.211874199798
34922.5	0.0999840998556465	366	hunger	stimuli/foods\lollies.jpg	1	3	1	lollies	1	J	6	0	78	0		0	0	173.261889399961	173.361873499816
34960	0.0999848998617381	367	hunger	stimuli/non_foods\non-food_inanimate_bicycle.jpg	1	3	1	non-food_inanimate_bicycle	0	N	10	0	161	0		0	0	173.411885099951	173.511869999813
34997.5	0.0999858998693526	368	hunger	stimuli/foods\chocolate_pudding.jpg	1	3	1	chocolate_pudding	1	V	15	0	29	0		0	0	173.561885399977	173.661871299846
35035	0.0999835999682546	369	hunger	stimuli/foods\fruit_flan.jpg	1	3	1	fruit_flan	1	G	4	0	53	0		0	0	173.711881399853	173.811864999821
35072.5	0.0999881001189351	370	hunger	stimuli/foods\chocolate_chip_cookies.jpg	1	3	1	chocolate_chip_cookies	1	B	0	0	27	0		0	0	173.861878299853	173.961866399972
35110	0.0999882998876274	371	hunger	stimuli/non_foods\non-food_inanimate_table.jpg	1	3	1	non-food_inanimate_table	0	K	7	0	217	0		0	0	174.011878699996	174.111866999883
35147.5	0.0999861999880522	372	hunger	stimuli/foods\pepperoni_pizza.jpg	1	3	1	pepperoni_pizza	1	L	8	0	241	0		0	0	174.161875499878	174.261861699866
35185	0.0999846002086997	373	hunger	stimuli/foods\wafer.jpg	1	3	1	wafer	1	B	0	0	277	0		0	0	174.311875699786	174.411860299995
35222.5	0.0999857001006603	374	hunger	stimuli/foods\orange.jpg	1	3	1	orange	1	N	10	0	230	0		0	0	174.461873699911	174.561859400012
35260	0.099986599991098	375	hunger	stimuli/foods\spring_onions.jpg	1	3	1	spring_onions	1	D	2	0	269	0		0	0	174.611870299792	174.711856899783
35297.5	0.0999411998782307	376	hunger	stimuli/non_foods\non-food_animate_polar_bear.jpg	1	3	1	non-food_animate_polar_bear	0	L	8	0	137	0		0	0	174.761913799914	174.861854999792
35335	0.10000120010227	377	hunger	stimuli/non_foods\non-food_animate_fox.jpg	1	3	1	non-food_animate_fox	0	K	7	0	112	0		0	0	174.911843699869	175.011844899971
35372.5	0.0999967998359352	378	hunger	stimuli/non_foods\non-food_animate_lizard.jpg	1	3	1	non-food_animate_lizard	0	J	6	0	126	0		0	0	175.061859400012	175.161856199848
35410	0.0999720999971032	379	hunger	stimuli/non_foods\non-food_animate_tortoise.jpg	1	3	1	non-food_animate_tortoise	0	S	13	0	153	0		0	0	175.21186879999	175.311840899987
35447.5	0.0999851000960916	380	hunger	stimuli/non_foods\non-food_inanimate_fern.jpg	1	3	1	non-food_inanimate_fern	0	J	6	0	180	0		0	0	175.361854599789	175.461839699885
35485	0.099992600036785	381	hunger	stimuli/non_foods\non-food_inanimate_cactus_pot_plant.jpg	1	3	1	non-food_inanimate_cactus_pot_plant	0	N	10	0	169	0		0	0	175.511855499819	175.611848099856
35522.5	0.0999604999087751	382	hunger	stimuli/non_foods\non-food_inanimate_pine_cone.jpg	1	3	1	non-food_inanimate_pine_cone	0	G	4	0	200	0		0	0	175.661858899985	175.761819399893
35560	0.0999751000199467	383	hunger	stimuli/non_foods\non-food_inanimate_waterlily.jpg	1	3	1	non-food_inanimate_waterlily	0	K	7	0	226	0		0	0	175.811866399832	175.911841499852
35597.5	0.0999861999880522	384	hunger	stimuli/foods\stew_with_potatoes_and_carrots.jpg	1	3	1	stew_with_potatoes_and_carrots	1	H	5	0	271	0		0	0	175.961854299996	176.061840499984
35635	0.0999828998465091	385	hunger	stimuli/foods\cannoli.jpg	1	3	1	cannoli	1	F	3	0	17	0		0	0	176.111853400012	176.211836299859
35672.5	0.0999841000884771	386	hunger	stimuli/non_foods\non-food_inanimate_skateboard.jpg	1	3	1	non-food_inanimate_skateboard	0	W	16	0	208	0		0	0	176.261854499811	176.3618385999
35710	0.0999998999759555	387	hunger	stimuli/foods\cinnamon.jpg	1	3	1	cinnamon	1	K	7	0	30	0		0	0	176.411847299896	176.511847199872
35747.5	0.0999455999117345	388	hunger	stimuli/non_foods\non-food_inanimate_moss.jpg	1	3	1	non-food_inanimate_moss	0	V	15	0	194	0		0	0	176.561890699901	176.661836299812
35785	0.0999737998936325	389	hunger	stimuli/foods\lentils.jpg	1	3	1	lentils	1	M	9	0	74	0		0	0	176.711860599928	176.811834399821
35822.5	0.099974500015378	390	hunger	stimuli/foods\lamb_chops.jpg	1	3	1	lamb_chops	1	L	8	0	70	0		0	0	176.861844099825	176.961818599841
35860	0.0999775999225676	391	hunger	stimuli/foods\green_beans.jpg	1	3	1	green_beans	1	D	2	0	61	0		0	0	177.011846999871	177.111824599793
35897.5	0.0999854998663068	392	hunger	stimuli/foods\salami.jpg	1	3	1	salami	1	J	6	0	263	0		0	0	177.161831300007	177.261816799873
35935	0.0999962000641972	393	hunger	stimuli/foods\spaghetti_with_meat_sauce.jpg	1	3	1	spaghetti_with_meat_sauce	1	V	15	0	267	0		0	0	177.311828899896	177.41182509996
35972.5	0.10000229999423	394	hunger	stimuli/foods\toasted_bread_with_tomatoes.jpg	1	3	1	toasted_bread_with_tomatoes	1	Z	18	0	275	0		0	0	177.46182119986	177.561823499855
36010	0.099972500000149	395	hunger	stimuli/foods\fried_zucchini.jpg	1	3	1	fried_zucchini	1	F	3	0	51	0		0	0	177.611846799962	177.711819299962
36047.5	0.0999857001006603	396	hunger	stimuli/foods\minestrone_soup.jpg	1	3	1	minestrone_soup	1	R	12	0	82	0		0	0	177.76183289988	177.86181859998
36085	0.0999844002071768	397	hunger	stimuli/non_foods\non-food_animate_rhino.jpg	1	3	1	non-food_animate_rhino	0	W	16	0	141	0		0	0	177.911834499799	178.011818900006
36122.5	0.0999845000915229	398	hunger	stimuli/foods\brownie.jpg	1	3	1	brownie	1	X	17	0	14	0		0	0	178.061830599792	178.161815099884
36160	0.100014500087127	399	hunger	stimuli/non_foods\non-food_inanimate_buds.jpg	1	3	1	non-food_inanimate_buds	0	B	0	0	166	0		0	0	178.211829099804	178.311843599891
36197.5	0.0999351998325437	400	hunger	stimuli/foods\blackberry.jpg	1	3	1	blackberry	1	N	10	0	11	0		0	0	178.361849599984	178.461784799816
36235	0.0999888000078499	401	hunger	stimuli/non_foods\non-food_animate_skunk.jpg	1	3	1	non-food_animate_skunk	0	B	0	0	147	0		0	0	178.511818799889	178.611807599897
36272.5	0.0999835000839084	402	hunger	stimuli/foods\onion.jpg	1	3	1	onion	1	Z	18	0	229	0		0	0	178.661822399823	178.761805899907
36310	0.0999891001265496	403	hunger	stimuli/foods\salmon.jpg	1	3	1	salmon	1	H	5	0	264	0		0	0	178.811817899812	178.911806999939
36347.5	0.0999881001189351	404	hunger	stimuli/foods\raw_sausage.jpg	1	3	1	raw_sausage	1	J	6	0	254	0		0	0	178.961815399816	179.061803499935
36385	0.0999952000565827	405	hunger	stimuli/foods\honey.jpg	1	3	1	honey	1	N	10	0	66	0		0	0	179.111815699842	179.211810899898
36422.5	0.09998430009	406	hunger	stimuli/non_foods\non-food_animate_hummingbird.jpg	1	3	1	non-food_animate_hummingbird	0	S	13	0	120	0		0	0	179.261813799851	179.361798099941
36460	0.099964699940756	407	hunger	stimuli/non_foods\non-food_inanimate_short_sleeved_shirt.jpg	1	3	1	non-food_inanimate_short_sleeved_shirt	0	L	8	0	207	0		0	0	179.411833999911	179.511798699852
36497.5	0.099980799946934	408	hunger	stimuli/foods\fruit_pie.jpg	1	3	1	fruit_pie	1	W	16	0	54	0		0	0	179.561812599888	179.661793399835
36535	0.0999869999941438	409	hunger	stimuli/foods\mushroom.jpg	1	3	1	mushroom	1	N	10	0	85	0		0	0	179.711805799976	179.81179279997
36572.5	0.0999861001037061	410	hunger	stimuli/foods\papaya.jpg	1	3	1	papaya	1	G	4	0	235	0		0	0	179.861804399872	179.961790499976
36610	0.0999940000474453	411	hunger	stimuli/non_foods\non-food_inanimate_chair.jpg	1	3	1	non-food_inanimate_chair	0	K	7	0	172	0		0	0	180.011809399817	180.111803399865
36647.5	0.0999724001158029	412	hunger	stimuli/foods\ice_cream.jpg	1	3	1	ice_cream	1	V	15	0	68	0		0	0	180.161819199799	180.261791599914
36685	0.0999867001082748	413	hunger	stimuli/non_foods\non-food_animate_slug.jpg	1	3	1	non-food_animate_slug	0	Z	18	0	148	0		0	0	180.311799599789	180.411786299897
36722.5	0.100000000093132	414	hunger	stimuli/foods\prawn.jpg	1	3	1	prawn	1	X	17	0	249	0		0	0	180.461795999901	180.561795999995
36760	0.0999747000169009	415	hunger	stimuli/foods\fennel.jpg	1	3	1	fennel	1	J	6	0	47	0		0	0	180.61179619981	180.711770899827
36797.5	0.0999861999880522	416	hunger	stimuli/non_foods\non-food_animate_seahorse.jpg	1	3	1	non-food_animate_seahorse	0	F	3	0	145	0		0	0	180.761788700009	180.861774899997
36835	0.100002200109884	417	hunger	stimuli/foods\baked_cod_with_carrots_and_green_beans.jpg	1	3	1	baked_cod_with_carrots_and_green_beans	1	B	0	0	7	0		0	0	180.911777299829	181.011779499939
36872.5	0.0999900000169873	418	hunger	stimuli/non_foods\non-food_animate_donkey.jpg	1	3	1	non-food_animate_donkey	0	W	16	0	107	0		0	0	181.061784999911	181.161774999928
36910	0.099972799886018	419	hunger	stimuli/non_foods\non-food_animate_seal.jpg	1	3	1	non-food_animate_seal	0	H	5	0	146	0		0	0	181.21180239995	181.311775199836
37626.75	0.0999813999515027	420	hunger	stimuli/non_foods\non-food_inanimate_leaf.jpg	1	4	1	non-food_inanimate_leaf	0	R	12	0	192	0		0	0	184.07842509984	184.178406499792
37664.25	0.100003199884668	421	hunger	stimuli/foods\risotto_with_peas_and_asparagus_tips.jpg	1	4	1	risotto_with_peas_and_asparagus_tips	1	L	8	0	259	0		0	0	184.228418099927	184.328421299811
37701.75	0.0999781999271363	422	hunger	stimuli/foods\coffee_beans.jpg	1	4	1	coffee_beans	1	D	2	0	34	0		0	0	184.378419199958	184.478397399886
37739.25	0.09998430009	423	hunger	stimuli/non_foods\non-food_animate_clown.jpg	1	4	1	non-food_animate_clown	0	R	12	0	102	0		0	0	184.528436499881	184.628420799971
37776.75	0.0999453000258654	424	hunger	stimuli/foods\meatballs.jpg	1	4	1	meatballs	1	M	9	0	81	0		0	0	184.6784380998	184.778383399826
37814.25	0.0999796998221427	425	hunger	stimuli/foods\smoked_ham.jpg	1	4	1	smoked_ham	1	F	3	0	266	0		0	0	184.828415299999	184.928394999821
37851.75	0.0999887001235038	426	hunger	stimuli/non_foods\non-food_inanimate_briefcase.jpg	1	4	1	non-food_inanimate_briefcase	0	L	8	0	163	0		0	0	184.978404699825	185.078393399948
37889.25	0.0999863999895751	427	hunger	stimuli/foods\fried_calamari.jpg	1	4	1	fried_calamari	1	B	0	0	50	0		0	0	185.128408599878	185.228394999867
37926.75	0.0999807000625879	428	hunger	stimuli/foods\cracker.jpg	1	4	1	cracker	1	L	8	0	38	0		0	0	185.278405299876	185.378385999938
37964.25	0.0999914999119937	429	hunger	stimuli/non_foods\non-food_inanimate_rack.jpg	1	4	1	non-food_inanimate_rack	0	M	9	0	202	0		0	0	185.428404100006	185.528395599918
38001.75	0.0999835999682546	430	hunger	stimuli/non_foods\non-food_animate_monkey.jpg	1	4	1	non-food_animate_monkey	0	I	21	1	130	0		0	0	185.578400499886	185.678384099854
38039.25	0.0999542998615652	431	hunger	stimuli/foods\pea_pod.jpg	1	4	1	pea_pod	1	V	15	0	237	0		0	0	185.728432799922	185.828387099784
38076.75	0.099992600036785	432	hunger	stimuli/non_foods\non-food_inanimate_headphones.jpg	1	4	1	non-food_inanimate_headphones	0	L	8	0	188	0		0	0	185.878383499803	185.97837609984
38114.25	0.0999644999392331	433	hunger	stimuli/non_foods\non-food_animate_gorilla.jpg	1	4	1	non-food_animate_gorilla	0	D	2	0	116	0		0	0	186.028386699967	186.128351199906
38151.75	0.0999942000489682	434	hunger	stimuli/non_foods\non-food_inanimate_bamboo.jpg	1	4	1	non-food_inanimate_bamboo	0	W	16	0	159	1	a	0.700159300118685	1	186.178379599936	186.278373799985
38189.25	0.0999722999986261	435	hunger	stimuli/foods\dates.jpg	1	4	1	dates	1	R	12	0	43	0		0	0	186.328385500005	186.428357800003
38226.75	0.0999602999072522	436	hunger	stimuli/foods\cinnamon_sroll.jpg	1	4	1	cinnamon_sroll	1	W	16	0	31	0		0	0	186.478419499937	186.578379799845
38264.25	0.0999845999758691	437	hunger	stimuli/foods\almonds.jpg	1	4	1	almonds	1	G	4	0	0	0		0	0	186.628388999961	186.728373599937
38301.75	0.0999839999713004	438	hunger	stimuli/foods\lemon_meringue_pie.jpg	1	4	1	lemon_meringue_pie	1	S	13	0	73	0		0	0	186.778388699982	186.878372699954
38339.25	0.0999804998282343	439	hunger	stimuli/foods\oyster.jpg	1	4	1	oyster	1	W	16	0	233	0		0	0	186.928386799991	187.028367299819
38376.75	0.0999882000032812	440	hunger	stimuli/non_foods\non-food_inanimate_cupboard.jpg	1	4	1	non-food_inanimate_cupboard	0	Z	18	0	177	0		0	0	187.078380499966	187.17836869997
38414.25	0.0999829000793397	441	hunger	stimuli/foods\cooked_ham.jpg	1	4	1	cooked_ham	1	C	1	0	35	0		0	0	187.228383499896	187.328366399975
38451.75	0.099988300120458	442	hunger	stimuli/non_foods\non-food_inanimate_hammer.jpg	1	4	1	non-food_inanimate_hammer	0	S	13	0	186	0		0	0	187.378370199818	187.478358499939
38489.25	0.0999788001645356	443	hunger	stimuli/non_foods\non-food_inanimate_horn.jpg	1	4	1	non-food_inanimate_horn	0	C	1	0	190	0		0	0	187.528369099833	187.628347899998
38526.75	0.0999820998404175	444	hunger	stimuli/non_foods\non-food_animate_llama.jpg	1	4	1	non-food_animate_llama	0	K	7	0	127	0		0	0	187.678367499961	187.778349599801
38564.25	0.099985099863261	445	hunger	stimuli/non_foods\non-food_inanimate_tulip.jpg	1	4	1	non-food_inanimate_tulip	0	X	17	0	224	0		0	0	187.828364799963	187.928349899827
38601.75	0.0999812998343259	446	hunger	stimuli/non_foods\non-food_inanimate_speakers.jpg	1	4	1	non-food_inanimate_speakers	0	L	8	0	212	0		0	0	187.978367700009	188.078348999843
38639.25	0.0999775000382215	447	hunger	stimuli/foods\pancakes.jpg	1	4	1	pancakes	1	P	11	0	234	0		0	0	188.128371699946	188.228349199984
38676.75	0.0999628000427037	448	hunger	stimuli/foods\carrot.jpg	1	4	1	carrot	1	X	17	0	19	0		0	0	188.278383499943	188.378346299985
38714.25	0.0999833000823855	449	hunger	stimuli/foods\potatoes.jpg	1	4	1	potatoes	1	H	5	0	248	0		0	0	188.428370999871	188.528354299953
38751.75	0.099976500030607	450	hunger	stimuli/foods\figs.jpg	1	4	1	figs	1	R	12	0	48	0		0	0	188.578365099849	188.67834159988
38789.25	0.099980799946934	451	hunger	stimuli/foods\linguine_with_clams.jpg	1	4	1	linguine_with_clams	1	T	14	0	77	0		0	0	188.728354899911	188.828335699858
38826.75	0.100001299986616	452	hunger	stimuli/non_foods\non-food_inanimate_hay.jpg	1	4	1	non-food_inanimate_hay	0	H	5	0	187	0		0	0	188.878346099984	188.978347399971
38864.25	0.10000850004144	453	hunger	stimuli/non_foods\non-food_inanimate_towel.jpg	1	4	1	non-food_inanimate_towel	0	S	13	0	221	0		0	0	189.028333799914	189.128342299955
38901.75	0.099989399779588	454	hunger	stimuli/foods\cupcake.jpg	1	4	1	cupcake	1	K	7	0	42	0		0	0	189.178358200006	189.278347599786
38939.25	0.0999890000093728	455	hunger	stimuli/non_foods\non-food_animate_student_female.jpg	1	4	1	non-food_animate_student_female	0	C	1	0	151	0		0	0	189.328348799841	189.428337799851
38976.75	0.0999881001189351	456	hunger	stimuli/foods\pasta_carbonara.jpg	1	4	1	pasta_carbonara	1	N	10	0	236	0		0	0	189.478351499885	189.578339600004
39014.25	0.0999878000002354	457	hunger	stimuli/non_foods\non-food_inanimate_folding_chair.jpg	1	4	1	non-food_inanimate_folding_chair	0	K	7	0	182	0		0	0	189.628351899795	189.728339699795
39051.75	0.0999804001767188	458	hunger	stimuli/foods\pork_and_rice.jpg	1	4	1	pork_and_rice	1	T	14	0	245	0		0	0	189.778351199813	189.87833159999
39089.25	0.099980799946934	459	hunger	stimuli/non_foods\non-food_inanimate_stapler.jpg	1	4	1	non-food_inanimate_stapler	0	W	16	0	213	0		0	0	189.928353099851	190.028333899798
39126.75	0.0999718999955803	460	hunger	stimuli/foods\bagel.jpg	1	4	1	bagel	1	V	15	0	6	0		0	0	190.0783586998	190.178330599796
39164.25	0.0999833000823855	461	hunger	stimuli/non_foods\non-food_animate_woman.jpg	1	4	1	non-food_animate_woman	0	X	17	0	154	0		0	0	190.228347299853	190.328330599936
39201.75	0.0999760001432151	462	hunger	stimuli/foods\banana.jpg	1	4	1	banana	1	H	5	0	9	0		0	0	190.378346199868	190.478322200011
39239.25	0.0999738001264632	463	hunger	stimuli/non_foods\non-food_animate_cat.jpg	1	4	1	non-food_animate_cat	0	V	15	0	98	0		0	0	190.528350399807	190.628324199934
39276.75	0.100000699982047	464	hunger	stimuli/non_foods\non-food_animate_eagle.jpg	1	4	1	non-food_animate_eagle	0	W	16	0	110	0		0	0	190.678327200003	190.778327899985
39314.25	0.100015100091696	465	hunger	stimuli/non_foods\non-food_animate_dolphin.jpg	1	4	1	non-food_animate_dolphin	0	V	15	0	106	0		0	0	190.828308499884	190.928323599976
39351.75	0.0999942000489682	466	hunger	stimuli/non_foods\non-food_animate_frog.jpg	1	4	1	non-food_animate_frog	0	T	14	0	113	0		0	0	190.978327499935	191.078321699984
39389.25	0.0999833999667317	467	hunger	stimuli/non_foods\non-food_animate_grasshopper.jpg	1	4	1	non-food_animate_grasshopper	0	K	7	0	117	0		0	0	191.12833420001	191.228317599976
39426.75	0.0999856998678297	468	hunger	stimuli/non_foods\non-food_inanimate_shell.jpg	1	4	1	non-food_inanimate_shell	0	L	8	0	206	0		0	0	191.278330700006	191.378316399874
39464.25	0.0999706999864429	469	hunger	stimuli/foods\radish.jpg	1	4	1	radish	1	P	11	0	251	0		0	0	191.428327600006	191.528298299992
39501.75	0.0999809999484569	470	hunger	stimuli/foods\spinach.jpg	1	4	1	spinach	1	U	23	1	268	0		0	0	191.578335499857	191.678316499805
39539.25	0.0999741000123322	471	hunger	stimuli/non_foods\non-food_inanimate_socks.jpg	1	4	1	non-food_inanimate_socks	0	G	4	0	211	0		0	0	191.728308199905	191.828282299917
39576.75	0.0999825999606401	472	hunger	stimuli/foods\croissant.jpg	1	4	1	croissant	1	D	2	0	40	1	a	0.391818500123918	1	191.878328199964	191.978310799925
39614.25	0.0999865001067519	473	hunger	stimuli/non_foods\non-food_inanimate_drum_set.jpg	1	4	1	non-food_inanimate_drum_set	0	G	4	0	179	0		0	0	192.028319199802	192.128305699909
39651.75	0.0999793000519276	474	hunger	stimuli/non_foods\non-food_inanimate_bowling_ball.jpg	1	4	1	non-food_inanimate_bowling_ball	0	V	15	0	162	0		0	0	192.178320499836	192.278299799887
39689.25	0.0999931001570076	475	hunger	stimuli/foods\steak.jpg	1	4	1	steak	1	T	14	0	270	0		0	0	192.328318399843	192.4283115
39726.75	0.0999857999850065	476	hunger	stimuli/non_foods\non-food_animate_squirrel.jpg	1	4	1	non-food_animate_squirrel	0	Z	18	0	150	0		0	0	192.47831539996	192.578301199945
39764.25	0.0999663998372853	477	hunger	stimuli/non_foods\non-food_inanimate_soccer_ball.jpg	1	4	1	non-food_inanimate_soccer_ball	0	B	0	0	210	0		0	0	192.628314899979	192.728281299816
39801.75	0.0999842002056539	478	hunger	stimuli/non_foods\non-food_animate_chicken.jpg	1	4	1	non-food_animate_chicken	0	H	5	0	101	0		0	0	192.778303499799	192.878287700005
39839.25	0.0999934999272227	479	hunger	stimuli/foods\lasagna.jpg	1	4	1	lasagna	1	B	0	0	71	0		0	0	192.928318199934	193.028311699862
39876.75	0.0999826001934707	480	hunger	stimuli/non_foods\non-food_inanimate_canoe.jpg	1	4	1	non-food_inanimate_canoe	0	W	16	0	170	0		0	0	193.078312399797	193.178294999991
39914.25	0.0999568998813629	481	hunger	stimuli/non_foods\non-food_inanimate_button.jpg	1	4	1	non-food_inanimate_button	0	G	4	0	168	0		0	0	193.228309399914	193.328266299795
39951.75	0.0999873001128435	482	hunger	stimuli/foods\risotto_with_zucchini.jpg	1	4	1	risotto_with_zucchini	1	F	3	0	260	0		0	0	193.378303099889	193.478290400002
39989.25	0.0999714999925345	483	hunger	stimuli/foods\artichoke.jpg	1	4	1	artichoke	1	C	1	0	3	0		0	0	193.528317899909	193.628289399901
40026.75	0.0999841999728233	484	hunger	stimuli/foods\raw_ham.jpg	1	4	1	raw_ham	1	F	3	0	253	0		0	0	193.678301299922	193.778285499895
40064.25	0.0999675001949072	485	hunger	stimuli/foods\frankfurter_and_provolone_salad.jpg	1	4	1	frankfurter_and_provolone_salad	1	T	14	0	49	0		0	0	193.82830009982	193.928267600015
40101.75	0.100002499995753	486	hunger	stimuli/foods\fruit_salad.jpg	1	4	1	fruit_salad	1	V	15	0	55	0		0	0	193.978280799929	194.078283299925
40139.25	0.100012199953198	487	hunger	stimuli/foods\broccoli.jpg	1	4	1	broccoli	1	H	5	0	13	0		0	0	194.128271099878	194.228283299832
40176.75	0.0999857001006603	488	hunger	stimuli/foods\cauliflower.jpg	1	4	1	cauliflower	1	F	3	0	20	1	a	0	0	194.278293999843	194.378279699944
40214.25	0.0999831000808626	489	hunger	stimuli/non_foods\non-food_inanimate_nettle.jpg	1	4	1	non-food_inanimate_nettle	0	B	0	0	197	0		0	0	194.428285199916	194.528268299997
40251.75	0.0999700999818742	490	hunger	stimuli/non_foods\non-food_inanimate_desk.jpg	1	4	1	non-food_inanimate_desk	0	P	11	0	178	0		0	0	194.578284599818	194.6782546998
40289.25	0.0999869001097977	491	hunger	stimuli/foods\rice.jpg	1	4	1	rice	1	T	14	0	257	0		0	0	194.728287299862	194.828274199972
40326.75	0.0999851999804378	492	hunger	stimuli/non_foods\non-food_animate_ant.jpg	1	4	1	non-food_animate_ant	0	Z	18	0	91	0		0	0	194.87828659988	194.978271799861
40364.25	0.0999875999987125	493	hunger	stimuli/foods\hamburger.jpg	1	4	1	hamburger	1	W	16	0	64	0		0	0	195.028282899875	195.128270499874
40401.75	0.0999815999530256	494	hunger	stimuli/foods\avocado.jpg	1	4	1	avocado	1	N	10	0	5	0		0	0	195.178281900007	195.27826349996
40439.25	0.100000199861825	495	hunger	stimuli/foods\asparagus.jpg	1	4	1	asparagus	1	K	7	0	4	0		0	0	195.328269799938	195.4282699998
40476.75	0.099986599991098	496	hunger	stimuli/non_foods\non-food_inanimate_cap.jpg	1	4	1	non-food_inanimate_cap	0	H	5	0	171	0		0	0	195.478278499795	195.578265099786
40514.25	0.0999959001783282	497	hunger	stimuli/foods\oven-roasted_tomatoes.jpg	1	4	1	oven-roasted_tomatoes	1	W	16	0	232	0		0	0	195.628260099795	195.728255999973
40551.75	0.0999732001218945	498	hunger	stimuli/non_foods\non-food_inanimate_teddy_bear.jpg	1	4	1	non-food_inanimate_teddy_bear	0	X	17	0	218	0		0	0	195.778265399858	195.87823859998
40589.25	0.0999815000686795	499	hunger	stimuli/non_foods\non-food_animate_sea_turtle.jpg	1	4	1	non-food_animate_sea_turtle	0	V	15	0	144	0		0	0	195.928274999838	196.028256499907
40626.75	0.099976200144738	500	hunger	stimuli/non_foods\non-food_animate_young_girl.jpg	1	4	1	non-food_animate_young_girl	0	Z	18	0	157	0		0	0	196.078271499835	196.17824769998
40664.25	0.0999678000807762	501	hunger	stimuli/non_foods\non-food_inanimate_toy_airplane.jpg	1	4	1	non-food_inanimate_toy_airplane	0	N	10	0	222	0		0	0	196.228268799838	196.328236599918
40701.75	0.100009199930355	502	hunger	stimuli/foods\celery.jpg	1	4	1	celery	1	C	1	0	21	0		0	0	196.378242200008	196.478251399938
40739.25	0.0999793999362737	503	hunger	stimuli/non_foods\non-food_animate_yellow_bug.jpg	1	4	1	non-food_animate_yellow_bug	0	P	11	0	155	0		0	0	196.528265799861	196.628245199798
40776.75	0.0999748001340777	504	hunger	stimuli/foods\coconut.jpg	1	4	1	coconut	1	B	0	0	33	0		0	0	196.67824599985	196.778220799984
40814.25	0.099985099863261	505	hunger	stimuli/foods\oregano.jpg	1	4	1	oregano	1	W	16	0	231	0		0	0	196.828256499954	196.928241599817
40851.75	0.0999940999317914	506	hunger	stimuli/foods\red_beans.jpg	1	4	1	red_beans	1	C	1	0	255	0		0	0	196.978256799979	197.078250899911
40889.25	0.0999584000092	507	hunger	stimuli/foods\cherry.jpg	1	4	1	cherry	1	K	7	0	23	0		0	0	197.128284199862	197.228242599871
40926.75	0.0999861001037061	508	hunger	stimuli/foods\green_olives.jpg	1	4	1	green_olives	1	J	6	0	62	0		0	0	197.278256199788	197.378242299892
40964.25	0.0999880000017583	509	hunger	stimuli/non_foods\non-food_inanimate_bush.jpg	1	4	1	non-food_inanimate_bush	0	Z	18	0	167	0		0	0	197.428255399922	197.528243399924
41001.75	0.0999839999713004	510	hunger	stimuli/foods\peach.jpg	1	4	1	peach	1	L	8	0	238	0		0	0	197.578252899926	197.678236899897
41039.25	0.0999650000594556	511	hunger	stimuli/non_foods\non-food_inanimate_broom.jpg	1	4	1	non-food_inanimate_broom	0	M	9	0	164	0		0	0	197.728253299836	197.828218299896
41076.75	0.09998430009	512	hunger	stimuli/foods\waffle.jpg	1	4	1	waffle	1	N	10	0	278	0		0	0	197.878239899874	197.978224199964
41114.25	0.0999839999713004	513	hunger	stimuli/foods\eggplant.jpg	1	4	1	eggplant	1	K	7	0	46	0		0	0	198.028238599887	198.128222599858
41151.75	0.0999996999744326	514	hunger	stimuli/non_foods\non-food_inanimate_nest.jpg	1	4	1	non-food_inanimate_nest	0	L	8	0	196	0		0	0	198.178232899867	198.278232599841
41189.25	0.0999847000930458	515	hunger	stimuli/foods\rockmelon.jpg	1	4	1	rockmelon	1	V	15	0	262	0		0	0	198.328244099859	198.428228799952
41226.75	0.0999672999605536	516	hunger	stimuli/non_foods\non-food_animate_Causasian_man.jpg	1	4	1	non-food_animate_Causasian_man	0	D	2	0	89	0		0	0	198.478241099976	198.578208399937
41264.25	0.10000059986487	517	hunger	stimuli/foods\chestnut.jpg	1	4	1	chestnut	1	W	16	0	24	0		0	0	198.628222699976	198.72822329984
41301.75	0.0999871999956667	518	hunger	stimuli/non_foods\non-food_inanimate_jeans.jpg	1	4	1	non-food_inanimate_jeans	0	V	15	0	191	0		0	0	198.7782381	198.878225299995
41339.25	0.0999646000564098	519	hunger	stimuli/foods\corncob.jpg	1	4	1	corncob	1	K	7	0	37	0		0	0	198.928258199943	199.0282228
41376.75	0.0999783000443131	520	hunger	stimuli/foods\capsicum.jpg	1	4	1	capsicum	1	P	11	0	18	0		0	0	199.078237599926	199.17821589997
41414.25	0.09998430009	521	hunger	stimuli/non_foods\non-food_animate_owl.jpg	1	4	1	non-food_animate_owl	0	T	14	0	132	0		0	0	199.22822449985	199.32820879994
41451.75	0.0999748001340777	522	hunger	stimuli/non_foods\non-food_animate_green_bug.jpg	1	4	1	non-food_animate_green_bug	0	L	8	0	118	0		0	0	199.378234299831	199.478209099965
41489.25	0.0999950000550598	523	hunger	stimuli/foods\kiwi.jpg	1	4	1	kiwi	1	J	6	0	69	0		0	0	199.528218699852	199.628213699907
41526.75	0.0999844998586923	524	hunger	stimuli/non_foods\non-food_inanimate_watering_can.jpg	1	4	1	non-food_inanimate_watering_can	0	R	12	0	225	0		0	0	199.678225999931	199.77821049979
41564.25	0.09998430009	525	hunger	stimuli/foods\potato_chips.jpg	1	4	1	potato_chips	1	T	14	0	247	0		0	0	199.82822759985	199.92821189994
41601.75	0.0999829000793397	526	hunger	stimuli/non_foods\non-food_inanimate_rope.jpg	1	4	1	non-food_inanimate_rope	0	B	0	0	204	0		0	0	199.978225099854	200.078207999934
41639.25	0.0999857999850065	527	hunger	stimuli/foods\brie.jpg	1	4	1	brie	1	P	11	0	12	0		0	0	200.12821929995	200.228205099935
41676.75	0.099984799977392	528	hunger	stimuli/foods\pumpkin.jpg	1	4	1	pumpkin	1	F	3	0	250	0		0	0	200.278218599968	200.378203399945
41714.25	0.0999881001189351	529	hunger	stimuli/foods\strawberry.jpg	1	4	1	strawberry	1	H	5	0	272	0		0	0	200.428214999847	200.528203099966
41751.75	0.0999861001037061	530	hunger	stimuli/foods\cabbage.jpg	1	4	1	cabbage	1	L	8	0	16	0		0	0	200.578216699883	200.678202799987
41789.25	0.0999651001766324	531	hunger	stimuli/non_foods\non-food_inanimate_bucket.jpg	1	4	1	non-food_inanimate_bucket	0	P	11	0	165	0		0	0	200.728233199799	200.828198299976
41826.75	0.0999779000412673	532	hunger	stimuli/non_foods\non-food_inanimate_highlighter.jpg	1	4	1	non-food_inanimate_highlighter	0	M	9	0	189	0		0	0	200.878221499966	200.978199400008
41864.25	0.0999863999895751	533	hunger	stimuli/foods\mussels.jpg	1	4	1	mussels	1	K	7	0	86	0		0	0	201.028208100004	201.128194499994
41901.75	0.0999670999590307	534	hunger	stimuli/foods\pomegranate.jpg	1	4	1	pomegranate	1	R	12	0	244	0		0	0	201.178206499899	201.278173599858
41939.25	0.0999918999150395	535	hunger	stimuli/non_foods\non-food_inanimate_sun_flower.jpg	1	4	1	non-food_inanimate_sun_flower	0	K	7	0	216	0		0	0	201.328202599892	201.428194499807
41976.75	0.0999754001386464	536	hunger	stimuli/foods\garlic.jpg	1	4	1	garlic	1	N	10	0	56	0		0	0	201.478210999863	201.578186400002
42014.25	0.0999861999880522	537	hunger	stimuli/foods\egg.jpg	1	4	1	egg	1	F	3	0	45	0		0	0	201.628201599931	201.728187799919
42051.75	0.09998430009	538	hunger	stimuli/non_foods\non-food_inanimate_ring.jpg	1	4	1	non-food_inanimate_ring	0	Z	18	0	203	0		0	0	201.778202399844	201.878186699934
42089.25	0.0999836998526007	539	hunger	stimuli/non_foods\non-food_animate_butterfly.jpg	1	4	1	non-food_animate_butterfly	0	V	15	0	96	0		0	0	201.928198799957	202.028182499809
42126.75	0.0999841999728233	540	hunger	stimuli/foods\lemon.jpg	1	4	1	lemon	1	L	8	0	72	0		0	0	202.07819839986	202.178182599833
42164.25	0.0999869999941438	541	hunger	stimuli/non_foods\non-food_inanimate_toilet.jpg	1	4	1	non-food_inanimate_toilet	0	F	3	0	220	0		0	0	202.228192999959	202.328179999953
42201.75	0.0999885001219809	542	hunger	stimuli/non_foods\non-food_inanimate_tent.jpg	1	4	1	non-food_inanimate_tent	0	Z	18	0	219	0		0	0	202.378192999866	202.478181499988
42239.25	0.0999616000335664	543	hunger	stimuli/foods\peas.jpg	1	4	1	peas	1	W	16	0	240	0		0	0	202.528211199911	202.628172799945
42276.75	0.100001800106838	544	hunger	stimuli/non_foods\non-food_animate_millipede.jpg	1	4	1	non-food_animate_millipede	0	L	8	0	129	0		0	0	202.6781628998	202.778164699906
42314.25	0.0999739000108093	545	hunger	stimuli/non_foods\non-food_inanimate_lighter.jpg	1	4	1	non-food_inanimate_lighter	0	C	1	0	193	0		0	0	202.828182499856	202.928156399867
42351.75	0.0999826998449862	546	hunger	stimuli/foods\grapefruits.jpg	1	4	1	grapefruits	1	H	5	0	59	0		0	0	202.978178699967	203.078161399812
42389.25	0.0999844998586923	547	hunger	stimuli/foods\baked_lamb_with_potatoes.jpg	1	4	1	baked_lamb_with_potatoes	1	F	3	0	8	0		0	0	203.128176999977	203.228161499836
42426.75	0.0999596000183374	548	hunger	stimuli/non_foods\non-food_animate_caterpillar.jpg	1	4	1	non-food_animate_caterpillar	0	G	4	0	99	0		0	0	203.278187199961	203.37814679998
42464.25	0.0999901001341641	549	hunger	stimuli/non_foods\non-food_inanimate_padlock.jpg	1	4	1	non-food_inanimate_padlock	0	V	15	0	199	0		0	0	203.428176799789	203.528166899923
42501.75	0.0999775000382215	550	hunger	stimuli/foods\cooked_prawn.jpg	1	4	1	cooked_prawn	1	M	9	0	36	0		0	0	203.578178999946	203.678156499984
42539.25	0.0999847000930458	551	hunger	stimuli/non_foods\non-food_animate_killer_whale.jpg	1	4	1	non-food_animate_killer_whale	0	G	4	0	123	0		0	0	203.728176799836	203.828161499929
42576.75	0.0999853000976145	552	hunger	stimuli/non_foods\non-food_animate_sea_lion.jpg	1	4	1	non-food_animate_sea_lion	0	Z	18	0	143	0		0	0	203.878175299847	203.978160599945
42614.25	0.099974500015378	553	hunger	stimuli/non_foods\non-food_inanimate_protractor.jpg	1	4	1	non-food_inanimate_protractor	0	K	7	0	201	0		0	0	204.028174199862	204.128148699878
42651.75	0.0999786001630127	554	hunger	stimuli/foods\apple.jpg	1	4	1	apple	1	P	11	0	1	0		0	0	204.178177399794	204.278155999957
42689.25	0.100002499995753	555	hunger	stimuli/foods\hotdog.jpg	1	4	1	hotdog	1	N	10	0	67	0		0	0	204.328156800009	204.428159300005
42726.75	0.0999834998510778	556	hunger	stimuli/non_foods\non-food_animate_raccoon.jpg	1	4	1	non-food_animate_raccoon	0	H	5	0	139	0		0	0	204.478169000009	204.57815249986
42764.25	0.0999851999804378	557	hunger	stimuli/foods\grapes.jpg	1	4	1	grapes	1	C	1	0	60	0		0	0	204.628165100003	204.728150299983
42801.75	0.100003300001845	558	hunger	stimuli/foods\apricot.jpg	1	4	1	apricot	1	T	14	0	2	0		0	0	204.778136999812	204.878140299814
42839.25	0.0999803999438882	559	hunger	stimuli/non_foods\non-food_animate_ram.jpg	1	4	1	non-food_animate_ram	0	S	13	0	140	0		0	0	204.928155099973	205.028135499917
43218.25	0.0999734001234174	560	hunger	stimuli/foods\apricot.jpg	1	5	1	apricot	1	T	14	0	2	1	a	0	0	206.444810799789	206.544784199912
43255.75	0.0999859999865294	561	hunger	stimuli/non_foods\non-food_inanimate_bed.jpg	1	5	1	non-food_inanimate_bed	0	G	4	0	160	0		0	0	206.59479569993	206.694781699916
43293.25	0.0999984000809491	562	hunger	stimuli/non_foods\non-food_animate_kangaroo.jpg	1	5	1	non-food_animate_kangaroo	0	H	5	0	122	0		0	0	206.744792999933	206.844791400013
43330.75	0.09998430009	563	hunger	stimuli/foods\roasted_chicken.jpg	1	5	1	roasted_chicken	1	R	12	0	261	0		0	0	206.894801399903	206.994785699993
43368.25	0.0999660999514163	564	hunger	stimuli/non_foods\non-food_animate_Asian_man.jpg	1	5	1	non-food_animate_Asian_man	0	Z	18	0	88	0		0	0	207.044821499847	207.144787599798
43405.75	0.099982300074771	565	hunger	stimuli/non_foods\non-food_animate_peacock.jpg	1	5	1	non-food_animate_peacock	0	M	9	0	134	0		0	0	207.194798999932	207.294781300006
43443.25	0.0999887001235038	566	hunger	stimuli/non_foods\non-food_animate_monkey.jpg	1	5	1	non-food_animate_monkey	0	L	8	0	130	0		0	0	207.344795799814	207.444784499938
43480.75	0.0999862998723984	567	hunger	stimuli/non_foods\non-food_animate_student_female.jpg	1	5	1	non-food_animate_student_female	0	D	2	0	151	0		0	0	207.494792999933	207.594779299805
43518.25	0.100007000146434	568	hunger	stimuli/foods\fruit_flan.jpg	1	5	1	fruit_flan	1	T	14	0	53	0		0	0	207.644793599844	207.74480059999
43555.75	0.0999149999115616	569	hunger	stimuli/foods\grilled_chicken_breast.jpg	1	5	1	grilled_chicken_breast	1	S	13	0	63	0		0	0	207.794849799946	207.894764799858
43593.25	0.0999835999682546	570	hunger	stimuli/non_foods\non-food_inanimate_padlock.jpg	1	5	1	non-food_inanimate_padlock	0	X	17	0	199	0		0	0	207.944785299944	208.044768899912
43630.75	0.0999982999637723	571	hunger	stimuli/non_foods\non-food_animate_young_girl.jpg	1	5	1	non-food_animate_young_girl	0	B	0	0	157	0		0	0	208.094778399915	208.194776699878
43668.25	0.0999807000625879	572	hunger	stimuli/non_foods\non-food_animate_seahorse.jpg	1	5	1	non-food_animate_seahorse	0	V	15	0	145	0		0	0	208.244792299811	208.344772999873
43705.75	0.0999867001082748	573	hunger	stimuli/foods\risotto_with_zucchini.jpg	1	5	1	risotto_with_zucchini	1	W	16	0	260	0		0	0	208.394771199906	208.494757900015
43743.25	0.100006200140342	574	hunger	stimuli/non_foods\non-food_inanimate_nest.jpg	1	5	1	non-food_inanimate_nest	0	M	9	0	196	0		0	0	208.544762499863	208.644768700004
43780.75	0.0999853000976145	575	hunger	stimuli/foods\lasagna.jpg	1	5	1	lasagna	1	W	16	0	71	0		0	0	208.694783599814	208.794768899912
43818.25	0.0999737000092864	576	hunger	stimuli/non_foods\non-food_animate_butterfly.jpg	1	5	1	non-food_animate_butterfly	0	F	3	0	96	0		0	0	208.844790699892	208.944764399901
43855.75	0.0999990000855178	577	hunger	stimuli/non_foods\non-food_inanimate_short_sleeved_shirt.jpg	1	5	1	non-food_inanimate_short_sleeved_shirt	0	N	10	0	207	0		0	0	208.994766099844	209.09476509993
43893.25	0.0999562998767942	578	hunger	stimuli/non_foods\non-food_inanimate_horn.jpg	1	5	1	non-food_inanimate_horn	0	X	17	0	190	0		0	0	209.144779199967	209.244735499844
43930.75	0.0999873001128435	579	hunger	stimuli/non_foods\non-food_inanimate_teddy_bear.jpg	1	5	1	non-food_inanimate_teddy_bear	0	D	2	0	218	0		0	0	209.294771399815	209.394758699927
43968.25	0.0999959998298436	580	hunger	stimuli/foods\brussel_sprouts.jpg	1	5	1	brussel_sprouts	1	L	8	0	15	0		0	0	209.444777800003	209.544773799833
44005.75	0.0999636000487953	581	hunger	stimuli/non_foods\non-food_inanimate_waterlily.jpg	1	5	1	non-food_inanimate_waterlily	0	T	14	0	226	0		0	0	209.59479259979	209.694756199839
44043.25	0.0999829999636859	582	hunger	stimuli/non_foods\non-food_inanimate_suitcase.jpg	1	5	1	non-food_inanimate_suitcase	0	F	3	0	215	0		0	0	209.744768399978	209.844751399942
44080.75	0.0999861999880522	583	hunger	stimuli/non_foods\non-food_animate_baby_sitting.jpg	1	5	1	non-food_animate_baby_sitting	0	G	4	0	93	0		0	0	209.894766099984	209.994752299972
44118.25	0.0999882000032812	584	hunger	stimuli/non_foods\non-food_inanimate_bush.jpg	1	5	1	non-food_inanimate_bush	0	L	8	0	167	0		0	0	210.044764199993	210.144752399996
44155.75	0.0999813000671566	585	hunger	stimuli/foods\onion.jpg	1	5	1	onion	1	X	17	0	229	0		0	0	210.194764999906	210.294746299973
44193.25	0.0999831000808626	586	hunger	stimuli/foods\peas.jpg	1	5	1	peas	1	R	12	0	240	0		0	0	210.344762099907	210.444745199988
44230.75	0.0999861999880522	587	hunger	stimuli/non_foods\non-food_inanimate_bowling_ball.jpg	1	5	1	non-food_inanimate_bowling_ball	0	X	17	0	162	0		0	0	210.494759599911	210.594745799899
44268.25	0.0999650999438018	588	hunger	stimuli/foods\red_beans.jpg	1	5	1	red_beans	1	J	6	0	255	0		0	0	210.644776199944	210.744741299888
44305.75	0.0999869999941438	589	hunger	stimuli/non_foods\non-food_inanimate_towel.jpg	1	5	1	non-food_inanimate_towel	0	W	16	0	221	0		0	0	210.794754699804	210.894741699798
44343.25	0.0999739998951554	590	hunger	stimuli/foods\frankfurter_and_provolone_salad.jpg	1	5	1	frankfurter_and_provolone_salad	1	X	17	0	49	0		0	0	210.944753499934	211.04472749983
44380.75	0.09998430009	591	hunger	stimuli/non_foods\non-food_inanimate_fire_extinguisher.jpg	1	5	1	non-food_inanimate_fire_extinguisher	0	W	16	0	181	0		0	0	211.094752099831	211.194736399921
44418.25	0.100013199960813	592	hunger	stimuli/non_foods\non-food_inanimate_cupboard.jpg	1	5	1	non-food_inanimate_cupboard	0	P	11	0	177	0		0	0	211.244757399894	211.344770599855
44455.75	0.0999718001112342	593	hunger	stimuli/foods\cupcake.jpg	1	5	1	cupcake	1	J	6	0	42	0		0	0	211.394760799827	211.494732599938
44493.25	0.0999882000032812	594	hunger	stimuli/foods\baked_lamb_with_potatoes.jpg	1	5	1	baked_lamb_with_potatoes	1	G	4	0	8	0		0	0	211.544744099956	211.644732299959
44530.75	0.0999829999636859	595	hunger	stimuli/foods\pancakes.jpg	1	5	1	pancakes	1	B	0	0	234	0		0	0	211.69474629988	211.794729299843
44568.25	0.0999869001097977	596	hunger	stimuli/non_foods\non-food_inanimate_bucket.jpg	1	5	1	non-food_inanimate_bucket	0	C	1	0	165	0		0	0	211.844739599852	211.944726499962
44605.75	0.0999892000108957	597	hunger	stimuli/non_foods\non-food_inanimate_guitar.jpg	1	5	1	non-food_inanimate_guitar	0	G	4	0	185	0		0	0	211.994738199981	212.094727399992
44643.25	0.0999735000077635	598	hunger	stimuli/non_foods\non-food_inanimate_tree.jpg	1	5	1	non-food_inanimate_tree	0	S	13	0	223	0		0	0	212.144740399905	212.244713899912
44680.75	0.0999865001067519	599	hunger	stimuli/non_foods\non-food_inanimate_folding_chair.jpg	1	5	1	non-food_inanimate_folding_chair	0	T	14	0	182	0		0	0	212.294725499814	212.394711999921
44718.25	0.0999352000653744	600	hunger	stimuli/foods\coconut.jpg	1	5	1	coconut	1	B	0	0	33	0		0	0	212.444761199877	212.544696399942
44755.75	0.0999880000017583	601	hunger	stimuli/foods\toasted_bread_with_tomatoes.jpg	1	5	1	toasted_bread_with_tomatoes	1	V	15	0	275	0		0	0	212.594729499891	212.694717499893
44793.25	0.0999843999743462	602	hunger	stimuli/non_foods\non-food_inanimate_chandelier.jpg	1	5	1	non-food_inanimate_chandelier	0	N	10	0	173	0		0	0	212.74473279994	212.844717199914
44830.75	0.0999859999865294	603	hunger	stimuli/foods\cinnamon.jpg	1	5	1	cinnamon	1	Z	18	0	30	0		0	0	212.894731499953	212.99471749994
44868.25	0.0999493999406695	604	hunger	stimuli/foods\pasta_carbonara.jpg	1	5	1	pasta_carbonara	1	K	7	0	236	0		0	0	213.044746899977	213.144696299918
44905.75	0.0999584998935461	605	hunger	stimuli/foods\nectarine.jpg	1	5	1	nectarine	1	P	11	0	87	0		0	0	213.194734399905	213.294692899799
44943.25	0.0999613001476973	606	hunger	stimuli/foods\salami.jpg	1	5	1	salami	1	W	16	0	263	0		0	0	213.344723099843	213.44468439999
44980.75	0.0999863999895751	607	hunger	stimuli/foods\apple.jpg	1	5	1	apple	1	L	8	0	1	0		0	0	213.494713699911	213.5947000999
45018.25	0.0999961001798511	608	hunger	stimuli/foods\prawn.jpg	1	5	1	prawn	1	J	6	0	249	0		0	0	213.644711499801	213.744707599981
45055.75	0.0999582000076771	609	hunger	stimuli/non_foods\non-food_animate_hummingbird.jpg	1	5	1	non-food_animate_hummingbird	0	L	8	0	120	0		0	0	213.794718199875	213.894676399883
45093.25	0.0999888998921961	610	hunger	stimuli/foods\baked_cod_with_carrots_and_green_beans.jpg	1	5	1	baked_cod_with_carrots_and_green_beans	1	W	16	0	7	0		0	0	213.944716600003	214.044705499895
45130.75	0.100007599918172	611	hunger	stimuli/non_foods\non-food_inanimate_canoe.jpg	1	5	1	non-food_inanimate_canoe	0	V	15	0	170	0		0	0	214.094715199899	214.194722799817
45168.25	0.0999644000548869	612	hunger	stimuli/non_foods\non-food_inanimate_ring.jpg	1	5	1	non-food_inanimate_ring	0	L	8	0	203	0		0	0	214.244733099826	214.344697499881
45205.75	0.0999824001919478	613	hunger	stimuli/foods\swordfish.jpg	1	5	1	swordfish	1	D	2	0	273	0		0	0	214.394712899812	214.494695300004
45243.25	0.0999849999789149	614	hunger	stimuli/foods\artichoke.jpg	1	5	1	artichoke	1	M	9	0	3	0		0	0	214.544710499933	214.644695499912
45280.75	0.100007300032303	615	hunger	stimuli/non_foods\non-food_animate_green_bug.jpg	1	5	1	non-food_animate_green_bug	0	D	2	0	118	0		0	0	214.694703399902	214.794710699935
45318.25	0.0999799000564963	616	hunger	stimuli/non_foods\non-food_animate_owl.jpg	1	5	1	non-food_animate_owl	0	Z	18	0	132	0		0	0	214.844715899788	214.944695799844
45355.75	0.0999882000032812	617	hunger	stimuli/foods\croissant.jpg	1	5	1	croissant	1	M	9	0	40	0		0	0	214.994702499826	215.094690699829
45393.25	0.0999823999591172	618	hunger	stimuli/non_foods\non-food_inanimate_socks.jpg	1	5	1	non-food_inanimate_socks	0	T	14	0	211	0		0	0	215.144705199869	215.244687599828
45430.75	0.0999851999804378	619	hunger	stimuli/foods\pickles.jpg	1	5	1	pickles	1	C	1	0	242	0		0	0	215.29470089986	215.39468609984
45468.25	0.0999664000701159	620	hunger	stimuli/non_foods\non-food_inanimate_bicycle.jpg	1	5	1	non-food_inanimate_bicycle	0	V	15	0	161	0		0	0	215.444695599843	215.544661999913
45505.75	0.0999859001021832	621	hunger	stimuli/foods\taco.jpg	1	5	1	taco	1	C	1	0	274	0		0	0	215.594684399897	215.694670299999
45543.25	0.0999875999987125	622	hunger	stimuli/non_foods\non-food_animate_porcupine.jpg	1	5	1	non-food_animate_porcupine	0	J	6	0	138	0		0	0	215.744685299927	215.844672899926
45580.75	0.0999982000794262	623	hunger	stimuli/non_foods\non-food_animate_swan.jpg	1	5	1	non-food_animate_swan	0	C	1	0	152	0		0	0	215.894680699799	215.994678899879
45618.25	0.0999656999483705	624	hunger	stimuli/non_foods\non-food_inanimate_rope.jpg	1	5	1	non-food_inanimate_rope	0	L	8	0	204	0		0	0	216.044704400003	216.144670099951
45655.75	0.0999818998388946	625	hunger	stimuli/foods\papaya.jpg	1	5	1	papaya	1	T	14	0	235	0		0	0	216.194678999949	216.294660899788
45693.25	0.0999845999758691	626	hunger	stimuli/non_foods\non-food_animate_ram.jpg	1	5	1	non-food_animate_ram	0	X	17	0	140	0		0	0	216.344683199888	216.444667799864
45730.75	0.0999909001402557	627	hunger	stimuli/non_foods\non-food_animate_ant.jpg	1	5	1	non-food_animate_ant	0	G	4	0	91	0		0	0	216.494676099857	216.594666999998
45768.25	0.099978500045836	628	hunger	stimuli/foods\blackberry.jpg	1	5	1	blackberry	1	I	21	1	11	0		0	0	216.644682699814	216.74466119986
45805.75	0.0999793000519276	629	hunger	stimuli/non_foods\non-food_inanimate_couch.jpg	1	5	1	non-food_inanimate_couch	0	R	12	0	176	0		0	0	216.79467639979	216.894655699842
45843.25	0.099982799962163	630	hunger	stimuli/foods\cinnamon_sroll.jpg	1	5	1	cinnamon_sroll	1	K	7	0	31	0		0	0	216.944672399899	217.044655199861
45880.75	0.100009799934924	631	hunger	stimuli/foods\lollies.jpg	1	5	1	lollies	1	D	2	0	78	0		0	0	217.094662399963	217.194672199897
45918.25	0.10000880016014	632	hunger	stimuli/non_foods\non-food_animate_young_boy.jpg	1	5	1	non-food_animate_young_boy	0	X	17	0	156	0		0	0	217.244654799812	217.344663599972
45955.75	0.100012799957767	633	hunger	stimuli/foods\oyster.jpg	1	5	1	oyster	1	S	13	0	233	0		0	0	217.394647399895	217.494660199853
45993.25	0.0999739998951554	634	hunger	stimuli/non_foods\non-food_inanimate_tulip.jpg	1	5	1	non-food_inanimate_tulip	0	H	5	0	224	0		0	0	217.544674200006	217.644648199901
46030.75	0.0999880000017583	635	hunger	stimuli/non_foods\non-food_inanimate_cactus_pot_plant.jpg	1	5	1	non-food_inanimate_cactus_pot_plant	0	L	8	0	169	0		0	0	217.694657499902	217.794645499904
46068.25	0.0999435000121593	636	hunger	stimuli/non_foods\non-food_inanimate_toilet.jpg	1	5	1	non-food_inanimate_toilet	0	V	15	0	220	0		0	0	217.844711199868	217.944654699881
46105.75	0.0999827000778168	637	hunger	stimuli/non_foods\non-food_inanimate_rack.jpg	1	5	1	non-food_inanimate_rack	0	W	16	0	202	0		0	0	217.99466899992	218.094651699997
46143.25	0.0999769000336528	638	hunger	stimuli/foods\pear.jpg	1	5	1	pear	1	G	4	0	239	0		0	0	218.144664899912	218.244641799945
46180.75	0.100000699982047	639	hunger	stimuli/non_foods\non-food_animate_iguana.jpg	1	5	1	non-food_animate_iguana	0	V	15	0	121	0		0	0	218.294663599925	218.394664299907
46218.25	0.0999425000045449	640	hunger	stimuli/non_foods\non-food_animate_clown.jpg	1	5	1	non-food_animate_clown	0	H	5	0	102	0		0	0	218.444703799905	218.54464629991
46255.75	0.0999686999712139	641	hunger	stimuli/foods\fried_zucchini.jpg	1	5	1	fried_zucchini	1	R	12	0	51	0		0	0	218.594681099989	218.69464979996
46293.25	0.0999835999682546	642	hunger	stimuli/non_foods\non-food_inanimate_toy_airplane.jpg	1	5	1	non-food_inanimate_toy_airplane	0	W	16	0	222	0		0	0	218.74465979985	218.844643399818
