onset	duration	eventnumber	hunger_condition	stimfilename	blockno	trialno	is_faststream	stim	food_idx	letter	letter_idx	istarget	image_number	response	keypressed	rt	correct	time_stimon	time_stimoff
15959	0.0999758000252768	0	satiated	stimuli/foods\raw_ham.jpg	1	1	1	raw_ham	1	N	10	0	253	0		0	0	76.513018000056	76.6129938000813
15996.5	0.100007300032303	1	satiated	stimuli/non_foods\non-food_animate_ram.jpg	1	1	1	non-food_animate_ram	0	B	0	0	140	0		0	0	76.6630285000429	76.7630358000752
16034	0.0999600999057293	2	satiated	stimuli/foods\banana.jpg	1	1	1	banana	1	S	13	0	9	0		0	0	76.8130015000934	76.9129615999991
16071.5	0.099998899968341	3	satiated	stimuli/foods\radish.jpg	1	1	1	radish	1	W	16	0	251	0		0	0	76.9629767000442	77.0629756000126
16109	0.0999833999667317	4	satiated	stimuli/non_foods\non-food_animate_grasshopper.jpg	1	1	1	non-food_animate_grasshopper	0	H	5	0	117	0		0	0	77.1129896000493	77.2129730000161
16146.5	0.0999808999476954	5	satiated	stimuli/foods\mushroom.jpg	1	1	1	mushroom	1	S	13	0	85	0		0	0	77.262988200062	77.3629691000096
16184	0.0999902000185102	6	satiated	stimuli/foods\honey.jpg	1	1	1	honey	1	T	14	0	66	0		0	0	77.4129921999993	77.5129824000178
16221.5	0.0999854999827221	7	satiated	stimuli/foods\nectarine.jpg	1	1	1	nectarine	1	K	7	0	87	0		0	0	77.5629947000416	77.6629802000243
16259	0.0999864999903366	8	satiated	stimuli/non_foods\non-food_inanimate_stoplight.jpg	1	1	1	non-food_inanimate_stoplight	0	T	14	0	214	0		0	0	77.7129932000535	77.8129797000438
16296.5	0.0999722999986261	9	satiated	stimuli/foods\green_beans.jpg	1	1	1	green_beans	1	B	0	0	61	0		0	0	77.8630033000372	77.9629756000359
16334	0.100004500010982	10	satiated	stimuli/foods\gnocchi.jpg	1	1	1	gnocchi	1	Z	18	0	58	0		0	0	78.0129676000215	78.1129721000325
16371.5	0.0999851999804378	11	satiated	stimuli/non_foods\non-food_animate_raccoon.jpg	1	1	1	non-food_animate_raccoon	0	S	13	0	139	0		0	0	78.1629868000746	78.262972000055
16409	0.0999936000443995	12	satiated	stimuli/non_foods\non-food_animate_deer.jpg	1	1	1	non-food_animate_deer	0	B	0	0	105	0		0	0	78.3129794000415	78.4129730000859
16446.5	0.0997267999919131	13	satiated	stimuli/foods\peach.jpg	1	1	1	peach	1	V	15	0	238	0		0	0	78.4632458999986	78.5629726999905
16484	0.0999756999081001	14	satiated	stimuli/foods\salmon.jpg	1	1	1	salmon	1	C	1	0	264	0		0	0	78.6129933000775	78.7129689999856
16521.5	0.0999823999591172	15	satiated	stimuli/foods\chocolate_pudding.jpg	1	1	1	chocolate_pudding	1	R	12	0	29	0		0	0	78.7629750000779	78.862957400037
16559	0.0999861999880522	16	satiated	stimuli/non_foods\non-food_animate_dragonfly.jpg	1	1	1	non-food_animate_dragonfly	0	C	1	0	108	0		0	0	78.9129708000692	79.0129570000572
16596.5	0.0999850999796763	17	satiated	stimuli/foods\eggplant.jpg	1	1	1	eggplant	1	H	5	0	46	0		0	0	79.0629698000848	79.1629549000645
16634	0.099981699953787	18	satiated	stimuli/non_foods\non-food_inanimate_cupboard.jpg	1	1	1	non-food_inanimate_cupboard	0	X	17	0	177	0		0	0	79.2129662000807	79.3129479000345
16671.5	0.0999887000070885	19	satiated	stimuli/foods\pea_pod.jpg	1	1	1	pea_pod	1	V	15	0	237	0		0	0	79.3629628000781	79.4629515000852
16709	0.099979400052689	20	satiated	stimuli/foods\grilled_chicken_breast.jpg	1	1	1	grilled_chicken_breast	1	T	14	0	63	0		0	0	79.512965300004	79.6129447000567
16746.5	0.100001299986616	21	satiated	stimuli/non_foods\non-food_inanimate_headphones.jpg	1	1	1	non-food_inanimate_headphones	0	W	16	0	188	0		0	0	79.6629571000813	79.7629584000679
16784	0.0999752000207081	22	satiated	stimuli/non_foods\non-food_animate_dachshund.jpg	1	1	1	non-food_animate_dachshund	0	N	10	0	104	0		0	0	79.8129686000757	79.9129438000964
16821.5	0.099999799975194	23	satiated	stimuli/non_foods\non-food_animate_baby_crawling.jpg	1	1	1	non-food_animate_baby_crawling	0	V	15	0	92	0		0	0	79.9629609000403	80.0629607000155
16859	0.0999929999234155	24	satiated	stimuli/foods\peas.jpg	1	1	1	peas	1	H	5	0	240	0		0	0	80.1129611000651	80.2129540999886
16896.5	0.0999388999771327	25	satiated	stimuli/foods\hamburger.jpg	1	1	1	hamburger	1	F	3	0	64	0		0	0	80.2630038000643	80.3629427000415
16934	0.0999728000024334	26	satiated	stimuli/foods\broccoli.jpg	1	1	1	broccoli	1	D	2	0	13	0		0	0	80.412957200082	80.5129300000845
16971.5	0.0999866999918595	27	satiated	stimuli/non_foods\non-food_animate_duck.jpg	1	1	1	non-food_animate_duck	0	V	15	0	109	0		0	0	80.5629463000223	80.6629330000142
17009	0.0999840999720618	28	satiated	stimuli/foods\cupcake.jpg	1	1	1	cupcake	1	T	14	0	42	0		0	0	80.7129482000601	80.8129323000321
17046.5	0.099988600006327	29	satiated	stimuli/foods\omelette.jpg	1	1	1	omelette	1	N	10	0	228	0		0	0	80.8629559000256	80.9629445000319
17084	0.0999589000130072	30	satiated	stimuli/non_foods\non-food_inanimate_orchid.jpg	1	1	1	non-food_inanimate_orchid	0	R	12	0	198	0		0	0	81.0129519000184	81.1129108000314
17121.5	0.0999880000017583	31	satiated	stimuli/foods\swordfish.jpg	1	1	1	swordfish	1	K	7	0	273	0		0	0	81.162948000012	81.2629360000137
17159	0.0999845999758691	32	satiated	stimuli/foods\chestnut.jpg	1	1	1	chestnut	1	T	14	0	24	0		0	0	81.312950200052	81.4129348000279
17196.5	0.099987699999474	33	satiated	stimuli/foods\pasta_carbonara.jpg	1	1	1	pasta_carbonara	1	X	17	0	236	0		0	0	81.4629413000075	81.562929000007
17234	0.0999889000086114	34	satiated	stimuli/non_foods\non-food_animate_woman.jpg	1	1	1	non-food_animate_woman	0	V	15	0	154	0		0	0	81.612945000059	81.7129339000676
17271.5	0.0999819999560714	35	satiated	stimuli/non_foods\non-food_animate_kangaroo.jpg	1	1	1	non-food_animate_kangaroo	0	O	22	1	122	0		0	0	81.7629441000754	81.8629261000315
17309	0.099996600067243	36	satiated	stimuli/non_foods\non-food_inanimate_fern.jpg	1	1	1	non-food_inanimate_fern	0	S	13	0	180	0		0	0	81.9129345000256	82.0129311000928
17346.5	0.0999243000987917	37	satiated	stimuli/foods\orange.jpg	1	1	1	orange	1	J	6	0	230	0		0	0	82.0630024999846	82.1629268000834
17384	0.0999976000748575	38	satiated	stimuli/foods\coconut.jpg	1	1	1	coconut	1	M	9	0	33	1	a	0.541804599924944	1	82.2129252000013	82.3129228000762
17421.5	0.0999901999020949	39	satiated	stimuli/non_foods\non-food_inanimate_hammer.jpg	1	1	1	non-food_inanimate_hammer	0	G	4	0	186	0		0	0	82.3629348000977	82.4629249999998
17459	0.0999837000854313	40	satiated	stimuli/non_foods\non-food_animate_monkey.jpg	1	1	1	non-food_animate_monkey	0	P	11	0	130	0		0	0	82.5129332999932	82.6129170000786
17496.5	0.0999857001006603	41	satiated	stimuli/non_foods\non-food_animate_yellow_bug.jpg	1	1	1	non-food_animate_yellow_bug	0	S	13	0	155	0		0	0	82.6629309999989	82.7629167000996
17534	0.0999818999553099	42	satiated	stimuli/foods\tomato.jpg	1	1	1	tomato	1	W	16	0	276	0		0	0	82.8129354000557	82.912917300011
17571.5	0.0999870999949053	43	satiated	stimuli/foods\rockmelon.jpg	1	1	1	rockmelon	1	F	3	0	262	0		0	0	82.9629267000128	83.0629138000077
17609	0.099960400024429	44	satiated	stimuli/non_foods\non-food_animate_pigeon.jpg	1	1	1	non-food_animate_pigeon	0	K	7	0	136	0		0	0	83.1129518999951	83.2129123000195
17646.5	0.0999858999857679	45	satiated	stimuli/non_foods\non-food_inanimate_toilet.jpg	1	1	1	non-food_inanimate_toilet	0	C	1	0	220	0		0	0	83.2629240000388	83.3629099000245
17684	0.100004600011744	46	satiated	stimuli/non_foods\non-food_animate_caterpillar.jpg	1	1	1	non-food_animate_caterpillar	0	H	5	0	99	0		0	0	83.4128944000695	83.5128990000812
17721.5	0.0999971000710502	47	satiated	stimuli/foods\lamb_chops.jpg	1	1	1	lamb_chops	1	W	16	0	70	0		0	0	83.5629122999962	83.6629094000673
17759	0.100026900065131	48	satiated	stimuli/non_foods\non-food_animate_skunk.jpg	1	1	1	non-food_animate_skunk	0	J	6	0	147	0		0	0	83.7128963000141	83.8129232000792
17796.5	0.0999749000184238	49	satiated	stimuli/foods\savory_pie.jpg	1	1	1	savory_pie	1	G	4	0	265	0		0	0	83.8629581000423	83.9629330000607
17834	0.0999901000177488	50	satiated	stimuli/non_foods\non-food_animate_donkey.jpg	1	1	1	non-food_animate_donkey	0	S	13	0	107	0		0	0	84.0129121000646	84.1129022000823
17871.5	0.0999818000709638	51	satiated	stimuli/non_foods\non-food_inanimate_highlighter.jpg	1	1	1	non-food_inanimate_highlighter	0	B	0	0	189	0		0	0	84.162914799992	84.262896600063
17909	0.0999810999492183	52	satiated	stimuli/foods\meatballs.jpg	1	1	1	meatballs	1	N	10	0	81	0		0	0	84.3129098000936	84.4128909000428
17946.5	0.0999860999872908	53	satiated	stimuli/foods\asparagus.jpg	1	1	1	asparagus	1	L	8	0	4	0		0	0	84.4629099000013	84.5628959999885
17984	0.0999951999401674	54	satiated	stimuli/foods\beetroots.jpg	1	1	1	beetroots	1	P	11	0	10	0		0	0	84.6129000000656	84.7128952000057
18021.5	0.0999868999933824	55	satiated	stimuli/non_foods\non-food_inanimate_button.jpg	1	1	1	non-food_inanimate_button	0	B	0	0	168	0		0	0	84.7629071000265	84.8628940000199
18059	0.0999727000016719	56	satiated	stimuli/foods\red_beans.jpg	1	1	1	red_beans	1	S	13	0	255	0		0	0	84.9129201000324	85.012892800034
18096.5	0.0999901000177488	57	satiated	stimuli/non_foods\non-food_inanimate_moss.jpg	1	1	1	non-food_inanimate_moss	0	G	4	0	194	0		0	0	85.062885900028	85.1628760000458
18134	0.0999809000641108	58	satiated	stimuli/foods\capsicum.jpg	1	1	1	capsicum	1	N	10	0	18	0		0	0	85.2128793000011	85.3128602000652
18171.5	0.099989999900572	59	satiated	stimuli/foods\grapes.jpg	1	1	1	grapes	1	R	12	0	60	0		0	0	85.3628889000975	85.462878899998
18209	0.0999780999263749	60	satiated	stimuli/non_foods\non-food_animate_fox.jpg	1	1	1	non-food_animate_fox	0	P	11	0	112	0		0	0	85.5128978000721	85.6128758999985
18246.5	0.0999868999933824	61	satiated	stimuli/non_foods\non-food_animate_frog.jpg	1	1	1	non-food_animate_frog	0	D	2	0	113	0		0	0	85.6628894000314	85.7628763000248
18284	0.099996899953112	62	satiated	stimuli/non_foods\non-food_inanimate_nailpolish.jpg	1	1	1	non-food_inanimate_nailpolish	0	N	10	0	195	0		0	0	85.8128871000372	85.9128839999903
18321.5	0.10000050009694	63	satiated	stimuli/non_foods\non-food_animate_runner.jpg	1	1	1	non-food_animate_runner	0	J	6	0	142	0		0	0	85.9628779999912	86.0628785000881
18359	0.0999868999933824	64	satiated	stimuli/foods\celery.jpg	1	1	1	celery	1	W	16	0	21	0		0	0	86.1128908999963	86.2128777999897
18396.5	0.0999895000131801	65	satiated	stimuli/non_foods\non-food_animate_swan.jpg	1	1	1	non-food_animate_swan	0	D	2	0	152	0		0	0	86.2628888000036	86.3628783000167
18434	0.0999611000297591	66	satiated	stimuli/foods\mussels.jpg	1	1	1	mussels	1	H	5	0	86	0		0	0	86.4128862000071	86.5128473000368
18471.5	0.0999869999941438	67	satiated	stimuli/foods\oyster.jpg	1	1	1	oyster	1	K	7	0	233	0		0	0	86.5628771000775	86.6628641000716
18509	0.0999846000922844	68	satiated	stimuli/non_foods\non-food_animate_tortoise.jpg	1	1	1	non-food_animate_tortoise	0	T	14	0	153	0		0	0	86.7128785999957	86.812863200088
18546.5	0.0999840000877157	69	satiated	stimuli/foods\cherry.jpg	1	1	1	cherry	1	J	6	0	23	0		0	0	86.8628775000107	86.9628615000984
18584	0.0999847000930458	70	satiated	stimuli/foods\red_cabbage.jpg	1	1	1	red_cabbage	1	K	7	0	256	0		0	0	87.0128736000042	87.1128583000973
18621.5	0.0999820000724867	71	satiated	stimuli/non_foods\non-food_inanimate_alarm_clock.jpg	1	1	1	non-food_inanimate_alarm_clock	0	C	1	0	158	0		0	0	87.1628718000138	87.2628538000863
18659	0.0999716999940574	72	satiated	stimuli/non_foods\non-food_inanimate_padlock.jpg	1	1	1	non-food_inanimate_padlock	0	B	0	0	199	0		0	0	87.3128829000052	87.4128545999993
18696.5	0.0999515999574214	73	satiated	stimuli/non_foods\non-food_inanimate_nest.jpg	1	1	1	non-food_inanimate_nest	0	C	1	0	196	0		0	0	87.4629035000689	87.5628551000264
18734	0.0999863999895751	74	satiated	stimuli/foods\wafer.jpg	1	1	1	wafer	1	V	15	0	277	0		0	0	87.612866200041	87.7128526000306
18771.5	0.0999841999728233	75	satiated	stimuli/non_foods\non-food_animate_seal.jpg	1	1	1	non-food_animate_seal	0	Z	18	0	146	0		0	0	87.7628623000346	87.8628465000074
18809	0.100001699989662	76	satiated	stimuli/foods\croissant.jpg	1	1	1	croissant	1	J	6	0	40	0		0	0	87.912846900057	88.0128486000467
18846.5	0.0999855999834836	77	satiated	stimuli/foods\egg.jpg	1	1	1	egg	1	N	10	0	45	0		0	0	88.0628592000576	88.1628448000411
18884	0.0999916000291705	78	satiated	stimuli/foods\lollies.jpg	1	1	1	lollies	1	V	15	0	78	0		0	0	88.2128551000496	88.3128467000788
18921.5	0.0999946999363601	79	satiated	stimuli/non_foods\non-food_inanimate_skateboard.jpg	1	1	1	non-food_inanimate_skateboard	0	L	8	0	208	0		0	0	88.3628575000912	88.4628522000276
18959	0.0999900000169873	80	satiated	stimuli/non_foods\non-food_animate_cat.jpg	1	1	1	non-food_animate_cat	0	B	0	0	98	0		0	0	88.512863400043	88.61285340006
18996.5	0.0999832999659702	81	satiated	stimuli/foods\smoked_ham.jpg	1	1	1	smoked_ham	1	R	12	0	266	0		0	0	88.6628637000686	88.7628470000345
19034	0.0999846999766305	82	satiated	stimuli/non_foods\non-food_animate_peacock.jpg	1	1	1	non-food_animate_peacock	0	D	2	0	134	0		0	0	88.8128596000606	88.9128443000372
19071.5	0.0999903000192717	83	satiated	stimuli/non_foods\non-food_inanimate_table.jpg	1	1	1	non-food_inanimate_table	0	E	20	1	217	0		0	0	88.9628538000397	89.062844100059
19109	0.10000019997824	84	satiated	stimuli/foods\mandarin.jpg	1	1	1	mandarin	1	D	2	0	79	0		0	0	89.1128558000783	89.2128560000565
19146.5	0.0999898000154644	85	satiated	stimuli/foods\rice.jpg	1	1	1	rice	1	Z	18	0	257	1	a	0.391819300013594	1	89.2628519000718	89.3628417000873
19184	0.0999802000587806	86	satiated	stimuli/foods\cinnamon_sroll.jpg	1	1	1	cinnamon_sroll	1	T	14	0	31	0		0	0	89.4128541999962	89.512834400055
19221.5	0.0999709999887273	87	satiated	stimuli/non_foods\non-food_animate_Asian_man.jpg	1	1	1	non-food_animate_Asian_man	0	V	15	0	88	0		0	0	89.5628489000956	89.6628199000843
19259	0.099986599991098	88	satiated	stimuli/non_foods\non-food_inanimate_gloves.jpg	1	1	1	non-food_inanimate_gloves	0	C	1	0	183	0		0	0	89.7128531000344	89.8128397000255
19296.5	0.0999849999789149	89	satiated	stimuli/non_foods\non-food_animate_german_shepherd.jpg	1	1	1	non-food_animate_german_shepherd	0	K	7	0	114	0		0	0	89.8628478000173	89.9628327999962
19334	0.0999868999933824	90	satiated	stimuli/foods\prawn.jpg	1	1	1	prawn	1	H	5	0	249	0		0	0	90.0128450000193	90.1128319000127
19371.5	0.099975400022231	91	satiated	stimuli/non_foods\non-food_inanimate_ring.jpg	1	1	1	non-food_inanimate_ring	0	S	13	0	203	0		0	0	90.1628443000372	90.2628197000595
19409	0.0999889000086114	92	satiated	stimuli/non_foods\non-food_animate_butterfly.jpg	1	1	1	non-food_animate_butterfly	0	B	0	0	96	0		0	0	90.3128402000293	90.4128291000379
19446.5	0.0999757999088615	93	satiated	stimuli/foods\hotdog.jpg	1	1	1	hotdog	1	X	17	0	67	0		0	0	90.4628442000831	90.5628199999919
19484	0.0999857001006603	94	satiated	stimuli/foods\minestrone_soup.jpg	1	1	1	minestrone_soup	1	R	12	0	82	0		0	0	90.6128295999952	90.7128153000958
19521.5	0.0999834999674931	95	satiated	stimuli/non_foods\non-food_inanimate_sun_flower.jpg	1	1	1	non-food_inanimate_sun_flower	0	K	7	0	216	0		0	0	90.7628482000437	90.8628317000112
19559	0.0999701999826357	96	satiated	stimuli/foods\raw_sausage.jpg	1	1	1	raw_sausage	1	J	6	0	254	0		0	0	90.9128452000441	91.0128154000267
19596.5	0.100012099952437	97	satiated	stimuli/non_foods\non-food_inanimate_cactus_pot_plant.jpg	1	1	1	non-food_inanimate_cactus_pot_plant	0	D	2	0	169	0		0	0	91.0628264000406	91.1628384999931
19634	0.0999920000322163	98	satiated	stimuli/foods\pepperoni_pizza.jpg	1	1	1	pepperoni_pizza	1	T	14	0	241	0		0	0	91.2128263000632	91.3128183000954
19671.5	0.0999870999949053	99	satiated	stimuli/foods\cabbage.jpg	1	1	1	cabbage	1	H	5	0	16	0		0	0	91.3628205000423	91.4628076000372
19709	0.0999798999400809	100	satiated	stimuli/foods\pear.jpg	1	1	1	pear	1	F	3	0	239	0		0	0	91.5128192000557	91.6127990999958
19746.5	0.099978799931705	101	satiated	stimuli/foods\coffee_beans.jpg	1	1	1	coffee_beans	1	N	10	0	34	0		0	0	91.6628062000964	91.7627850000281
19784	0.0999870999949053	102	satiated	stimuli/non_foods\non-food_inanimate_drum_set.jpg	1	1	1	non-food_inanimate_drum_set	0	D	2	0	179	0		0	0	91.8128156000748	91.9128027000697
19821.5	0.0999885000055656	103	satiated	stimuli/foods\almonds.jpg	1	1	1	almonds	1	P	11	0	0	0		0	0	91.9628167999908	92.0628052999964
19859	0.0999818000709638	104	satiated	stimuli/foods\rice_cake.jpg	1	1	1	rice_cake	1	V	15	0	258	0		0	0	92.1128143999958	92.2127962000668
19896.5	0.099998899968341	105	satiated	stimuli/foods\corncob.jpg	1	1	1	corncob	1	J	6	0	37	0		0	0	92.2628094000975	92.3628083000658
19934	0.0999838999705389	106	satiated	stimuli/foods\cannoli.jpg	1	1	1	cannoli	1	H	5	0	17	0		0	0	92.4128215000965	92.512805400067
19971.5	0.0999969999538735	107	satiated	stimuli/foods\cucumber.jpg	1	1	1	cucumber	1	J	6	0	41	0		0	0	92.5628149000695	92.6628119000234
20009	0.0999328999314457	108	satiated	stimuli/non_foods\non-food_animate_slug.jpg	1	1	1	non-food_animate_slug	0	F	3	0	148	0		0	0	92.7128592000809	92.8127921000123
20046.5	0.099955299985595	109	satiated	stimuli/non_foods\non-food_inanimate_shell.jpg	1	1	1	non-food_inanimate_shell	0	X	17	0	206	0		0	0	92.8628125000978	92.9627678000834
20084	0.099986599991098	110	satiated	stimuli/non_foods\non-food_animate_snail.jpg	1	1	1	non-food_animate_snail	0	R	12	0	149	0		0	0	93.0128042000579	93.112790800049
20121.5	0.100002799998038	111	satiated	stimuli/foods\green_olives.jpg	1	1	1	green_olives	1	J	6	0	62	0		0	0	93.1627929999959	93.2627957999939
20159	0.0999871001113206	112	satiated	stimuli/foods\avocado.jpg	1	1	1	avocado	1	F	3	0	5	0		0	0	93.312803799985	93.4127909000963
20196.5	0.0999869999941438	113	satiated	stimuli/non_foods\non-food_inanimate_clover.jpg	1	1	1	non-food_inanimate_clover	0	J	6	0	174	0		0	0	93.4628036000067	93.5627906000009
20234	0.0999839999713004	114	satiated	stimuli/non_foods\non-food_animate_dolphin.jpg	1	1	1	non-food_animate_dolphin	0	V	15	0	106	0		0	0	93.6128040000331	93.7127880000044
20271.5	0.0999993999721482	115	satiated	stimuli/non_foods\non-food_animate_giraffe.jpg	1	1	1	non-food_animate_giraffe	0	B	0	0	115	0		0	0	93.7627997000236	93.8627990999958
20309	0.0999845999758691	116	satiated	stimuli/non_foods\non-food_animate_lizard.jpg	1	1	1	non-food_animate_lizard	0	G	4	0	126	0		0	0	93.9128039000789	94.0127885000547
20346.5	0.0999602000229061	117	satiated	stimuli/foods\taco.jpg	1	1	1	taco	1	X	17	0	274	0		0	0	94.0627990000648	94.1627592000877
20384	0.0999872999964282	118	satiated	stimuli/foods\kiwi.jpg	1	1	1	kiwi	1	C	1	0	69	0		0	0	94.2127889000112	94.3127762000076
20421.5	0.0999952999409288	119	satiated	stimuli/foods\chocolate_chip_cookies.jpg	1	1	1	chocolate_chip_cookies	1	K	7	0	27	0		0	0	94.3627777000656	94.4627730000066
20459	0.0999451000243425	120	satiated	stimuli/foods\steak.jpg	1	1	1	steak	1	T	14	0	270	0		0	0	94.512825599988	94.6127707000123
20496.5	0.0999542999779806	121	satiated	stimuli/foods\linguine_with_clams.jpg	1	1	1	linguine_with_clams	1	D	2	0	77	0		0	0	94.6628008000553	94.7627551000332
20534	0.0999863999895751	122	satiated	stimuli/non_foods\non-food_animate_bee.jpg	1	1	1	non-food_animate_bee	0	V	15	0	95	0		0	0	94.8127879000967	94.9127743000863
20571.5	0.0999932000413537	123	satiated	stimuli/foods\clams.jpg	1	1	1	clams	1	N	10	0	32	0		0	0	94.9627710999921	95.0627643000335
20609	0.0999887000070885	124	satiated	stimuli/non_foods\non-food_inanimate_horn.jpg	1	1	1	non-food_inanimate_horn	0	G	4	0	190	0		0	0	95.112776700058	95.2127654000651
20646.5	0.0999873999971896	125	satiated	stimuli/non_foods\non-food_inanimate_lighter.jpg	1	1	1	non-food_inanimate_lighter	0	R	12	0	193	0		0	0	95.2627769000828	95.36276430008
20684	0.0999895000131801	126	satiated	stimuli/non_foods\non-food_animate_eagle.jpg	1	1	1	non-food_animate_eagle	0	P	11	0	110	0		0	0	95.4127724000718	95.512761900085
20721.5	0.0999833999667317	127	satiated	stimuli/non_foods\non-food_animate_millipede.jpg	1	1	1	non-food_animate_millipede	0	H	5	0	129	0		0	0	95.5627847000724	95.6627681000391
20759	0.100003300001845	128	satiated	stimuli/non_foods\non-food_animate_llama.jpg	1	1	1	non-food_animate_llama	0	V	15	0	127	0		0	0	95.7127510000719	95.8127543000737
20796.5	0.0999798999400809	129	satiated	stimuli/foods\donut.jpg	1	1	1	donut	1	X	17	0	44	0		0	0	95.8627775000641	95.9627574000042
20834	0.0999875999987125	130	satiated	stimuli/non_foods\non-food_inanimate_bush.jpg	1	1	1	non-food_inanimate_bush	0	G	4	0	167	0		0	0	96.0127671000082	96.1127547000069
20871.5	0.100004100007936	131	satiated	stimuli/non_foods\non-food_inanimate_watering_can.jpg	1	1	1	non-food_inanimate_watering_can	0	R	12	0	225	0		0	0	96.1627630000003	96.2627671000082
20909	0.0999622999224812	132	satiated	stimuli/non_foods\non-food_animate_camel.jpg	1	1	1	non-food_animate_camel	0	D	2	0	97	0		0	0	96.3127864000853	96.4127487000078
20946.5	0.0999900000169873	133	satiated	stimuli/foods\hazelnuts.jpg	1	1	1	hazelnuts	1	P	11	0	65	0		0	0	96.4627586000133	96.5627486000303
20984	0.100010800058953	134	satiated	stimuli/foods\cream_donuts.jpg	1	1	1	cream_donuts	1	M	9	0	39	0		0	0	96.6127519999864	96.7127628000453
21021.5	0.0999871999956667	135	satiated	stimuli/foods\lemon_meringue_pie.jpg	1	1	1	lemon_meringue_pie	1	P	11	0	73	0		0	0	96.7627655999968	96.8627527999924
21059	0.0999854999827221	136	satiated	stimuli/non_foods\non-food_inanimate_skirt.jpg	1	1	1	non-food_inanimate_skirt	0	M	9	0	209	0		0	0	96.9127647000132	97.0127501999959
21096.5	0.0999834999674931	137	satiated	stimuli/non_foods\non-food_inanimate_chandelier.jpg	1	1	1	non-food_inanimate_chandelier	0	D	2	0	173	0		0	0	97.0627642000327	97.1627477000002
21134	0.0999878000002354	138	satiated	stimuli/non_foods\non-food_animate_Causasian_man.jpg	1	1	1	non-food_animate_Causasian_man	0	T	14	0	89	0		0	0	97.2127588000149	97.3127466000151
21171.5	0.09997049998492	139	satiated	stimuli/non_foods\non-food_animate_bat.jpg	1	1	1	non-food_animate_bat	0	F	3	0	94	0		0	0	97.3627766000573	97.4627471000422
25471.5	0.100003900006413	140	satiated	stimuli/non_foods\non-food_animate_killer_whale.jpg	1	2	1	non-food_animate_killer_whale	0	H	5	0	123	0		0	0	114.562570000067	114.662573900074
25509	0.0999987999675795	141	satiated	stimuli/non_foods\non-food_inanimate_grass.jpg	1	2	1	non-food_inanimate_grass	0	S	13	0	184	0		0	0	114.712546400027	114.812545199995
25546.5	0.0999819000717252	142	satiated	stimuli/non_foods\non-food_animate_mouse.jpg	1	2	1	non-food_animate_mouse	0	J	6	0	131	0		0	0	114.862558100023	114.962540000095
25584	0.0999648000579327	143	satiated	stimuli/foods\mango.jpg	1	2	1	mango	1	B	0	0	80	0		0	0	115.012553600012	115.11251840007
25621.5	0.0999835000839084	144	satiated	stimuli/non_foods\non-food_inanimate_scissors.jpg	1	2	1	non-food_inanimate_scissors	0	T	14	0	205	0		0	0	115.162547199987	115.262530700071
25659	0.100002699997276	145	satiated	stimuli/foods\oven-roasted_tomatoes.jpg	1	2	1	oven-roasted_tomatoes	1	C	1	0	232	0		0	0	115.312536200043	115.41253890004
25696.5	0.0999864999903366	146	satiated	stimuli/non_foods\non-food_animate_young_girl.jpg	1	2	1	non-food_animate_young_girl	0	F	3	0	157	0		0	0	115.462545900024	115.562532400014
25734	0.0999844999751076	147	satiated	stimuli/foods\grapefruits.jpg	1	2	1	grapefruits	1	C	1	0	59	0		0	0	115.612552000093	115.712536500068
25771.5	0.0999769999179989	148	satiated	stimuli/non_foods\non-food_animate_clown.jpg	1	2	1	non-food_animate_clown	0	V	15	0	102	0		0	0	115.762546200072	115.86252319999
25809	0.0999816000694409	149	satiated	stimuli/foods\fried_calamari.jpg	1	2	1	fried_calamari	1	N	10	0	50	0		0	0	115.912536900025	116.012518500094
25846.5	0.100004600011744	150	satiated	stimuli/non_foods\non-food_animate_iguana.jpg	1	2	1	non-food_animate_iguana	0	D	2	0	121	0		0	0	116.062525200075	116.162529800087
25884	0.0999755000229925	151	satiated	stimuli/non_foods\non-food_inanimate_cap.jpg	1	2	1	non-food_inanimate_cap	0	E	20	1	171	0		0	0	116.212542099995	116.312517600018
25921.5	0.0999851000960916	152	satiated	stimuli/non_foods\non-food_inanimate_soccer_ball.jpg	1	2	1	non-food_inanimate_soccer_ball	0	H	5	0	210	0		0	0	116.362540000002	116.462525100098
25959	0.0999627999262884	153	satiated	stimuli/non_foods\non-food_inanimate_broom.jpg	1	2	1	non-food_inanimate_broom	0	C	1	0	164	1	a	0.391839000047185	1	116.512560000061	116.612522799987
25996.5	0.0999732000054792	154	satiated	stimuli/foods\lime.jpg	1	2	1	lime	1	X	17	0	76	0		0	0	116.66254150006	116.762514700065
26034	0.099983699969016	155	satiated	stimuli/foods\potato_chips.jpg	1	2	1	potato_chips	1	F	3	0	247	0		0	0	116.812539300066	116.912523000035
26071.5	0.0999828999629244	156	satiated	stimuli/foods\lemon.jpg	1	2	1	lemon	1	N	10	0	72	0		0	0	116.962533900049	117.062516800012
26109	0.0999841999728233	157	satiated	stimuli/non_foods\non-food_inanimate_bucket.jpg	1	2	1	non-food_inanimate_bucket	0	B	0	0	165	0		0	0	117.112531800056	117.212516000029
26146.5	0.0999889000086114	158	satiated	stimuli/non_foods\non-food_animate_student_female.jpg	1	2	1	non-food_animate_student_female	0	C	1	0	151	0		0	0	117.262524200021	117.36251310003
26184	0.0999878000002354	159	satiated	stimuli/foods\cooked_ham.jpg	1	2	1	cooked_ham	1	X	17	0	35	0		0	0	117.412526900065	117.512514700065
26221.5	0.0999676999635994	160	satiated	stimuli/foods\dates.jpg	1	2	1	dates	1	J	6	0	43	0		0	0	117.562549100025	117.662516799988
26259	0.0999853999819607	161	satiated	stimuli/non_foods\non-food_inanimate_tent.jpg	1	2	1	non-food_inanimate_tent	0	P	11	0	219	0		0	0	117.712523000082	117.812508400064
26296.5	0.0999849999789149	162	satiated	stimuli/non_foods\non-food_animate_gorilla.jpg	1	2	1	non-food_animate_gorilla	0	H	5	0	116	0		0	0	117.862521800096	117.962506800075
26334	0.0999846000922844	163	satiated	stimuli/foods\pumpkin.jpg	1	2	1	pumpkin	1	D	2	0	250	0		0	0	118.01252009999	118.112504700082
26371.5	0.100009800051339	164	satiated	stimuli/non_foods\non-food_inanimate_short_sleeved_shirt.jpg	1	2	1	non-food_inanimate_short_sleeved_shirt	0	B	0	0	207	0		0	0	118.162518099998	118.262527900049
26409	0.0999412999954075	165	satiated	stimuli/foods\spaghetti_with_meat_sauce.jpg	1	2	1	spaghetti_with_meat_sauce	1	J	6	0	267	0		0	0	118.312561700004	118.412503
26446.5	0.0999878000002354	166	satiated	stimuli/non_foods\non-food_inanimate_speakers.jpg	1	2	1	non-food_inanimate_speakers	0	W	16	0	212	0		0	0	118.462510799989	118.562498599989
26484	0.099997500074096	167	satiated	stimuli/foods\watermelon.jpg	1	2	1	watermelon	1	N	10	0	279	0		0	0	118.612511900021	118.712509400095
26521.5	0.0999837999697775	168	satiated	stimuli/non_foods\non-food_animate_cheetah.jpg	1	2	1	non-food_animate_cheetah	0	C	1	0	100	0		0	0	118.762513200054	118.862497000024
26559	0.0999848999781534	169	satiated	stimuli/non_foods\non-food_animate_alligator.jpg	1	2	1	non-food_animate_alligator	0	M	9	0	90	0		0	0	118.912507800036	119.012492700014
26596.5	0.0999960000626743	170	satiated	stimuli/foods\pork_and_rice.jpg	1	2	1	pork_and_rice	1	K	7	0	245	0		0	0	119.062501100008	119.162497100071
26634	0.099985699984245	171	satiated	stimuli/non_foods\non-food_animate_polar_bear.jpg	1	2	1	non-food_animate_polar_bear	0	L	8	0	137	0		0	0	119.212503700051	119.312489400036
26671.5	0.0999892000108957	172	satiated	stimuli/non_foods\non-food_animate_squirrel.jpg	1	2	1	non-food_animate_squirrel	0	B	0	0	150	0		0	0	119.362524199998	119.462513400009
26709	0.09997740003746	173	satiated	stimuli/foods\fruit_salad.jpg	1	2	1	fruit_salad	1	V	15	0	55	0		0	0	119.512504199985	119.612481600023
26746.5	0.0999832000816241	174	satiated	stimuli/foods\stew_with_potatoes_and_carrots.jpg	1	2	1	stew_with_potatoes_and_carrots	1	R	12	0	271	0		0	0	119.662503300002	119.762486500083
26783.75	0.0999973999569193	175	satiated	stimuli/foods\pineapple.jpg	1	2	1	pineapple	1	V	15	0	243	0		0	0	119.812480000081	119.912477400037
26821.5	0.0999732000054792	176	satiated	stimuli/foods\chocolate_bar.jpg	1	2	1	chocolate_bar	1	Z	18	0	26	0		0	0	119.962498500012	120.062471700017
26859	0.0999596000183374	177	satiated	stimuli/foods\lentils.jpg	1	2	1	lentils	1	K	7	0	74	0		0	0	120.112513400032	120.212473000051
26896.5	0.0999880998861045	178	satiated	stimuli/foods\baked_cod_with_carrots_and_green_beans.jpg	1	2	1	baked_cod_with_carrots_and_green_beans	1	D	2	0	7	0		0	0	120.262488400098	120.362476499984
26934	0.0999831000808626	179	satiated	stimuli/non_foods\non-food_inanimate_teddy_bear.jpg	1	2	1	non-food_inanimate_teddy_bear	0	R	12	0	218	0		0	0	120.412485599983	120.512468700064
26971.5	0.100004899897613	180	satiated	stimuli/non_foods\non-food_inanimate_tulip.jpg	1	2	1	non-food_inanimate_tulip	0	B	0	0	224	0		0	0	120.562482300098	120.662487199996
27009	0.0999581000069156	181	satiated	stimuli/non_foods\non-food_inanimate_fire_extinguisher.jpg	1	2	1	non-food_inanimate_fire_extinguisher	0	G	4	0	181	0		0	0	120.712493600091	120.812451700098
27046.5	0.0999878000002354	182	satiated	stimuli/foods\lettuce.jpg	1	2	1	lettuce	1	M	9	0	75	0		0	0	120.862485000049	120.962472800049
27084	0.0999839999713004	183	satiated	stimuli/non_foods\non-food_animate_sea_lion.jpg	1	2	1	non-food_animate_sea_lion	0	V	15	0	143	0		0	0	121.01248600008	121.112470000051
27121.5	0.0999815999530256	184	satiated	stimuli/foods\waffle.jpg	1	2	1	waffle	1	J	6	0	278	0		0	0	121.162484700093	121.262466300046
27159	0.0999848999781534	185	satiated	stimuli/non_foods\non-food_inanimate_leaf.jpg	1	2	1	non-food_inanimate_leaf	0	N	10	0	192	0		0	0	121.312481700093	121.412466600072
27196.5	0.099981400067918	186	satiated	stimuli/non_foods\non-food_inanimate_protractor.jpg	1	2	1	non-food_inanimate_protractor	0	X	17	0	201	0		0	0	121.462483300013	121.56246470008
27234	0.099986300105229	187	satiated	stimuli/non_foods\non-food_inanimate_guitar.jpg	1	2	1	non-food_inanimate_guitar	0	P	11	0	185	0		0	0	121.612477799994	121.712464100099
27271.5	0.100004100007936	188	satiated	stimuli/foods\apricot.jpg	1	2	1	apricot	1	S	13	0	2	0		0	0	121.762488899985	121.862492999993
27309	0.0999872999964282	189	satiated	stimuli/foods\fruit_flan.jpg	1	2	1	fruit_flan	1	P	11	0	53	0		0	0	121.912475700025	122.012463000021
27346.5	0.0999880000017583	190	satiated	stimuli/foods\raisins.jpg	1	2	1	raisins	1	N	10	0	252	0		0	0	122.062469700002	122.162457700004
27384	0.0999871999956667	191	satiated	stimuli/foods\fennel.jpg	1	2	1	fennel	1	B	0	0	47	0		0	0	122.212469700025	122.312456900021
27421.5	0.0999867999926209	192	satiated	stimuli/non_foods\non-food_animate_horse.jpg	1	2	1	non-food_animate_horse	0	J	6	0	119	0		0	0	122.362469200045	122.462456000037
27458.75	0.0999909000238404	193	satiated	stimuli/foods\museli_bars.jpg	1	2	1	museli_bars	1	L	8	0	84	0		0	0	122.512467400054	122.612458300078
27496.5	0.0999576000031084	194	satiated	stimuli/non_foods\non-food_inanimate_rack.jpg	1	2	1	non-food_inanimate_rack	0	M	9	0	202	0		0	0	122.662466100068	122.762423700071
27534	0.0999895000131801	195	satiated	stimuli/non_foods\non-food_animate_sea_turtle.jpg	1	2	1	non-food_animate_sea_turtle	0	K	7	0	144	0		0	0	122.812462100061	122.912451600074
27571.5	0.0999851999804378	196	satiated	stimuli/non_foods\non-food_animate_baby_sitting.jpg	1	2	1	non-food_animate_baby_sitting	0	X	17	0	93	0		0	0	122.962462700089	123.062447900069
27608.75	0.0999949000542983	197	satiated	stimuli/foods\strawberry.jpg	1	2	1	strawberry	1	F	3	0	272	0		0	0	123.112450800021	123.212445700075
27646.5	0.0999775999225676	198	satiated	stimuli/foods\chilli.jpg	1	2	1	chilli	1	T	14	0	25	0		0	0	123.26247080008	123.362448400003
27684	0.0999788000481203	199	satiated	stimuli/non_foods\non-food_inanimate_desk.jpg	1	2	1	non-food_inanimate_desk	0	W	16	0	178	0		0	0	123.412456799997	123.512435600045
27721.5	0.100025399937294	200	satiated	stimuli/foods\spring_onions.jpg	1	2	1	spring_onions	1	L	8	0	269	0		0	0	123.562466700096	123.662492100033
27759	0.0999589000130072	201	satiated	stimuli/foods\frankfurter_and_provolone_salad.jpg	1	2	1	frankfurter_and_provolone_salad	1	O	22	1	49	0		0	0	123.712482400006	123.812441300019
27796.25	0.0999938999302685	202	satiated	stimuli/non_foods\non-food_animate_green_bug.jpg	1	2	1	non-food_animate_green_bug	0	J	6	0	118	0		0	0	123.862443900085	123.962437800015
27834	0.0999892000108957	203	satiated	stimuli/non_foods\non-food_animate_cow.jpg	1	2	1	non-food_animate_cow	0	R	12	0	103	0		0	0	124.012450800044	124.112440000055
27871.5	0.0999846999766305	204	satiated	stimuli/non_foods\non-food_inanimate_bicycle.jpg	1	2	1	non-food_inanimate_bicycle	0	D	2	0	161	1	a	0.541793300071731	1	124.162449200056	124.262433900032
27908.75	0.0999866999918595	205	satiated	stimuli/foods\cinnamon.jpg	1	2	1	cinnamon	1	B	0	0	30	0		0	0	124.312445000047	124.412431700039
27946.5	0.0999867999926209	206	satiated	stimuli/foods\cauliflower.jpg	1	2	1	cauliflower	1	M	9	0	20	0		0	0	124.462446100079	124.562432900071
27983.75	0.0999740000115708	207	satiated	stimuli/non_foods\non-food_animate_penguin.jpg	1	2	1	non-food_animate_penguin	0	L	8	0	135	0		0	0	124.612443100079	124.712417100091
28021.25	0.0999825999606401	208	satiated	stimuli/non_foods\non-food_inanimate_socks.jpg	1	2	1	non-food_inanimate_socks	0	K	7	0	211	0		0	0	124.762442300096	124.862424900057
28058.75	0.0999856000998989	209	satiated	stimuli/non_foods\non-food_inanimate_bamboo.jpg	1	2	1	non-food_inanimate_bamboo	0	W	16	0	159	0		0	0	124.912440399989	125.012426000088
28096.25	0.0999905000207946	210	satiated	stimuli/foods\bagel.jpg	1	2	1	bagel	1	M	9	0	6	0		0	0	125.06243749999	125.162428000011
28133.75	0.0999960000626743	211	satiated	stimuli/non_foods\non-food_inanimate_couch.jpg	1	2	1	non-food_inanimate_couch	0	W	16	0	176	0		0	0	125.212435900001	125.312431900064
28171.25	0.0999971000710502	212	satiated	stimuli/foods\potatoes.jpg	1	2	1	potatoes	1	G	4	0	248	0		0	0	125.362420200021	125.462417300092
28208.75	0.0999600000213832	213	satiated	stimuli/non_foods\non-food_animate_hummingbird.jpg	1	2	1	non-food_animate_hummingbird	0	D	2	0	120	0		0	0	125.51243230002	125.612392300041
28246.25	0.0999840999720618	214	satiated	stimuli/foods\blackberry.jpg	1	2	1	blackberry	1	Z	18	0	11	0		0	0	125.66243450006	125.762418600032
28283.75	0.0999758000252768	215	satiated	stimuli/non_foods\non-food_inanimate_towel.jpg	1	2	1	non-food_inanimate_towel	0	G	4	0	221	0		0	0	125.812429400044	125.91240520007
28321.25	0.0999870999949053	216	satiated	stimuli/foods\pickles.jpg	1	2	1	pickles	1	B	0	0	242	0		0	0	125.962422400014	126.062409500009
28358.75	0.10000089998357	217	satiated	stimuli/non_foods\non-food_inanimate_buds.jpg	1	2	1	non-food_inanimate_buds	0	P	11	0	166	0		0	0	126.112412000075	126.212412900059
28396.25	0.0999943999340758	218	satiated	stimuli/non_foods\non-food_inanimate_nettle.jpg	1	2	1	non-food_inanimate_nettle	0	X	17	0	197	0		0	0	126.262422900065	126.362417299999
28433.75	0.100004100007936	219	satiated	stimuli/non_foods\non-food_inanimate_tree.jpg	1	2	1	non-food_inanimate_tree	0	H	5	0	223	0		0	0	126.412420000066	126.512424100074
28471.25	0.0999773999210447	220	satiated	stimuli/foods\brownie.jpg	1	2	1	brownie	1	X	17	0	14	0		0	0	126.562420200091	126.662397600012
28508.75	0.0999811999499798	221	satiated	stimuli/non_foods\non-food_animate_ant.jpg	1	2	1	non-food_animate_ant	0	Z	18	0	91	0		0	0	126.712415800081	126.812397000031
28546.25	0.0999858999857679	222	satiated	stimuli/non_foods\non-food_animate_young_boy.jpg	1	2	1	non-food_animate_young_boy	0	V	15	0	156	0		0	0	126.862419800018	126.962405700004
28583.75	0.0999852999811992	223	satiated	stimuli/non_foods\non-food_animate_porcupine.jpg	1	2	1	non-food_animate_porcupine	0	T	14	0	138	0		0	0	127.012418600032	127.112403900013
28621.25	0.0999878000002354	224	satiated	stimuli/foods\figs.jpg	1	2	1	figs	1	H	5	0	48	0		0	0	127.162414600025	127.262402400025
28658.75	0.0999798999400809	225	satiated	stimuli/non_foods\non-food_inanimate_briefcase.jpg	1	2	1	non-food_inanimate_briefcase	0	G	4	0	163	0		0	0	127.312416700064	127.412396600004
28696.25	0.0999860999872908	226	satiated	stimuli/foods\lasagna.jpg	1	2	1	lasagna	1	T	14	0	71	0		0	0	127.462407700019	127.562393800006
28733.75	0.0999778000405058	227	satiated	stimuli/non_foods\non-food_animate_parrot.jpg	1	2	1	non-food_animate_parrot	0	V	15	0	133	0		0	0	127.612416299991	127.712394100032
28771.25	0.0999862999888137	228	satiated	stimuli/non_foods\non-food_animate_elephant.jpg	1	2	1	non-food_animate_elephant	0	K	7	0	111	0		0	0	127.762393100071	127.86237940006
28808.75	0.0999890000093728	229	satiated	stimuli/non_foods\non-food_inanimate_construction_helment.jpg	1	2	1	non-food_inanimate_construction_helment	0	X	17	0	175	0		0	0	127.912395099993	128.012384100002
28846.25	0.0999822999583557	230	satiated	stimuli/non_foods\non-food_animate_rhino.jpg	1	2	1	non-food_animate_rhino	0	Z	18	0	141	0		0	0	128.062396700028	128.162378999987
28883.75	0.0999909000238404	231	satiated	stimuli/non_foods\non-food_inanimate_waterlily.jpg	1	2	1	non-food_inanimate_waterlily	0	A	19	1	226	0		0	0	128.212392300018	128.312383200042
28921.25	0.0999943999340758	232	satiated	stimuli/non_foods\non-food_inanimate_folding_chair.jpg	1	2	1	non-food_inanimate_folding_chair	0	S	13	0	182	0		0	0	128.362393500051	128.462387899985
28958.75	0.0999843999743462	233	satiated	stimuli/foods\cracker.jpg	1	2	1	cracker	1	X	17	0	38	0		0	0	128.512392700068	128.612377100042
28996.25	0.0999869999941438	234	satiated	stimuli/foods\pancakes.jpg	1	2	1	pancakes	1	N	10	0	234	1	a	0.541820500046015	1	128.662389000063	128.762376000057
29033.75	0.0999989999691024	235	satiated	stimuli/foods\roasted_chicken.jpg	1	2	1	roasted_chicken	1	B	0	0	261	0		0	0	128.81238290004	128.912381900009
29071.5	0.0999137000180781	236	satiated	stimuli/foods\oregano.jpg	1	2	1	oregano	1	X	17	0	231	0		0	0	128.962436900008	129.062350600027
29108.75	0.0999848999781534	237	satiated	stimuli/foods\garlic.jpg	1	2	1	garlic	1	B	0	0	56	0		0	0	129.112383200089	129.212368100067
29146.25	0.0999846000922844	238	satiated	stimuli/foods\potato_and_green_bean_salad.jpg	1	2	1	potato_and_green_bean_salad	1	V	15	0	246	0		0	0	129.262383900001	129.362368500093
29183.75	0.0999825000762939	239	satiated	stimuli/foods\ice_cream.jpg	1	2	1	ice_cream	1	N	10	0	68	0		0	0	129.412382900016	129.512365400093
29221.25	0.0999918000306934	240	satiated	stimuli/non_foods\non-food_inanimate_canoe.jpg	1	2	1	non-food_inanimate_canoe	0	X	17	0	170	0		0	0	129.562378300005	129.662370100035
29258.75	0.0999841999728233	241	satiated	stimuli/foods\ginger_root.jpg	1	2	1	ginger_root	1	M	9	0	57	0		0	0	129.712379300036	129.812363500008
29296.25	0.0999881000025198	242	satiated	stimuli/non_foods\non-food_inanimate_stapler.jpg	1	2	1	non-food_inanimate_stapler	0	F	3	0	213	0		0	0	129.862374400022	129.962362500024
29333.75	0.0999888000078499	243	satiated	stimuli/foods\brie.jpg	1	2	1	brie	1	L	8	0	12	0		0	0	130.012371600023	130.112360400031
29371.25	0.0999893000116572	244	satiated	stimuli/foods\fruit_pie.jpg	1	2	1	fruit_pie	1	W	16	0	54	0		0	0	130.162374400068	130.26236370008
29408.75	0.0999833999667317	245	satiated	stimuli/foods\chocolate_pralines.jpg	1	2	1	chocolate_pralines	1	S	13	0	28	0		0	0	130.312370700063	130.41235410003
29446.25	0.10000229999423	246	satiated	stimuli/foods\cooked_prawn.jpg	1	2	1	cooked_prawn	1	D	2	0	36	0		0	0	130.462358499994	130.562360799988
29483.75	0.10002989997156	247	satiated	stimuli/foods\papaya.jpg	1	2	1	papaya	1	R	12	0	235	0		0	0	130.612358300015	130.712388199987
29521.5	0.0999361999565735	248	satiated	stimuli/non_foods\non-food_inanimate_rope.jpg	1	2	1	non-food_inanimate_rope	0	M	9	0	204	0		0	0	130.762422600063	130.862358800019
29558.75	0.0999880000017583	249	satiated	stimuli/foods\fried_zucchini.jpg	1	2	1	fried_zucchini	1	P	11	0	51	0		0	0	130.912368700025	131.012356700026
29596.25	0.0999852999811992	250	satiated	stimuli/foods\risotto_with_zucchini.jpg	1	2	1	risotto_with_zucchini	1	G	4	0	260	0		0	0	131.062370700063	131.162356000044
29633.75	0.0999834999674931	251	satiated	stimuli/non_foods\non-food_inanimate_chair.jpg	1	2	1	non-food_inanimate_chair	0	D	2	0	172	0		0	0	131.212370900088	131.312354400055
29671.25	0.0999862999888137	252	satiated	stimuli/non_foods\non-food_inanimate_hay.jpg	1	2	1	non-food_inanimate_hay	0	P	11	0	187	0		0	0	131.362366900081	131.46235320007
29708.75	0.0999970999546349	253	satiated	stimuli/foods\mortadella.jpg	1	2	1	mortadella	1	F	3	0	83	0		0	0	131.512364200084	131.612361300038
29746.25	0.0999844999751076	254	satiated	stimuli/foods\salami.jpg	1	2	1	salami	1	C	1	0	263	0		0	0	131.662363200099	131.762347700074
29783.75	0.099963300046511	255	satiated	stimuli/non_foods\non-food_inanimate_bed.jpg	1	2	1	non-food_inanimate_bed	0	R	12	0	160	0		0	0	131.81237900001	131.912342300056
29821.25	0.0999850999796763	256	satiated	stimuli/foods\fries.jpg	1	2	1	fries	1	C	1	0	52	0		0	0	131.962364100036	132.062349200016
29858.75	0.0999832000816241	257	satiated	stimuli/non_foods\non-food_inanimate_jeans.jpg	1	2	1	non-food_inanimate_jeans	0	R	12	0	191	0		0	0	132.112358400016	132.212341600098
29896.25	0.0999878000002354	258	satiated	stimuli/non_foods\non-food_inanimate_wrench.jpg	1	2	1	non-food_inanimate_wrench	0	S	13	0	227	0		0	0	132.262356200023	132.362344000023
29933.75	0.100036699906923	259	satiated	stimuli/foods\cereal.jpg	1	2	1	cereal	1	J	6	0	22	0		0	0	132.412346900092	132.512383599998
29971.25	0.0999734000070021	260	satiated	stimuli/foods\artichoke.jpg	1	2	1	artichoke	1	V	15	0	3	0		0	0	132.562367800041	132.662341200048
30008.75	0.0999894000124186	261	satiated	stimuli/foods\pomegranate.jpg	1	2	1	pomegranate	1	B	0	0	244	0		0	0	132.712350200047	132.812339600059
30046.25	0.0999869999941438	262	satiated	stimuli/foods\baked_lamb_with_potatoes.jpg	1	2	1	baked_lamb_with_potatoes	1	E	20	1	8	0		0	0	132.862347900053	132.962334900047
30083.75	0.0999921000329778	263	satiated	stimuli/foods\carrot.jpg	1	2	1	carrot	1	S	13	0	19	0		0	0	133.012343800045	133.112335900078
30121.25	0.0999872999964282	264	satiated	stimuli/non_foods\non-food_animate_mammoth.jpg	1	2	1	non-food_animate_mammoth	0	K	7	0	128	1	a	0.391813899972476	1	133.162341000047	133.262328300043
30158.75	0.0999918000306934	265	satiated	stimuli/non_foods\non-food_inanimate_pine_cone.jpg	1	2	1	non-food_inanimate_pine_cone	0	Z	18	0	200	0		0	0	133.312335900031	133.412327700062
30196.25	0.0999869001097977	266	satiated	stimuli/foods\onion.jpg	1	2	1	onion	1	L	8	0	229	0		0	0	133.462342299987	133.562329200096
30233.75	0.0999763000290841	267	satiated	stimuli/non_foods\non-food_animate_chicken.jpg	1	2	1	non-food_animate_chicken	0	C	1	0	101	0		0	0	133.612349900068	133.712326200097
30271.25	0.0999732000054792	268	satiated	stimuli/non_foods\non-food_inanimate_bowling_ball.jpg	1	2	1	non-food_inanimate_bowling_ball	0	G	4	0	162	0		0	0	133.762354300008	133.862327500014
30308.75	0.0999839999713004	269	satiated	stimuli/non_foods\non-food_animate_ladybug.jpg	1	2	1	non-food_animate_ladybug	0	S	13	0	124	0		0	0	133.912336800015	134.012320799986
30346.25	0.0999691999750212	270	satiated	stimuli/foods\apple.jpg	1	2	1	apple	1	H	5	0	1	0		0	0	134.062349900021	134.162319099996
30383.75	0.1000099000521	271	satiated	stimuli/non_foods\non-food_animate_owl.jpg	1	2	1	non-food_animate_owl	0	R	12	0	132	0		0	0	134.212312599993	134.312322500045
30421.25	0.0999685999704525	272	satiated	stimuli/non_foods\non-food_animate_seahorse.jpg	1	2	1	non-food_animate_seahorse	0	G	4	0	145	0		0	0	134.36234630004	134.462314900011
30458.75	0.100006700027734	273	satiated	stimuli/foods\toasted_bread_with_tomatoes.jpg	1	2	1	toasted_bread_with_tomatoes	1	K	7	0	275	0		0	0	134.512324900017	134.612331600045
30496.25	0.0999772999202833	274	satiated	stimuli/non_foods\non-food_inanimate_suitcase.jpg	1	2	1	non-food_inanimate_suitcase	0	P	11	0	215	0		0	0	134.662329700077	134.762306999997
30533.75	0.100014599971473	275	satiated	stimuli/foods\spinach.jpg	1	2	1	spinach	1	B	0	0	268	0		0	0	134.812303000013	134.912317599985
30571.25	0.0999842000892386	276	satiated	stimuli/non_foods\non-food_inanimate_toy_airplane.jpg	1	2	1	non-food_inanimate_toy_airplane	0	L	8	0	222	0		0	0	134.962330000009	135.062314200099
30608.75	0.0999792999355122	277	satiated	stimuli/foods\risotto_with_peas_and_asparagus_tips.jpg	1	2	1	risotto_with_peas_and_asparagus_tips	1	F	3	0	259	0		0	0	135.112322800094	135.21230210003
30646.25	0.0999967999523506	278	satiated	stimuli/non_foods\non-food_animate_lion.jpg	1	2	1	non-food_animate_lion	0	P	11	0	125	0		0	0	135.262315800064	135.362312600017
30683.75	0.0999624999240041	279	satiated	stimuli/foods\brussel_sprouts.jpg	1	2	1	brussel_sprouts	1	S	13	0	15	0		0	0	135.412345100078	135.512307600002
33304.75	0.0999450999079272	280	satiated	stimuli/foods\cannoli.jpg	1	3	1	cannoli	1	X	17	0	17	0		0	0	145.895561000099	145.995506100007
33342.25	0.0999866999918595	281	satiated	stimuli/foods\cherry.jpg	1	3	1	cherry	1	F	3	0	23	0		0	0	146.045529499999	146.145516199991
33379.75	0.0999792999355122	282	satiated	stimuli/non_foods\non-food_animate_hummingbird.jpg	1	3	1	non-food_animate_hummingbird	0	C	1	0	120	0		0	0	146.19553310005	146.295512399985
33417.25	0.0999874999979511	283	satiated	stimuli/foods\baked_lamb_with_potatoes.jpg	1	3	1	baked_lamb_with_potatoes	1	T	14	0	8	0		0	0	146.345527600031	146.445515100029
33454.75	0.0999885000055656	284	satiated	stimuli/foods\strawberry.jpg	1	3	1	strawberry	1	S	13	0	272	0		0	0	146.49552570004	146.595514200046
33492.25	0.0999881000025198	285	satiated	stimuli/foods\pork_and_rice.jpg	1	3	1	pork_and_rice	1	T	14	0	245	0		0	0	146.645521600032	146.745509700035
33529.75	0.0999851999804378	286	satiated	stimuli/foods\brie.jpg	1	3	1	brie	1	D	2	0	12	0		0	0	146.795521900058	146.895507100038
33567.25	0.099983699969016	287	satiated	stimuli/non_foods\non-food_inanimate_hammer.jpg	1	3	1	non-food_inanimate_hammer	0	S	13	0	186	0		0	0	146.945521400077	147.045505100046
33604.75	0.0999861999880522	288	satiated	stimuli/non_foods\non-food_animate_ant.jpg	1	3	1	non-food_animate_ant	0	H	5	0	91	0		0	0	147.095518900082	147.19550510007
33642.25	0.0999861999880522	289	satiated	stimuli/non_foods\non-food_animate_deer.jpg	1	3	1	non-food_animate_deer	0	K	7	0	105	0		0	0	147.245516000083	147.345502200071
33679.75	0.0999806000618264	290	satiated	stimuli/non_foods\non-food_inanimate_lighter.jpg	1	3	1	non-food_inanimate_lighter	0	S	13	0	193	0		0	0	147.395517500001	147.495498100063
33717.25	0.100007999921218	291	satiated	stimuli/non_foods\non-food_animate_bee.jpg	1	3	1	non-food_animate_bee	0	D	2	0	95	0		0	0	147.545510400087	147.645518400008
33754.75	0.0999364000745118	292	satiated	stimuli/foods\cooked_prawn.jpg	1	3	1	cooked_prawn	1	P	11	0	36	0		0	0	147.695558600011	147.795495000086
33792.25	0.0999746000161394	293	satiated	stimuli/foods\egg.jpg	1	3	1	egg	1	J	6	0	45	0		0	0	147.845511500025	147.945486100041
33829.75	0.0999829999636859	294	satiated	stimuli/foods\red_cabbage.jpg	1	3	1	red_cabbage	1	P	11	0	256	0		0	0	147.99551040004	148.095493400004
33867.25	0.100001199985854	295	satiated	stimuli/non_foods\non-food_animate_skunk.jpg	1	3	1	non-food_animate_skunk	0	C	1	0	147	0		0	0	148.14548200008	148.245483200066
33904.75	0.0999797999393195	296	satiated	stimuli/foods\pear.jpg	1	3	1	pear	1	M	9	0	239	0		0	0	148.295496700099	148.395476500038
33942.25	0.100008700042963	297	satiated	stimuli/non_foods\non-food_inanimate_padlock.jpg	1	3	1	non-food_inanimate_padlock	0	X	17	0	199	0		0	0	148.445481100003	148.545489800046
33979.75	0.0999866999918595	298	satiated	stimuli/foods\coconut.jpg	1	3	1	coconut	1	P	11	0	33	0		0	0	148.595501200063	148.695487900055
34017.25	0.0999690999742597	299	satiated	stimuli/foods\pea_pod.jpg	1	3	1	pea_pod	1	T	14	0	237	0		0	0	148.745517900097	148.845487000071
34054.75	0.099988600006327	300	satiated	stimuli/foods\waffle.jpg	1	3	1	waffle	1	G	4	0	278	0		0	0	148.895495900069	148.995484500076
34092.25	0.0999913000268862	301	satiated	stimuli/foods\eggplant.jpg	1	3	1	eggplant	1	V	15	0	46	0		0	0	149.045492800069	149.145484100096
34129.75	0.0999859999865294	302	satiated	stimuli/non_foods\non-food_animate_horse.jpg	1	3	1	non-food_animate_horse	0	S	13	0	119	0		0	0	149.195496200002	149.295482199988
34167.25	0.100030899979174	303	satiated	stimuli/foods\cream_donuts.jpg	1	3	1	cream_donuts	1	M	9	0	39	0		0	0	149.345502800075	149.445533700055
34204.75	0.099940299987793	304	satiated	stimuli/non_foods\non-food_inanimate_bush.jpg	1	3	1	non-food_inanimate_bush	0	J	6	0	167	0		0	0	149.495539300027	149.595479600015
34242.25	0.0999804000603035	305	satiated	stimuli/non_foods\non-food_animate_killer_whale.jpg	1	3	1	non-food_animate_killer_whale	0	V	15	0	123	0		0	0	149.645489800023	149.745470200083
34279.75	0.0999870999949053	306	satiated	stimuli/non_foods\non-food_animate_owl.jpg	1	3	1	non-food_animate_owl	0	T	14	0	132	0		0	0	149.795486900024	149.895474000019
34317.25	0.0999930000398308	307	satiated	stimuli/foods\mortadella.jpg	1	3	1	mortadella	1	D	2	0	83	0		0	0	149.945480499999	150.045473500038
34354.75	0.0999878000002354	308	satiated	stimuli/foods\pineapple.jpg	1	3	1	pineapple	1	P	11	0	243	0		0	0	150.095480800024	150.195468600024
34392.25	0.0999871999956667	309	satiated	stimuli/foods\fruit_flan.jpg	1	3	1	fruit_flan	1	L	8	0	53	0		0	0	150.245480900048	150.345468100044
34429.75	0.0999864999903366	310	satiated	stimuli/foods\lemon.jpg	1	3	1	lemon	1	H	5	0	72	0		0	0	150.395481100073	150.495467600063
34467.25	0.0999722999986261	311	satiated	stimuli/non_foods\non-food_animate_kangaroo.jpg	1	3	1	non-food_animate_kangaroo	0	Z	18	0	122	0		0	0	150.54547760007	150.645449900068
34504.75	0.100005500018597	312	satiated	stimuli/foods\grilled_chicken_breast.jpg	1	3	1	grilled_chicken_breast	1	J	6	0	63	0		0	0	150.69545930007	150.795464800089
34542.25	0.099961599917151	313	satiated	stimuli/non_foods\non-food_inanimate_drum_set.jpg	1	3	1	non-food_inanimate_drum_set	0	W	16	0	179	0		0	0	150.845473000081	150.945434599998
34579.75	0.0999883000040427	314	satiated	stimuli/non_foods\non-food_animate_seal.jpg	1	3	1	non-food_animate_seal	0	Z	18	0	146	0		0	0	150.995472799987	151.095461099991
34617.25	0.0999843999743462	315	satiated	stimuli/non_foods\non-food_inanimate_fire_extinguisher.jpg	1	3	1	non-food_inanimate_fire_extinguisher	0	M	9	0	181	0		0	0	151.145496500074	151.245480900048
34654.75	0.0999733000062406	316	satiated	stimuli/foods\salami.jpg	1	3	1	salami	1	X	17	0	263	0		0	0	151.295482899994	151.3954562
34692.25	0.0999835999682546	317	satiated	stimuli/non_foods\non-food_inanimate_grass.jpg	1	3	1	non-food_inanimate_grass	0	N	10	0	184	0		0	0	151.445472500054	151.545456100022
34729.75	0.0999851999804378	318	satiated	stimuli/non_foods\non-food_inanimate_bucket.jpg	1	3	1	non-food_inanimate_bucket	0	T	14	0	165	0		0	0	151.595466000028	151.695451200008
34767.25	0.0999881000025198	319	satiated	stimuli/foods\chilli.jpg	1	3	1	chilli	1	D	2	0	25	0		0	0	151.745462800027	151.845450900029
34804.75	0.0999820000724867	320	satiated	stimuli/non_foods\non-food_animate_sea_lion.jpg	1	3	1	non-food_animate_sea_lion	0	T	14	0	143	0		0	0	151.895469599986	151.995451600058
34842.25	0.0999835999682546	321	satiated	stimuli/foods\salmon.jpg	1	3	1	salmon	1	V	15	0	264	0		0	0	152.045461900067	152.145445500035
34879.75	0.100001399987377	322	satiated	stimuli/foods\brussel_sprouts.jpg	1	3	1	brussel_sprouts	1	W	16	0	15	0		0	0	152.195455700043	152.29545710003
34917.25	0.100000399979763	323	satiated	stimuli/non_foods\non-food_inanimate_leaf.jpg	1	3	1	non-food_inanimate_leaf	0	V	15	0	192	0		0	0	152.345436300035	152.445436700014
34954.75	0.100003200001083	324	satiated	stimuli/foods\peas.jpg	1	3	1	peas	1	G	4	0	240	0		0	0	152.49544790003	152.595451100031
34992.25	0.10000749991741	325	satiated	stimuli/foods\tomato.jpg	1	3	1	tomato	1	W	16	0	276	0		0	0	152.645435900078	152.745443399996
35029.75	0.0999946999363601	326	satiated	stimuli/non_foods\non-food_inanimate_folding_chair.jpg	1	3	1	non-food_inanimate_folding_chair	0	L	8	0	182	0		0	0	152.795450900099	152.895445600036
35067.25	0.0999941999325529	327	satiated	stimuli/foods\lettuce.jpg	1	3	1	lettuce	1	C	1	0	75	0		0	0	152.945456900052	153.045451099984
35104.75	0.0999519000761211	328	satiated	stimuli/non_foods\non-food_inanimate_tulip.jpg	1	3	1	non-food_inanimate_tulip	0	G	4	0	224	0		0	0	153.095479100011	153.195431000087
35142.25	0.0999864999903366	329	satiated	stimuli/non_foods\non-food_animate_iguana.jpg	1	3	1	non-food_animate_iguana	0	N	10	0	121	0		0	0	153.245445400011	153.345431900001
35179.75	0.0999790000496432	330	satiated	stimuli/non_foods\non-food_inanimate_tent.jpg	1	3	1	non-food_inanimate_tent	0	L	8	0	219	0		0	0	153.395447200048	153.495426200097
35217.25	0.0999880000017583	331	satiated	stimuli/non_foods\non-food_animate_clown.jpg	1	3	1	non-food_animate_clown	0	V	15	0	102	0		0	0	153.545441000024	153.645429000026
35254.75	0.0999890000093728	332	satiated	stimuli/foods\mandarin.jpg	1	3	1	mandarin	1	B	0	0	79	0		0	0	153.695441000047	153.795430000057
35292.25	0.0999751000199467	333	satiated	stimuli/non_foods\non-food_inanimate_sun_flower.jpg	1	3	1	non-food_inanimate_sun_flower	0	N	10	0	216	0		0	0	153.845452000038	153.945427100058
35329.75	0.100021100020967	334	satiated	stimuli/foods\linguine_with_clams.jpg	1	3	1	linguine_with_clams	1	F	3	0	77	0		0	0	153.995437800069	154.09545890009
35367.25	0.0999869999941438	335	satiated	stimuli/foods\mushroom.jpg	1	3	1	mushroom	1	N	10	0	85	0		0	0	154.145438300096	154.245425300091
35404.75	0.0999861999880522	336	satiated	stimuli/foods\fennel.jpg	1	3	1	fennel	1	M	9	0	47	0		0	0	154.295434000087	154.395420200075
35442.25	0.0999874999979511	337	satiated	stimuli/non_foods\non-food_animate_bat.jpg	1	3	1	non-food_animate_bat	0	C	1	0	94	0		0	0	154.445430800086	154.545418300084
35479.75	0.0999871999956667	338	satiated	stimuli/non_foods\non-food_animate_ram.jpg	1	3	1	non-food_animate_ram	0	R	12	0	140	0		0	0	154.595432300004	154.6954195
35517.25	0.0999546999810264	339	satiated	stimuli/non_foods\non-food_animate_Causasian_man.jpg	1	3	1	non-food_animate_Causasian_man	0	F	3	0	89	0		0	0	154.745463700034	154.845418400015
35554.75	0.0999671999597922	340	satiated	stimuli/non_foods\non-food_inanimate_stapler.jpg	1	3	1	non-food_inanimate_stapler	0	Z	18	0	213	0		0	0	154.895449100062	154.995416300022
35592.25	0.0999828999629244	341	satiated	stimuli/non_foods\non-food_animate_frog.jpg	1	3	1	non-food_animate_frog	0	F	3	0	113	0		0	0	155.045430200058	155.145413100021
35629.75	0.0999829999636859	342	satiated	stimuli/foods\cucumber.jpg	1	3	1	cucumber	1	D	2	0	41	0		0	0	155.195427200058	155.295410200022
35667.25	0.0999882000032812	343	satiated	stimuli/foods\fries.jpg	1	3	1	fries	1	N	10	0	52	0		0	0	155.345420700032	155.445408900036
35704.75	0.0999848999781534	344	satiated	stimuli/foods\swordfish.jpg	1	3	1	swordfish	1	K	7	0	273	0		0	0	155.495421900065	155.595406800043
35742.25	0.0999858999857679	345	satiated	stimuli/foods\stew_with_potatoes_and_carrots.jpg	1	3	1	stew_with_potatoes_and_carrots	1	S	13	0	271	0		0	0	155.645421900088	155.745407800074
35779.75	0.100013800081797	346	satiated	stimuli/non_foods\non-food_animate_chicken.jpg	1	3	1	non-food_animate_chicken	0	V	15	0	101	0		0	0	155.79542129999	155.895435100072
35817.25	0.0999858999857679	347	satiated	stimuli/non_foods\non-food_inanimate_orchid.jpg	1	3	1	non-food_inanimate_orchid	0	W	16	0	198	0		0	0	155.945415900089	156.045401800075
35854.75	0.0999828000785783	348	satiated	stimuli/non_foods\non-food_animate_lion.jpg	1	3	1	non-food_animate_lion	0	D	2	0	125	0		0	0	156.095416199998	156.195399000077
35892.25	0.0999858001014218	349	satiated	stimuli/non_foods\non-food_inanimate_scissors.jpg	1	3	1	non-food_inanimate_scissors	0	R	12	0	205	0		0	0	156.245412199991	156.345398000092
35929.75	0.100020800018683	350	satiated	stimuli/foods\mussels.jpg	1	3	1	mussels	1	I	21	1	86	0		0	0	156.395388200064	156.495409000083
35967.25	0.0999990000855178	351	satiated	stimuli/foods\celery.jpg	1	3	1	celery	1	Z	18	0	21	0		0	0	156.545390799991	156.645389800076
36004.75	0.0999592000152916	352	satiated	stimuli/non_foods\non-food_inanimate_towel.jpg	1	3	1	non-food_inanimate_towel	0	K	7	0	221	0		0	0	156.69541080005	156.795370000065
36042.25	0.099986599991098	353	satiated	stimuli/foods\pasta_carbonara.jpg	1	3	1	pasta_carbonara	1	R	12	0	236	1	a	0.54184299998451	1	156.845406800043	156.945393400034
36079.75	0.0999849999789149	354	satiated	stimuli/non_foods\non-food_inanimate_nailpolish.jpg	1	3	1	non-food_inanimate_nailpolish	0	H	5	0	195	0		0	0	156.995404800051	157.09538980003
36117.25	0.0999794999370351	355	satiated	stimuli/foods\gnocchi.jpg	1	3	1	gnocchi	1	P	11	0	58	0		0	0	157.145404000068	157.245383500005
36154.75	0.0999840999720618	356	satiated	stimuli/foods\smoked_ham.jpg	1	3	1	smoked_ham	1	B	0	0	266	0		0	0	157.295394400018	157.39537849999
36192.25	0.0999869999941438	357	satiated	stimuli/foods\orange.jpg	1	3	1	orange	1	S	13	0	230	0		0	0	157.445390000008	157.545377000002
36229.75	0.100005900021642	358	satiated	stimuli/foods\donut.jpg	1	3	1	donut	1	P	11	0	44	0		0	0	157.595390000031	157.695395900053
36267.25	0.100003200001083	359	satiated	stimuli/foods\figs.jpg	1	3	1	figs	1	N	10	0	48	0		0	0	157.745379800093	157.845383000094
36304.75	0.0999853999819607	360	satiated	stimuli/non_foods\non-food_inanimate_buds.jpg	1	3	1	non-food_inanimate_buds	0	P	11	0	166	0		0	0	157.895396600012	157.995381999994
36342.25	0.0999759000260383	361	satiated	stimuli/foods\risotto_with_peas_and_asparagus_tips.jpg	1	3	1	risotto_with_peas_and_asparagus_tips	1	R	12	0	259	0		0	0	158.04539460002	158.145370500046
36379.75	0.100007599918172	362	satiated	stimuli/non_foods\non-food_animate_tortoise.jpg	1	3	1	non-food_animate_tortoise	0	V	15	0	153	0		0	0	158.195382300066	158.295389899984
36417.25	0.099951000069268	363	satiated	stimuli/foods\avocado.jpg	1	3	1	avocado	1	S	13	0	5	0		0	0	158.345416900003	158.445367900073
36454.75	0.0999953999416903	364	satiated	stimuli/foods\potato_chips.jpg	1	3	1	potato_chips	1	G	4	0	247	0		0	0	158.495378600084	158.595374000026
36492.25	0.0999842999735847	365	satiated	stimuli/foods\raisins.jpg	1	3	1	raisins	1	U	23	1	252	0		0	0	158.645386800054	158.745371100027
36529.75	0.0999927000375465	366	satiated	stimuli/non_foods\non-food_animate_mouse.jpg	1	3	1	non-food_animate_mouse	0	M	9	0	131	0		0	0	158.795378900017	158.895371600054
36567.25	0.0999842999735847	367	satiated	stimuli/foods\rice_cake.jpg	1	3	1	rice_cake	1	H	5	0	258	0		0	0	158.94538410008	159.045368400053
36604.75	0.0999610999133438	368	satiated	stimuli/non_foods\non-food_animate_butterfly.jpg	1	3	1	non-food_animate_butterfly	0	J	6	0	96	1	a	0.541818500030786	1	159.095380100072	159.195341199986
36642.25	0.0999601000221446	369	satiated	stimuli/foods\cabbage.jpg	1	3	1	cabbage	1	X	17	0	16	0		0	0	159.245381099987	159.345341200009
36679.75	0.0999892000108957	370	satiated	stimuli/non_foods\non-food_animate_young_boy.jpg	1	3	1	non-food_animate_young_boy	0	F	3	0	156	0		0	0	159.395374800079	159.495364000089
36717.25	0.0999897998990491	371	satiated	stimuli/foods\watermelon.jpg	1	3	1	watermelon	1	K	7	0	279	0		0	0	159.545372900087	159.645362699986
36754.75	0.0999899000162259	372	satiated	stimuli/foods\green_olives.jpg	1	3	1	green_olives	1	X	17	0	62	0		0	0	159.695372199989	159.795362100005
36792.25	0.0999862999888137	373	satiated	stimuli/non_foods\non-food_inanimate_canoe.jpg	1	3	1	non-food_inanimate_canoe	0	D	2	0	170	0		0	0	159.845354699995	159.945340999984
36829.75	0.0999998999759555	374	satiated	stimuli/foods\fried_calamari.jpg	1	3	1	fried_calamari	1	L	8	0	50	0		0	0	159.995374800055	160.095374700031
36867.25	0.0999934000428766	375	satiated	stimuli/foods\spinach.jpg	1	3	1	spinach	1	T	14	0	268	0		0	0	160.145362599986	160.245356000029
36904.75	0.100002899998799	376	satiated	stimuli/foods\brownie.jpg	1	3	1	brownie	1	M	9	0	14	0		0	0	160.295350300032	160.395353200031
36942.25	0.0999851999804378	377	satiated	stimuli/non_foods\non-food_inanimate_shell.jpg	1	3	1	non-food_inanimate_shell	0	G	4	0	206	0		0	0	160.445364100044	160.545349300024
36979.75	0.0999854999827221	378	satiated	stimuli/foods\taco.jpg	1	3	1	taco	1	P	11	0	274	0		0	0	160.595363000059	160.695348500041
37017.25	0.0999878000002354	379	satiated	stimuli/non_foods\non-food_inanimate_short_sleeved_shirt.jpg	1	3	1	non-food_inanimate_short_sleeved_shirt	0	V	15	0	207	0		0	0	160.745362200076	160.845350000076
37054.75	0.0999861999880522	380	satiated	stimuli/non_foods\non-food_animate_grasshopper.jpg	1	3	1	non-food_animate_grasshopper	0	C	1	0	117	0		0	0	160.895360000082	160.99534620007
37092.25	0.0999962000641972	381	satiated	stimuli/foods\red_beans.jpg	1	3	1	red_beans	1	M	9	0	255	0		0	0	161.045347800013	161.145344000077
37129.75	0.0999674999620765	382	satiated	stimuli/non_foods\non-food_inanimate_cactus_pot_plant.jpg	1	3	1	non-food_inanimate_cactus_pot_plant	0	J	6	0	169	0		0	0	161.195376600022	161.295344099985
37167.25	0.0999849999789149	383	satiated	stimuli/foods\coffee_beans.jpg	1	3	1	coffee_beans	1	Z	18	0	34	0		0	0	161.345352800097	161.445337800076
37204.75	0.0999880000017583	384	satiated	stimuli/foods\lemon_meringue_pie.jpg	1	3	1	lemon_meringue_pie	1	H	5	0	73	0		0	0	161.4953522	161.595340200001
37242.25	0.0999927000375465	385	satiated	stimuli/foods\hotdog.jpg	1	3	1	hotdog	1	P	11	0	67	0		0	0	161.645342000062	161.745334700099
37279.75	0.100010200054385	386	satiated	stimuli/foods\cupcake.jpg	1	3	1	cupcake	1	D	2	0	42	0		0	0	161.795362500008	161.895372700063
37317.25	0.0999599000206217	387	satiated	stimuli/foods\toasted_bread_with_tomatoes.jpg	1	3	1	toasted_bread_with_tomatoes	1	Z	18	0	275	0		0	0	161.945366700063	162.045326600084
37354.75	0.0999857001006603	388	satiated	stimuli/non_foods\non-food_animate_camel.jpg	1	3	1	non-food_animate_camel	0	W	16	0	97	0		0	0	162.095339899999	162.1953256001
37392.25	0.0999913999112323	389	satiated	stimuli/foods\spaghetti_with_meat_sauce.jpg	1	3	1	spaghetti_with_meat_sauce	1	B	0	0	267	0		0	0	162.245334100095	162.345325500006
37429.75	0.0999834999674931	390	satiated	stimuli/foods\cracker.jpg	1	3	1	cracker	1	J	6	0	38	0		0	0	162.39533910004	162.495322600007
37467.25	0.0999831000808626	391	satiated	stimuli/foods\pancakes.jpg	1	3	1	pancakes	1	K	7	0	234	0		0	0	162.545317000011	162.645300100092
37504.75	0.0999891000101343	392	satiated	stimuli/foods\raw_ham.jpg	1	3	1	raw_ham	1	W	16	0	253	0		0	0	162.695338700083	162.795327800093
37542.25	0.0999783000443131	393	satiated	stimuli/foods\cooked_ham.jpg	1	3	1	cooked_ham	1	J	6	0	35	0		0	0	162.845342200017	162.945320500061
37579.75	0.0999889000086114	394	satiated	stimuli/non_foods\non-food_inanimate_bicycle.jpg	1	3	1	non-food_inanimate_bicycle	0	D	2	0	161	0		0	0	162.995335399988	163.095324299997
37617.25	0.0999850000953302	395	satiated	stimuli/non_foods\non-food_inanimate_briefcase.jpg	1	3	1	non-food_inanimate_briefcase	0	N	10	0	163	0		0	0	163.145334000001	163.245319000096
37654.75	0.100007500033826	396	satiated	stimuli/non_foods\non-food_inanimate_socks.jpg	1	3	1	non-food_inanimate_socks	0	E	20	1	211	0		0	0	163.295303300023	163.395310800057
37692.25	0.0999832999659702	397	satiated	stimuli/non_foods\non-food_animate_sea_turtle.jpg	1	3	1	non-food_animate_sea_turtle	0	K	7	0	144	0		0	0	163.445325400098	163.545308700064
37729.75	0.0999740998959169	398	satiated	stimuli/foods\banana.jpg	1	3	1	banana	1	J	6	0	9	0		0	0	163.595336300088	163.695310399984
37767.25	0.0999783999286592	399	satiated	stimuli/non_foods\non-food_animate_lizard.jpg	1	3	1	non-food_animate_lizard	0	W	16	0	126	1	a	0.451541500049643	1	163.745331600076	163.845310000004
37804.75	0.100008000037633	400	satiated	stimuli/foods\rockmelon.jpg	1	3	1	rockmelon	1	R	12	0	262	0		0	0	163.89530600002	163.995314000058
37842.25	0.0999868999933824	401	satiated	stimuli/non_foods\non-food_animate_alligator.jpg	1	3	1	non-food_animate_alligator	0	L	8	0	90	0		0	0	164.045321900048	164.145308800042
37879.75	0.0999869999941438	402	satiated	stimuli/non_foods\non-food_inanimate_toilet.jpg	1	3	1	non-food_inanimate_toilet	0	G	4	0	220	0		0	0	164.195320900064	164.295307900058
37917.25	0.100010800058953	403	satiated	stimuli/non_foods\non-food_inanimate_chair.jpg	1	3	1	non-food_inanimate_chair	0	M	9	0	172	0		0	0	164.345295300009	164.445306100068
37954.75	0.0999863999895751	404	satiated	stimuli/non_foods\non-food_animate_woman.jpg	1	3	1	non-food_animate_woman	0	H	5	0	154	0		0	0	164.495310900034	164.595297300024
37992.25	0.099988600006327	405	satiated	stimuli/non_foods\non-food_animate_polar_bear.jpg	1	3	1	non-food_animate_polar_bear	0	S	13	0	137	0		0	0	164.645307400031	164.745296000037
38029.75	0.0999864999903366	406	satiated	stimuli/foods\cereal.jpg	1	3	1	cereal	1	W	16	0	22	0		0	0	164.795330499997	164.895316999988
38067.25	0.0999899000162259	407	satiated	stimuli/foods\cinnamon_sroll.jpg	1	3	1	cinnamon_sroll	1	R	12	0	31	0		0	0	164.945303000044	165.04529290006
38104.75	0.099972500000149	408	satiated	stimuli/foods\honey.jpg	1	3	1	honey	1	F	3	0	66	0		0	0	165.09530470008	165.19527720008
38142.25	0.0999879000009969	409	satiated	stimuli/non_foods\non-food_inanimate_chandelier.jpg	1	3	1	non-food_inanimate_chandelier	0	Z	18	0	173	0		0	0	165.245307200006	165.345295100007
38179.75	0.10000019997824	410	satiated	stimuli/non_foods\non-food_animate_snail.jpg	1	3	1	non-food_animate_snail	0	K	7	0	149	0		0	0	165.395307800034	165.495308000012
38217.25	0.0999367999611422	411	satiated	stimuli/foods\green_beans.jpg	1	3	1	green_beans	1	H	5	0	61	0		0	0	165.545355000068	165.645291800029
38254.75	0.099989700014703	412	satiated	stimuli/non_foods\non-food_animate_millipede.jpg	1	3	1	non-food_animate_millipede	0	G	4	0	129	0		0	0	165.695299100014	165.795288800029
38292.25	0.0999808000633493	413	satiated	stimuli/non_foods\non-food_inanimate_highlighter.jpg	1	3	1	non-food_inanimate_highlighter	0	C	1	0	189	0		0	0	165.845309199998	165.945290000062
38329.75	0.0999670999590307	414	satiated	stimuli/non_foods\non-food_inanimate_nettle.jpg	1	3	1	non-food_inanimate_nettle	0	N	10	0	197	0		0	0	165.995303000091	166.09527010005
38367.25	0.0999676000792533	415	satiated	stimuli/foods\prawn.jpg	1	3	1	prawn	1	P	11	0	249	0		0	0	166.145301499986	166.245269100065
38404.75	0.0999958999454975	416	satiated	stimuli/foods\rice.jpg	1	3	1	rice	1	B	0	0	257	0		0	0	166.295280300081	166.395276200026
38442.25	0.0999854999827221	417	satiated	stimuli/foods\cinnamon.jpg	1	3	1	cinnamon	1	F	3	0	30	0		0	0	166.445288900053	166.545274400036
38479.75	0.099943200009875	418	satiated	stimuli/foods\hamburger.jpg	1	3	1	hamburger	1	V	15	0	64	0		0	0	166.595338399988	166.695281599998
38517.25	0.099984799977392	419	satiated	stimuli/non_foods\non-food_animate_squirrel.jpg	1	3	1	non-food_animate_squirrel	0	P	11	0	150	0		0	0	166.745285400073	166.84527020005
43500.5	0.0999767000321299	420	satiated	stimuli/non_foods\non-food_inanimate_soccer_ball.jpg	1	4	1	non-food_inanimate_soccer_ball	0	D	2	0	210	0		0	0	186.678408900043	186.778385600075
43538	0.0999812000663951	421	satiated	stimuli/non_foods\non-food_inanimate_nest.jpg	1	4	1	non-food_inanimate_nest	0	J	6	0	196	0		0	0	186.828403800027	186.928385000094
43575.5	0.0999834999674931	422	satiated	stimuli/foods\pomegranate.jpg	1	4	1	pomegranate	1	H	5	0	244	0		0	0	186.978400100023	187.07838359999
43613	0.0999703999841586	423	satiated	stimuli/foods\omelette.jpg	1	4	1	omelette	1	L	8	0	228	0		0	0	187.128410600009	187.228380999994
43650.5	0.0999855999834836	424	satiated	stimuli/non_foods\non-food_inanimate_couch.jpg	1	4	1	non-food_inanimate_couch	0	M	9	0	176	0		0	0	187.278395200032	187.378380800015
43688	0.0999859999865294	425	satiated	stimuli/non_foods\non-food_inanimate_table.jpg	1	4	1	non-food_inanimate_table	0	H	5	0	217	0		0	0	187.42839190003	187.528377900016
43725.5	0.0999840999720618	426	satiated	stimuli/non_foods\non-food_animate_slug.jpg	1	4	1	non-food_animate_slug	0	C	1	0	148	0		0	0	187.578393800068	187.67837790004
43763	0.0999954000581056	427	satiated	stimuli/foods\oregano.jpg	1	4	1	oregano	1	H	5	0	231	0		0	0	187.728379699984	187.828375100042
43800.5	0.0999584000092	428	satiated	stimuli/foods\papaya.jpg	1	4	1	papaya	1	R	12	0	235	0		0	0	187.878396900021	187.978355300031
43838	0.0999882000032812	429	satiated	stimuli/non_foods\non-food_animate_green_bug.jpg	1	4	1	non-food_animate_green_bug	0	L	8	0	118	0		0	0	188.028384300065	188.128372500069
43875.5	0.0999809000641108	430	satiated	stimuli/non_foods\non-food_animate_dragonfly.jpg	1	4	1	non-food_animate_dragonfly	0	T	14	0	108	0		0	0	188.178387599997	188.278368500061
43913	0.0999921000329778	431	satiated	stimuli/non_foods\non-food_animate_student_female.jpg	1	4	1	non-food_animate_student_female	0	M	9	0	151	0		0	0	188.328377900063	188.428370000096
43950.5	0.0999849000945687	432	satiated	stimuli/foods\chocolate_pralines.jpg	1	4	1	chocolate_pralines	1	G	4	0	28	0		0	0	188.4783819	188.578366800095
43988	0.0999855999834836	433	satiated	stimuli/non_foods\non-food_animate_dolphin.jpg	1	4	1	non-food_animate_dolphin	0	C	1	0	106	0		0	0	188.628379500005	188.728365099989
44025.5	0.100006900029257	434	satiated	stimuli/non_foods\non-food_inanimate_headphones.jpg	1	4	1	non-food_inanimate_headphones	0	I	21	1	188	0		0	0	188.778378900024	188.878385800053
44063	0.0999625999247655	435	satiated	stimuli/non_foods\non-food_animate_donkey.jpg	1	4	1	non-food_animate_donkey	0	L	8	0	107	0		0	0	188.928396200063	189.028358799987
44100.5	0.0999913000268862	436	satiated	stimuli/non_foods\non-food_animate_pigeon.jpg	1	4	1	non-food_animate_pigeon	0	V	15	0	136	0		0	0	189.078370600007	189.178361900034
44138	0.0999820999568328	437	satiated	stimuli/non_foods\non-food_inanimate_suitcase.jpg	1	4	1	non-food_inanimate_suitcase	0	C	1	0	215	1	a	0.541837500059046	1	189.22837570007	189.328357800026
44175.5	0.0999943000497296	438	satiated	stimuli/non_foods\non-food_animate_llama.jpg	1	4	1	non-food_animate_llama	0	W	16	0	127	0		0	0	189.378368400037	189.478362700087
44213	0.0999795000534505	439	satiated	stimuli/foods\almonds.jpg	1	4	1	almonds	1	F	3	0	0	0		0	0	189.528379500029	189.628359000082
44250.5	0.0999854999827221	440	satiated	stimuli/non_foods\non-food_animate_porcupine.jpg	1	4	1	non-food_animate_porcupine	0	L	8	0	138	0		0	0	189.678365100059	189.778350600041
44288	0.0999909999081865	441	satiated	stimuli/non_foods\non-food_inanimate_ring.jpg	1	4	1	non-food_inanimate_ring	0	B	0	0	203	0		0	0	189.828351100092	189.9283421
44325.5	0.0999833999667317	442	satiated	stimuli/non_foods\non-food_inanimate_pine_cone.jpg	1	4	1	non-food_inanimate_pine_cone	0	L	8	0	200	0		0	0	189.978364300099	190.078347700066
44363	0.0999863999895751	443	satiated	stimuli/non_foods\non-food_animate_cow.jpg	1	4	1	non-food_animate_cow	0	G	4	0	103	0		0	0	190.128361200099	190.228347600088
44400.5	0.0999903999036178	444	satiated	stimuli/non_foods\non-food_animate_fox.jpg	1	4	1	non-food_animate_fox	0	K	7	0	112	0		0	0	190.278357100091	190.378347499995
44438	0.0999831999652088	445	satiated	stimuli/non_foods\non-food_inanimate_jeans.jpg	1	4	1	non-food_inanimate_jeans	0	G	4	0	191	0		0	0	190.428360300022	190.528343499987
44475.5	0.100015199976042	446	satiated	stimuli/foods\risotto_with_zucchini.jpg	1	4	1	risotto_with_zucchini	1	C	1	0	260	0		0	0	190.578359200037	190.678374400013
44513	0.0999749000184238	447	satiated	stimuli/non_foods\non-food_inanimate_hay.jpg	1	4	1	non-food_inanimate_hay	0	M	9	0	187	0		0	0	190.728366099996	190.828341000015
44550.5	0.0999861999880522	448	satiated	stimuli/foods\lime.jpg	1	4	1	lime	1	Z	18	0	76	0		0	0	190.878353400039	190.978339600028
44588	0.0999887000070885	449	satiated	stimuli/foods\peach.jpg	1	4	1	peach	1	H	5	0	238	0		0	0	191.028350200038	191.128338900045
44625.5	0.0999870999949053	450	satiated	stimuli/non_foods\non-food_inanimate_toy_airplane.jpg	1	4	1	non-food_inanimate_toy_airplane	0	J	6	0	222	0		0	0	191.178351600072	191.278338700067
44663	0.0999635000480339	451	satiated	stimuli/non_foods\non-food_inanimate_protractor.jpg	1	4	1	non-food_inanimate_protractor	0	C	1	0	201	0		0	0	191.328369399998	191.428332900046
44700.5	0.0999784999294207	452	satiated	stimuli/foods\broccoli.jpg	1	4	1	broccoli	1	W	16	0	13	0		0	0	191.478347300086	191.578325800016
44738	0.0999868999933824	453	satiated	stimuli/foods\lasagna.jpg	1	4	1	lasagna	1	G	4	0	71	0		0	0	191.628337000031	191.728323900024
44775.5	0.0999881000025198	454	satiated	stimuli/foods\radish.jpg	1	4	1	radish	1	L	8	0	251	0		0	0	191.778334700037	191.878322800039
44813	0.0999833999667317	455	satiated	stimuli/non_foods\non-food_animate_dachshund.jpg	1	4	1	non-food_animate_dachshund	0	V	15	0	104	0		0	0	191.928332700045	192.028316100012
44850.5	0.0999860999872908	456	satiated	stimuli/foods\corncob.jpg	1	4	1	corncob	1	W	16	0	37	0		0	0	192.078330600052	192.178316700039
44888	0.0999844999751076	457	satiated	stimuli/non_foods\non-food_inanimate_desk.jpg	1	4	1	non-food_inanimate_desk	0	X	17	0	178	0		0	0	192.228331600083	192.328316100058
44925.5	0.099986599991098	458	satiated	stimuli/non_foods\non-food_inanimate_alarm_clock.jpg	1	4	1	non-food_inanimate_alarm_clock	0	G	4	0	158	0		0	0	192.37832820008	192.478314800072
44963	0.0999815999530256	459	satiated	stimuli/non_foods\non-food_animate_gorilla.jpg	1	4	1	non-food_animate_gorilla	0	M	9	0	116	0		0	0	192.528326000087	192.62830760004
45000.5	0.0999991999706253	460	satiated	stimuli/non_foods\non-food_animate_Asian_man.jpg	1	4	1	non-food_animate_Asian_man	0	X	17	0	88	0		0	0	192.678317700047	192.778316900018
45038	0.100006600026973	461	satiated	stimuli/foods\oven-roasted_tomatoes.jpg	1	4	1	oven-roasted_tomatoes	1	P	11	0	232	0		0	0	192.828313300037	192.928319900064
45075.5	0.0999930999241769	462	satiated	stimuli/foods\bagel.jpg	1	4	1	bagel	1	K	7	0	6	0		0	0	192.978331500082	193.078324600006
45113	0.0999728000024334	463	satiated	stimuli/foods\capsicum.jpg	1	4	1	capsicum	1	T	14	0	18	0		0	0	193.128339100047	193.228311900049
45150.5	0.0999848999781534	464	satiated	stimuli/foods\pepperoni_pizza.jpg	1	4	1	pepperoni_pizza	1	G	4	0	241	0		0	0	193.278323900071	193.378308800049
45188	0.0999887000070885	465	satiated	stimuli/non_foods\non-food_animate_german_shepherd.jpg	1	4	1	non-food_animate_german_shepherd	0	S	13	0	114	0		0	0	193.428325199988	193.528313899995
45225.5	0.0999859999865294	466	satiated	stimuli/foods\minestrone_soup.jpg	1	4	1	minestrone_soup	1	F	3	0	82	0		0	0	193.578321100096	193.678307100083
45263	0.0999888998921961	467	satiated	stimuli/non_foods\non-food_animate_peacock.jpg	1	4	1	non-food_animate_peacock	0	P	11	0	134	0		0	0	193.728318200097	193.82830709999
45300.5	0.0999824000755325	468	satiated	stimuli/non_foods\non-food_animate_raccoon.jpg	1	4	1	non-food_animate_raccoon	0	F	3	0	139	0		0	0	193.878319300013	193.978301700088
45338	0.0999834999674931	469	satiated	stimuli/foods\apricot.jpg	1	4	1	apricot	1	K	7	0	2	0		0	0	194.02831720002	194.128300699987
45375.5	0.10000640002545	470	satiated	stimuli/non_foods\non-food_inanimate_fern.jpg	1	4	1	non-food_inanimate_fern	0	D	2	0	180	0		0	0	194.178295399994	194.278301800019
45413	0.0999895000131801	471	satiated	stimuli/non_foods\non-food_animate_ladybug.jpg	1	4	1	non-food_animate_ladybug	0	L	8	0	124	0		0	0	194.328317800071	194.428307300084
45450.5	0.10000089998357	472	satiated	stimuli/foods\fruit_salad.jpg	1	4	1	fruit_salad	1	N	10	0	55	0		0	0	194.478314700071	194.578315600054
45488	0.0999687000876293	473	satiated	stimuli/non_foods\non-food_inanimate_stoplight.jpg	1	4	1	non-food_inanimate_stoplight	0	W	16	0	214	0		0	0	194.628332699998	194.728301400086
45525.5	0.100018400000408	474	satiated	stimuli/foods\chocolate_bar.jpg	1	4	1	chocolate_bar	1	G	4	0	26	0		0	0	194.778308600071	194.878327000071
45563	0.0999396999832243	475	satiated	stimuli/non_foods\non-food_animate_runner.jpg	1	4	1	non-food_animate_runner	0	P	11	0	142	0		0	0	194.928354500094	195.028294200078
45600.5	0.0999894000124186	476	satiated	stimuli/foods\garlic.jpg	1	4	1	garlic	1	F	3	0	56	0		0	0	195.078292299993	195.178281700006
45638	0.099983699969016	477	satiated	stimuli/foods\fruit_pie.jpg	1	4	1	fruit_pie	1	H	5	0	54	0		0	0	195.228298500064	195.328282200033
45675.5	0.0999636000487953	478	satiated	stimuli/foods\dates.jpg	1	4	1	dates	1	P	11	0	43	0		0	0	195.378307400038	195.478271000087
45713	0.0999866001075134	479	satiated	stimuli/non_foods\non-food_inanimate_gloves.jpg	1	4	1	non-food_inanimate_gloves	0	N	10	0	183	0		0	0	195.528298199992	195.628284800099
45750.5	0.0999894000124186	480	satiated	stimuli/non_foods\non-food_inanimate_broom.jpg	1	4	1	non-food_inanimate_broom	0	L	8	0	164	0		0	0	195.678296500002	195.778285900014
45788	0.0999875999987125	481	satiated	stimuli/non_foods\non-food_animate_young_girl.jpg	1	4	1	non-food_animate_young_girl	0	G	4	0	157	0		0	0	195.828297200031	195.928284800029
45825.5	0.0999783000443131	482	satiated	stimuli/foods\frankfurter_and_provolone_salad.jpg	1	4	1	frankfurter_and_provolone_salad	1	J	6	0	49	0		0	0	195.978310800041	196.078289100085
45863	0.0999820999568328	483	satiated	stimuli/foods\clams.jpg	1	4	1	clams	1	T	14	0	32	0		0	0	196.128296900075	196.228279000032
45900.5	0.0999887000070885	484	satiated	stimuli/foods\blackberry.jpg	1	4	1	blackberry	1	V	15	0	11	0		0	0	196.278290200047	196.378278900054
45938	0.0999879000009969	485	satiated	stimuli/foods\potatoes.jpg	1	4	1	potatoes	1	H	5	0	248	0		0	0	196.42829020007	196.528278100071
45975.5	0.0999967999523506	486	satiated	stimuli/foods\asparagus.jpg	1	4	1	asparagus	1	N	10	0	4	0		0	0	196.578289400088	196.67828620004
46013	0.0999549999833107	487	satiated	stimuli/foods\nectarine.jpg	1	4	1	nectarine	1	C	1	0	87	0		0	0	196.728307100013	196.828262099996
46050.5	0.0999872999964282	488	satiated	stimuli/foods\spring_onions.jpg	1	4	1	spring_onions	1	W	16	0	269	0		0	0	196.87827700004	196.978264300036
46088	0.0999869999941438	489	satiated	stimuli/non_foods\non-food_inanimate_wrench.jpg	1	4	1	non-food_inanimate_wrench	0	Z	18	0	227	0		0	0	197.028277300065	197.12826430006
46125.5	0.099982799962163	490	satiated	stimuli/foods\croissant.jpg	1	4	1	croissant	1	F	3	0	40	0		0	0	197.178273200057	197.27825600002
46163	0.0999892000108957	491	satiated	stimuli/non_foods\non-food_inanimate_construction_helment.jpg	1	4	1	non-food_inanimate_construction_helment	0	G	4	0	175	0		0	0	197.328269500053	197.428258700063
46200.5	0.0999885000055656	492	satiated	stimuli/non_foods\non-food_animate_parrot.jpg	1	4	1	non-food_animate_parrot	0	W	16	0	133	0		0	0	197.478269600077	197.578258100082
46238	0.0999768999172375	493	satiated	stimuli/foods\carrot.jpg	1	4	1	carrot	1	F	3	0	19	0		0	0	197.628269100096	197.728246000013
46275.5	0.0999974999576807	494	satiated	stimuli/foods\beetroots.jpg	1	4	1	beetroots	1	P	11	0	10	0		0	0	197.778264000081	197.878261500038
46313	0.0999804999446496	495	satiated	stimuli/non_foods\non-food_animate_monkey.jpg	1	4	1	non-food_animate_monkey	0	K	7	0	130	0		0	0	197.928271100041	198.028251599986
46350.5	0.0999883000040427	496	satiated	stimuli/non_foods\non-food_inanimate_bamboo.jpg	1	4	1	non-food_inanimate_bamboo	0	B	0	0	159	0		0	0	198.078262099996	198.1782504
46388	0.0999855999834836	497	satiated	stimuli/non_foods\non-food_inanimate_speakers.jpg	1	4	1	non-food_inanimate_speakers	0	C	1	0	212	0		0	0	198.228263600031	198.328249200014
46425.5	0.0999860999872908	498	satiated	stimuli/foods\steak.jpg	1	4	1	steak	1	K	7	0	270	0		0	0	198.378275300027	198.478261400014
46463	0.0999941999325529	499	satiated	stimuli/non_foods\non-food_inanimate_cupboard.jpg	1	4	1	non-food_inanimate_cupboard	0	M	9	0	177	0		0	0	198.52826530009	198.628259500023
46500.5	0.0999869999941438	500	satiated	stimuli/non_foods\non-food_inanimate_skateboard.jpg	1	4	1	non-food_inanimate_skateboard	0	L	8	0	208	0		0	0	198.678264999995	198.778251999989
46538	0.0999838000861928	501	satiated	stimuli/foods\cauliflower.jpg	1	4	1	cauliflower	1	G	4	0	20	0		0	0	198.828264200012	198.928248000098
46575.5	0.0999872999964282	502	satiated	stimuli/foods\ice_cream.jpg	1	4	1	ice_cream	1	F	3	0	68	0		0	0	198.978261300013	199.07824860001
46613	0.0999900000169873	503	satiated	stimuli/non_foods\non-food_animate_yellow_bug.jpg	1	4	1	non-food_animate_yellow_bug	0	T	14	0	155	0		0	0	199.128257000004	199.228247000021
46650.5	0.099981699953787	504	satiated	stimuli/non_foods\non-food_inanimate_cap.jpg	1	4	1	non-food_inanimate_cap	0	J	6	0	171	0		0	0	199.278259300045	199.378240999999
46688	0.100003900006413	505	satiated	stimuli/foods\potato_and_green_bean_salad.jpg	1	4	1	potato_and_green_bean_salad	1	R	12	0	246	0		0	0	199.428230400081	199.528234300087
46725.5	0.0999656999483705	506	satiated	stimuli/non_foods\non-food_animate_cat.jpg	1	4	1	non-food_animate_cat	0	W	16	0	98	0		0	0	199.57826910005	199.678234799998
46763	0.100004600011744	507	satiated	stimuli/foods\chocolate_pudding.jpg	1	4	1	chocolate_pudding	1	X	17	0	29	0		0	0	199.72823420004	199.828238800052
46800.5	0.0999837999697775	508	satiated	stimuli/foods\fried_zucchini.jpg	1	4	1	fried_zucchini	1	U	23	1	51	0		0	0	199.878249900066	199.978233700036
46838	0.0999863999895751	509	satiated	stimuli/foods\onion.jpg	1	4	1	onion	1	G	4	0	229	0		0	0	200.028249600087	200.128236000077
46875.5	0.100002699997276	510	satiated	stimuli/foods\raw_sausage.jpg	1	4	1	raw_sausage	1	K	7	0	254	0		0	0	200.178249999997	200.278252699994
46913	0.0999391000950709	511	satiated	stimuli/foods\mango.jpg	1	4	1	mango	1	V	15	0	80	1	a	0.541854999959469	1	200.328278200002	200.428217300097
46950.5	0.0999755000229925	512	satiated	stimuli/non_foods\non-food_animate_elephant.jpg	1	4	1	non-food_animate_elephant	0	R	12	0	111	0		0	0	200.478248300031	200.578223800054
46988	0.0999855999834836	513	satiated	stimuli/non_foods\non-food_inanimate_rope.jpg	1	4	1	non-food_inanimate_rope	0	C	1	0	204	0		0	0	200.628235700075	200.728221300058
47025.5	0.0999868999933824	514	satiated	stimuli/non_foods\non-food_inanimate_tree.jpg	1	4	1	non-food_inanimate_tree	0	F	3	0	223	0		0	0	200.778232600074	200.878219500068
47063	0.0999822999583557	515	satiated	stimuli/foods\lamb_chops.jpg	1	4	1	lamb_chops	1	B	0	0	70	0		0	0	200.928232700098	201.028215000057
47100.5	0.0999949999386445	516	satiated	stimuli/foods\lollies.jpg	1	4	1	lollies	1	L	8	0	78	0		0	0	201.078229700099	201.178224700037
47138	0.100025000050664	517	satiated	stimuli/non_foods\non-food_inanimate_button.jpg	1	4	1	non-food_inanimate_button	0	J	6	0	168	0		0	0	201.228219000041	201.328244000091
47175.5	0.09996359993238	518	satiated	stimuli/foods\oyster.jpg	1	4	1	oyster	1	M	9	0	233	0		0	0	201.378254200099	201.478217800031
47213	0.0999866999918595	519	satiated	stimuli/non_foods\non-food_animate_cheetah.jpg	1	4	1	non-food_animate_cheetah	0	T	14	0	100	0		0	0	201.528233500081	201.628220200073
47250.5	0.0999597000190988	520	satiated	stimuli/non_foods\non-food_inanimate_teddy_bear.jpg	1	4	1	non-food_inanimate_teddy_bear	0	D	2	0	218	0		0	0	201.678230200079	201.778189900098
47288	0.0999780000420287	521	satiated	stimuli/foods\museli_bars.jpg	1	4	1	museli_bars	1	P	11	0	84	0		0	0	201.82821940002	201.928197400062
47325.5	0.100005499902181	522	satiated	stimuli/non_foods\non-food_animate_seahorse.jpg	1	4	1	non-food_animate_seahorse	0	C	1	0	145	0		0	0	201.978211100097	202.078216599999
47363	0.0999646000564098	523	satiated	stimuli/non_foods\non-food_animate_eagle.jpg	1	4	1	non-food_animate_eagle	0	P	11	0	110	0		0	0	202.128242900013	202.228207500069
47400.5	0.0999883000040427	524	satiated	stimuli/foods\ginger_root.jpg	1	4	1	ginger_root	1	C	1	0	57	0		0	0	202.278221999994	202.378210299998
47438	0.0999871999956667	525	satiated	stimuli/foods\hazelnuts.jpg	1	4	1	hazelnuts	1	P	11	0	65	0		0	0	202.428220200003	202.528207399999
47475.5	0.0999871999956667	526	satiated	stimuli/non_foods\non-food_animate_baby_sitting.jpg	1	4	1	non-food_animate_baby_sitting	0	F	3	0	93	0		0	0	202.578217700007	202.678204900003
47513	0.0999841999728233	527	satiated	stimuli/foods\chocolate_chip_cookies.jpg	1	4	1	chocolate_chip_cookies	1	M	9	0	27	0		0	0	202.728220100049	202.828204300022
47550.5	0.0999875999987125	528	satiated	stimuli/non_foods\non-food_animate_penguin.jpg	1	4	1	non-food_animate_penguin	0	G	4	0	135	0		0	0	202.878214000026	202.978201600024
47588	0.100002399994992	529	satiated	stimuli/foods\wafer.jpg	1	4	1	wafer	1	R	12	0	277	0		0	0	203.028214000049	203.128216400044
47625.5	0.099965599947609	530	satiated	stimuli/non_foods\non-food_inanimate_bowling_ball.jpg	1	4	1	non-food_inanimate_bowling_ball	0	M	9	0	162	0		0	0	203.178227200056	203.278192800004
47663	0.0999870999949053	531	satiated	stimuli/foods\kiwi.jpg	1	4	1	kiwi	1	K	7	0	69	0		0	0	203.328203700017	203.428190800012
47700.5	0.100000099977478	532	satiated	stimuli/non_foods\non-food_animate_duck.jpg	1	4	1	non-food_animate_duck	0	T	14	0	109	0		0	0	203.478195900097	203.578196000075
47738	0.0999912000261247	533	satiated	stimuli/non_foods\non-food_inanimate_rack.jpg	1	4	1	non-food_inanimate_rack	0	M	9	0	202	0		0	0	203.628209399991	203.728200600017
47775.5	0.0999670000746846	534	satiated	stimuli/non_foods\non-food_inanimate_waterlily.jpg	1	4	1	non-food_inanimate_waterlily	0	C	1	0	226	0		0	0	203.778226000024	203.878193000099
47813	0.0999857001006603	535	satiated	stimuli/non_foods\non-food_animate_caterpillar.jpg	1	4	1	non-food_animate_caterpillar	0	B	0	0	99	0		0	0	203.928204299998	204.028190000099
47850.5	0.0999855000991374	536	satiated	stimuli/non_foods\non-food_inanimate_skirt.jpg	1	4	1	non-food_inanimate_skirt	0	N	10	0	209	0		0	0	204.078201199998	204.178186700097
47888	0.0999880000017583	537	satiated	stimuli/foods\chestnut.jpg	1	4	1	chestnut	1	X	17	0	24	0		0	0	204.228198900004	204.328186900006
47925.5	0.0999873999971896	538	satiated	stimuli/non_foods\non-food_inanimate_guitar.jpg	1	4	1	non-food_inanimate_guitar	0	P	11	0	185	0		0	0	204.378199100029	204.478186500026
47963	0.0999665999552235	539	satiated	stimuli/non_foods\non-food_animate_swan.jpg	1	4	1	non-food_animate_swan	0	T	14	0	152	0		0	0	204.528198000044	204.628164599999
48000.5	0.100002599996515	540	satiated	stimuli/foods\grapefruits.jpg	1	4	1	grapefruits	1	V	15	0	59	0		0	0	204.678180400049	204.778183000046
48038	0.0999945999355987	541	satiated	stimuli/foods\pumpkin.jpg	1	4	1	pumpkin	1	R	12	0	250	0		0	0	204.82819400006	204.928188599995
48075.5	0.0999895000131801	542	satiated	stimuli/non_foods\non-food_animate_giraffe.jpg	1	4	1	non-food_animate_giraffe	0	S	13	0	115	0		0	0	204.978191300062	205.078180800076
48113	0.0999884000048041	543	satiated	stimuli/foods\roasted_chicken.jpg	1	4	1	roasted_chicken	1	T	14	0	261	0		0	0	205.128191100084	205.228179500089
48150.5	0.0999882000032812	544	satiated	stimuli/non_foods\non-food_inanimate_bed.jpg	1	4	1	non-food_inanimate_bed	0	X	17	0	160	0		0	0	205.278187800082	205.378176000086
48188	0.100001099985093	545	satiated	stimuli/non_foods\non-food_animate_rhino.jpg	1	4	1	non-food_animate_rhino	0	Z	18	0	141	0		0	0	205.4281870001	205.528188100085
48225.5	0.0999407999916002	546	satiated	stimuli/non_foods\non-food_inanimate_watering_can.jpg	1	4	1	non-food_inanimate_watering_can	0	P	11	0	225	0		0	0	205.578227800084	205.678168600076
48263	0.0999848999781534	547	satiated	stimuli/foods\lentils.jpg	1	4	1	lentils	1	F	3	0	74	0		0	0	205.728165100096	205.828150000074
48300.5	0.0999824999598786	548	satiated	stimuli/foods\savory_pie.jpg	1	4	1	savory_pie	1	W	16	0	265	0		0	0	205.878176900093	205.978159400052
48338	0.0999903000192717	549	satiated	stimuli/non_foods\non-food_animate_mammoth.jpg	1	4	1	non-food_animate_mammoth	0	C	1	0	128	0		0	0	206.028167500044	206.128157800063
48375.5	0.0999829999636859	550	satiated	stimuli/non_foods\non-food_inanimate_horn.jpg	1	4	1	non-food_inanimate_horn	0	G	4	0	190	0		0	0	206.178182600066	206.27816560003
48413	0.099977899924852	551	satiated	stimuli/foods\baked_cod_with_carrots_and_green_beans.jpg	1	4	1	baked_cod_with_carrots_and_green_beans	1	J	6	0	7	0		0	0	206.328179500066	206.428157399991
48450.5	0.0999872999964282	552	satiated	stimuli/foods\apple.jpg	1	4	1	apple	1	L	8	0	1	0		0	0	206.478167199995	206.578154499992
48488	0.100005100015551	553	satiated	stimuli/foods\meatballs.jpg	1	4	1	meatballs	1	F	3	0	81	0		0	0	206.628155300044	206.72816040006
48525.5	0.0999898000154644	554	satiated	stimuli/non_foods\non-food_inanimate_moss.jpg	1	4	1	non-food_inanimate_moss	0	C	1	0	194	0		0	0	206.778168800054	206.87815860007
48563	0.0999879000009969	555	satiated	stimuli/foods\pickles.jpg	1	4	1	pickles	1	L	8	0	242	0		0	0	206.92816920008	207.028157100081
48600.5	0.0999854999827221	556	satiated	stimuli/foods\grapes.jpg	1	4	1	grapes	1	N	10	0	60	0		0	0	207.078168200096	207.178153700079
48638	0.100012400071137	557	satiated	stimuli/non_foods\non-food_inanimate_clover.jpg	1	4	1	non-food_inanimate_clover	0	P	11	0	174	0		0	0	207.228166399989	207.32817880006
48675.5	0.0999567999970168	558	satiated	stimuli/non_foods\non-food_animate_baby_crawling.jpg	1	4	1	non-food_animate_baby_crawling	0	J	6	0	92	0		0	0	207.378195199999	207.478151999996
48713	0.099988600006327	559	satiated	stimuli/foods\artichoke.jpg	1	4	1	artichoke	1	F	3	0	3	0		0	0	207.528160899994	207.6281495
51925.5	0.0999597000190988	560	satiated	stimuli/non_foods\non-food_inanimate_short_sleeved_shirt.jpg	1	5	1	non-food_inanimate_short_sleeved_shirt	0	B	0	0	207	0		0	0	220.378044300014	220.478004000033
51963	0.099984799977392	561	satiated	stimuli/foods\lime.jpg	1	5	1	lime	1	H	5	0	76	0		0	0	220.528017700068	220.628002500045
52000.5	0.0999817999545485	562	satiated	stimuli/non_foods\non-food_inanimate_bicycle.jpg	1	5	1	non-food_inanimate_bicycle	0	N	10	0	161	0		0	0	220.678015700076	220.77799750003
52038	0.0999818000709638	563	satiated	stimuli/foods\coconut.jpg	1	5	1	coconut	1	P	11	0	33	0		0	0	220.828017599997	220.927999400068
52075.5	0.0999487000517547	564	satiated	stimuli/foods\coffee_beans.jpg	1	5	1	coffee_beans	1	K	7	0	34	0		0	0	220.978015900007	221.077964600059
52113	0.0999822000740096	565	satiated	stimuli/foods\strawberry.jpg	1	5	1	strawberry	1	Z	18	0	272	0		0	0	221.128013800015	221.227996000089
52150.5	0.100005900021642	566	satiated	stimuli/foods\savory_pie.jpg	1	5	1	savory_pie	1	K	7	0	265	0		0	0	221.278011300019	221.378017200041
52188	0.0999683999689296	567	satiated	stimuli/non_foods\non-food_animate_snail.jpg	1	5	1	non-food_animate_snail	0	B	0	0	149	0		0	0	221.428027400048	221.527995800017
52225.5	0.0999800999416038	568	satiated	stimuli/non_foods\non-food_inanimate_nettle.jpg	1	5	1	non-food_inanimate_nettle	0	X	17	0	197	0		0	0	221.578009500052	221.677989599993
52263	0.0999868999933824	569	satiated	stimuli/foods\toasted_bread_with_tomatoes.jpg	1	5	1	toasted_bread_with_tomatoes	1	S	13	0	275	0		0	0	221.728003400029	221.827990300022
52300.5	0.0999913000268862	570	satiated	stimuli/foods\salami.jpg	1	5	1	salami	1	A	19	1	263	0		0	0	221.878004000057	221.977995300083
52338	0.0999777000397444	571	satiated	stimuli/non_foods\non-food_animate_monkey.jpg	1	5	1	non-food_animate_monkey	0	B	0	0	130	0		0	0	222.028010800015	222.127988500055
52375.5	0.0999927000375465	572	satiated	stimuli/foods\lollies.jpg	1	5	1	lollies	1	H	5	0	78	0		0	0	222.177995900041	222.277988600079
52413	0.0999878000002354	573	satiated	stimuli/non_foods\non-food_animate_ladybug.jpg	1	5	1	non-food_animate_ladybug	0	F	3	0	124	1	a	0.443214899976738	1	222.327994900057	222.427982700057
52450.5	0.100017599994317	574	satiated	stimuli/non_foods\non-food_inanimate_headphones.jpg	1	5	1	non-food_inanimate_headphones	0	C	1	0	188	0		0	0	222.477995900088	222.578013500082
52488	0.0999859999865294	575	satiated	stimuli/foods\pear.jpg	1	5	1	pear	1	D	2	0	239	0		0	0	222.627996700001	222.727982699987
52525.5	0.0999815000686795	576	satiated	stimuli/non_foods\non-food_animate_gorilla.jpg	1	5	1	non-food_animate_gorilla	0	M	9	0	116	0		0	0	222.777994500007	222.877976000076
52563	0.0999934999272227	577	satiated	stimuli/non_foods\non-food_inanimate_protractor.jpg	1	5	1	non-food_inanimate_protractor	0	T	14	0	201	0		0	0	222.927985500079	223.027979000006
52600.5	0.100000799982809	578	satiated	stimuli/foods\potato_and_green_bean_salad.jpg	1	5	1	potato_and_green_bean_salad	1	H	5	0	246	0		0	0	223.077988400008	223.17798919999
52638	0.0999759000260383	579	satiated	stimuli/non_foods\non-food_animate_baby_crawling.jpg	1	5	1	non-food_animate_baby_crawling	0	C	1	0	92	0		0	0	223.227997699985	223.327973600011
52675.5	0.0999719999963418	580	satiated	stimuli/foods\tomato.jpg	1	5	1	tomato	1	W	16	0	276	0		0	0	223.377987000044	223.47795900004
52713	0.0999859999865294	581	satiated	stimuli/foods\nectarine.jpg	1	5	1	nectarine	1	J	6	0	87	0		0	0	223.527986900066	223.627972900053
52750.5	0.100014899973758	582	satiated	stimuli/non_foods\non-food_inanimate_highlighter.jpg	1	5	1	non-food_inanimate_highlighter	0	V	15	0	189	0		0	0	223.677971400088	223.777986300061
52788	0.0999859999865294	583	satiated	stimuli/non_foods\non-food_animate_young_girl.jpg	1	5	1	non-food_animate_young_girl	0	C	1	0	157	0		0	0	223.827980900067	223.927966900053
52825.5	0.0999898000154644	584	satiated	stimuli/non_foods\non-food_animate_polar_bear.jpg	1	5	1	non-food_animate_polar_bear	0	G	4	0	137	0		0	0	223.977967899991	224.077957700007
52863	0.099980500061065	585	satiated	stimuli/foods\kiwi.jpg	1	5	1	kiwi	1	F	3	0	69	0		0	0	224.127970300033	224.227950800094
52900.5	0.100001099985093	586	satiated	stimuli/non_foods\non-food_inanimate_chandelier.jpg	1	5	1	non-food_inanimate_chandelier	0	S	13	0	173	0		0	0	224.277959400089	224.377960500075
52938	0.0999884000048041	587	satiated	stimuli/non_foods\non-food_animate_skunk.jpg	1	5	1	non-food_animate_skunk	0	P	11	0	147	0		0	0	224.427973199985	224.52796159999
52975.5	0.0999835999682546	588	satiated	stimuli/foods\capsicum.jpg	1	5	1	capsicum	1	L	8	0	18	0		0	0	224.577974400017	224.677957999986
53013	0.099985400098376	589	satiated	stimuli/foods\asparagus.jpg	1	5	1	asparagus	1	N	10	0	4	0		0	0	224.7279691	224.827954500099
53050.5	0.0999837999697775	590	satiated	stimuli/non_foods\non-food_animate_dragonfly.jpg	1	5	1	non-food_animate_dragonfly	0	F	3	0	108	0		0	0	224.877969700028	224.977953499998
53088	0.0999843999743462	591	satiated	stimuli/non_foods\non-food_animate_duck.jpg	1	5	1	non-food_animate_duck	0	P	11	0	109	0		0	0	225.027968100039	225.127952500014
53125.5	0.100014499970712	592	satiated	stimuli/foods\apricot.jpg	1	5	1	apricot	1	R	12	0	2	0		0	0	225.177938600071	225.277953100041
53163	0.0999867999926209	593	satiated	stimuli/non_foods\non-food_inanimate_drum_set.jpg	1	5	1	non-food_inanimate_drum_set	0	K	7	0	179	0		0	0	225.327963200049	225.427950000041
53200.5	0.0999957999447361	594	satiated	stimuli/non_foods\non-food_inanimate_horn.jpg	1	5	1	non-food_inanimate_horn	0	R	12	0	190	0		0	0	225.477961800061	225.577957600006
53238	0.0999569999985397	595	satiated	stimuli/foods\chocolate_bar.jpg	1	5	1	chocolate_bar	1	I	21	1	26	0		0	0	225.627999900025	225.727956900024
53275.5	0.0999879000009969	596	satiated	stimuli/non_foods\non-food_animate_seahorse.jpg	1	5	1	non-food_animate_seahorse	0	N	10	0	145	0		0	0	225.777957200073	225.877945100074
53313	0.0999850999796763	597	satiated	stimuli/non_foods\non-food_inanimate_button.jpg	1	5	1	non-food_inanimate_button	0	F	3	0	168	0		0	0	225.927957600099	226.027942700079
53350.5	0.0999873999971896	598	satiated	stimuli/foods\mortadella.jpg	1	5	1	mortadella	1	B	0	0	83	1	a	0.541773400036618	1	226.077953600092	226.177941000089
53388	0.0999857999850065	599	satiated	stimuli/foods\brownie.jpg	1	5	1	brownie	1	P	11	0	14	0		0	0	226.227954100003	226.327939899988
53425.5	0.0999881000025198	600	satiated	stimuli/non_foods\non-food_inanimate_nest.jpg	1	5	1	non-food_inanimate_nest	0	G	4	0	196	0		0	0	226.377949899994	226.477937999996
53463	0.099987699999474	601	satiated	stimuli/foods\pepperoni_pizza.jpg	1	5	1	pepperoni_pizza	1	H	5	0	241	0		0	0	226.527950200019	226.627937900019
53500.5	0.0999843999743462	602	satiated	stimuli/non_foods\non-food_inanimate_bamboo.jpg	1	5	1	non-food_inanimate_bamboo	0	L	8	0	159	0		0	0	226.677948900033	226.777933300007
53538	0.0999890000093728	603	satiated	stimuli/foods\mango.jpg	1	5	1	mango	1	T	14	0	80	0		0	0	226.827945000026	226.927934000036
53575.5	0.0999815999530256	604	satiated	stimuli/non_foods\non-food_animate_owl.jpg	1	5	1	non-food_animate_owl	0	L	8	0	132	0		0	0	226.97794510005	227.077926700003
53613	0.099985699984245	605	satiated	stimuli/non_foods\non-food_animate_horse.jpg	1	5	1	non-food_animate_horse	0	C	1	0	119	0		0	0	227.12794070004	227.227926400024
53650.5	0.100023899925873	606	satiated	stimuli/foods\red_cabbage.jpg	1	5	1	red_cabbage	1	M	9	0	256	0		0	0	227.27794420009	227.377968100016
53688	0.0999530999688432	607	satiated	stimuli/foods\figs.jpg	1	5	1	figs	1	P	11	0	48	0		0	0	227.427969700075	227.527922800044
53725.5	0.0999873999971896	608	satiated	stimuli/non_foods\non-food_inanimate_buds.jpg	1	5	1	non-food_inanimate_buds	0	L	8	0	166	0		0	0	227.577936500078	227.677923900075
53763	0.0999881000025198	609	satiated	stimuli/non_foods\non-food_animate_cheetah.jpg	1	5	1	non-food_animate_cheetah	0	V	15	0	100	0		0	0	227.727935300092	227.827923400095
53800.5	0.0999879000009969	610	satiated	stimuli/foods\cabbage.jpg	1	5	1	cabbage	1	M	9	0	16	0		0	0	227.877931700088	227.977919600089
53838	0.0999847000930458	611	satiated	stimuli/foods\peas.jpg	1	5	1	peas	1	Z	18	0	240	0		0	0	228.027933200006	228.127917900099
53875.5	0.0999893000116572	612	satiated	stimuli/foods\onion.jpg	1	5	1	onion	1	S	13	0	229	0		0	0	228.177930000005	228.277919300017
53913	0.0999880000017583	613	satiated	stimuli/non_foods\non-food_animate_baby_sitting.jpg	1	5	1	non-food_animate_baby_sitting	0	N	10	0	93	0		0	0	228.327927800012	228.427915800014
53950.5	0.0999644999392331	614	satiated	stimuli/foods\pork_and_rice.jpg	1	5	1	pork_and_rice	1	T	14	0	245	0		0	0	228.477948500076	228.577913000016
53988	0.0999867999926209	615	satiated	stimuli/non_foods\non-food_animate_ant.jpg	1	5	1	non-food_animate_ant	0	R	12	0	91	0		0	0	228.627921700012	228.727908500005
54025.5	0.0999833999667317	616	satiated	stimuli/non_foods\non-food_animate_cat.jpg	1	5	1	non-food_animate_cat	0	D	2	0	98	0		0	0	228.777925500064	228.877908900031
54063	0.099985699984245	617	satiated	stimuli/non_foods\non-food_inanimate_sun_flower.jpg	1	5	1	non-food_inanimate_sun_flower	0	S	13	0	216	0		0	0	228.927923000068	229.027908700053
54100.5	0.0999972999561578	618	satiated	stimuli/non_foods\non-food_animate_sea_turtle.jpg	1	5	1	non-food_animate_sea_turtle	0	U	23	1	144	0		0	0	229.07791880006	229.177916100016
54138	0.0999346000608057	619	satiated	stimuli/non_foods\non-food_animate_chicken.jpg	1	5	1	non-food_animate_chicken	0	F	3	0	101	0		0	0	229.227971200016	229.327905800077
54175.5	0.099981400067918	620	satiated	stimuli/non_foods\non-food_animate_yellow_bug.jpg	1	5	1	non-food_animate_yellow_bug	0	K	7	0	155	0		0	0	229.377918999991	229.477900400059
54213	0.0999870001105592	621	satiated	stimuli/foods\raisins.jpg	1	5	1	raisins	1	D	2	0	252	0		0	0	229.527914999984	229.627902000095
54250.5	0.0999862001044676	622	satiated	stimuli/non_foods\non-food_inanimate_canoe.jpg	1	5	1	non-food_inanimate_canoe	0	N	10	0	170	1	a	0.691814200021327	1	229.677912599989	229.777898800094
54288	0.0999849999789149	623	satiated	stimuli/foods\pea_pod.jpg	1	5	1	pea_pod	1	V	15	0	237	0		0	0	229.827912900015	229.927897899994
54325.5	0.0999837999697775	624	satiated	stimuli/foods\cherry.jpg	1	5	1	cherry	1	L	8	0	23	0		0	0	229.97791310004	230.077896900009
54363	0.0999835999682546	625	satiated	stimuli/non_foods\non-food_inanimate_fern.jpg	1	5	1	non-food_inanimate_fern	0	M	9	0	180	0		0	0	230.127907800023	230.227891399991
54400.5	0.0999726000009105	626	satiated	stimuli/non_foods\non-food_inanimate_bucket.jpg	1	5	1	non-food_inanimate_bucket	0	D	2	0	165	0		0	0	230.277920700028	230.377893300029
54438	0.0999820999568328	627	satiated	stimuli/non_foods\non-food_animate_kangaroo.jpg	1	5	1	non-food_animate_kangaroo	0	C	1	0	122	0		0	0	230.427908400074	230.52789050003
54475.5	0.099986599991098	628	satiated	stimuli/non_foods\non-food_inanimate_socks.jpg	1	5	1	non-food_inanimate_socks	0	H	5	0	211	0		0	0	230.577901900047	230.677888500039
54513	0.099985699984245	629	satiated	stimuli/non_foods\non-food_inanimate_jeans.jpg	1	5	1	non-food_inanimate_jeans	0	K	7	0	191	0		0	0	230.727903200081	230.827888900065
54550.5	0.100001299986616	630	satiated	stimuli/foods\croissant.jpg	1	5	1	croissant	1	F	3	0	40	0		0	0	230.877905600006	230.977906899992
54588	0.0999709999887273	631	satiated	stimuli/non_foods\non-food_inanimate_broom.jpg	1	5	1	non-food_inanimate_broom	0	L	8	0	164	0		0	0	231.027911900077	231.127882900066
54625.5	0.099986300105229	632	satiated	stimuli/non_foods\non-food_animate_caterpillar.jpg	1	5	1	non-food_animate_caterpillar	0	K	7	0	99	0		0	0	231.17789739999	231.277883700095
54663	0.0999868001090363	633	satiated	stimuli/non_foods\non-food_inanimate_gloves.jpg	1	5	1	non-food_inanimate_gloves	0	L	8	0	183	0		0	0	231.327893699985	231.427880500094
54700.5	0.0999903000192717	634	satiated	stimuli/foods\pickles.jpg	1	5	1	pickles	1	P	11	0	242	0		0	0	231.477890699985	231.577881000005
54738	0.0999844999751076	635	satiated	stimuli/non_foods\non-food_inanimate_couch.jpg	1	5	1	non-food_inanimate_couch	0	M	9	0	176	0		0	0	231.627892900025	231.727877400001
54775.5	0.0999917999142781	636	satiated	stimuli/non_foods\non-food_animate_mammoth.jpg	1	5	1	non-food_animate_mammoth	0	B	0	0	128	0		0	0	231.777883600094	231.877875400009
54813	0.0999837999697775	637	satiated	stimuli/non_foods\non-food_inanimate_skateboard.jpg	1	5	1	non-food_inanimate_skateboard	0	T	14	0	208	0		0	0	231.927890100051	232.02787390002
54850.5	0.0999574000015855	638	satiated	stimuli/non_foods\non-food_animate_parrot.jpg	1	5	1	non-food_animate_parrot	0	K	7	0	133	0		0	0	232.077897800016	232.177855200018
