onset	duration	eventnumber	hunger_condition	stimfilename	blockno	trialno	is_faststream	stim	food_idx	letter	letter_idx	istarget	image_number	response	keypressed	rt	correct	time_stimon	time_stimoff
15808.25	0.0999757000245154	0	satiated	stimuli/foods\cauliflower.jpg	1	1	1	cauliflower	1	S	13	0	20	0		0	0	96.4741301999893	96.5741059000138
15845.75	0.100044100079685	1	satiated	stimuli/foods\cooked_prawn.jpg	1	1	1	cooked_prawn	1	G	4	0	36	0		0	0	96.6241176999174	96.7241617999971
15883.25	0.0999799000564963	2	satiated	stimuli/non_foods\non-food_inanimate_padlock.jpg	1	1	1	non-food_inanimate_padlock	0	S	13	0	199	0		0	0	96.7741245999932	96.8741045000497
15920.75	0.0999825000762939	3	satiated	stimuli/non_foods\non-food_animate_pigeon.jpg	1	1	1	non-food_animate_pigeon	0	C	1	0	136	0		0	0	96.9241168999579	97.0240994000342
15958.25	0.0999793000519276	4	satiated	stimuli/foods\lemon.jpg	1	1	1	lemon	1	K	7	0	72	0		0	0	97.0741204000078	97.1740997000597
15995.75	0.0999867999926209	5	satiated	stimuli/non_foods\non-food_inanimate_nest.jpg	1	1	1	non-food_inanimate_nest	0	N	10	0	196	0		0	0	97.2241117998492	97.3240985998418
16033.25	0.0999976999592036	6	satiated	stimuli/non_foods\non-food_inanimate_guitar.jpg	1	1	1	non-food_inanimate_guitar	0	W	16	0	185	0		0	0	97.3741131999996	97.4741108999588
16070.75	0.0999732001218945	7	satiated	stimuli/foods\potatoes.jpg	1	1	1	potatoes	1	K	7	0	248	0		0	0	97.5241151999217	97.6240884000435
16108.25	0.0999894000124186	8	satiated	stimuli/non_foods\non-food_animate_cow.jpg	1	1	1	non-food_animate_cow	0	J	6	0	103	0		0	0	97.6741086998954	97.7740980999079
16145.75	0.0999744997825474	9	satiated	stimuli/foods\mango.jpg	1	1	1	mango	1	V	15	0	80	0		0	0	97.824112100061	97.9240865998436
16183.25	0.0999912999104708	10	satiated	stimuli/foods\fruit_salad.jpg	1	1	1	fruit_salad	1	L	8	0	55	0		0	0	97.9741048000287	98.0740960999392
16220.75	0.0999797000549734	11	satiated	stimuli/foods\croissant.jpg	1	1	1	croissant	1	B	0	0	40	0		0	0	98.1241138998885	98.2240935999434
16258.25	0.0999861999880522	12	satiated	stimuli/foods\potato_and_green_bean_salad.jpg	1	1	1	potato_and_green_bean_salad	1	F	3	0	246	0		0	0	98.2741016999353	98.3740878999233
16296	0.0997144998982549	13	satiated	stimuli/non_foods\non-food_animate_gorilla.jpg	1	1	1	non-food_animate_gorilla	0	P	11	0	116	0		0	0	98.424383000005	98.5240974999033
16333.25	0.100019000004977	14	satiated	stimuli/foods\pepperoni_pizza.jpg	1	1	1	pepperoni_pizza	1	H	5	0	241	0		0	0	98.5740670000669	98.6740860000718
16370.75	0.0999888998921961	15	satiated	stimuli/non_foods\non-food_animate_bat.jpg	1	1	1	non-food_animate_bat	0	P	11	0	94	0		0	0	98.72409839998	98.8240872998722
16408.25	0.0999845999758691	16	satiated	stimuli/non_foods\non-food_inanimate_nailpolish.jpg	1	1	1	non-food_inanimate_nailpolish	0	T	14	0	195	0		0	0	98.8740983998869	98.9740829998627
16445.75	0.0999857999850065	17	satiated	stimuli/non_foods\non-food_animate_duck.jpg	1	1	1	non-food_animate_duck	0	C	1	0	109	0		0	0	99.0240952000022	99.1240809999872
16483.25	0.0999878000002354	18	satiated	stimuli/non_foods\non-food_animate_peacock.jpg	1	1	1	non-food_animate_peacock	0	F	3	0	134	0		0	0	99.1740943000186	99.2740821000189
16520.75	0.0999819999560714	19	satiated	stimuli/non_foods\non-food_inanimate_fire_extinguisher.jpg	1	1	1	non-food_inanimate_fire_extinguisher	0	P	11	0	181	0		0	0	99.324094499927	99.4240764998831
16558.25	0.0999950000550598	20	satiated	stimuli/foods\green_olives.jpg	1	1	1	green_olives	1	Z	18	0	62	0		0	0	99.4740826999769	99.5740777000319
16595.75	0.0999544998630881	21	satiated	stimuli/non_foods\non-food_inanimate_chandelier.jpg	1	1	1	non-food_inanimate_chandelier	0	X	17	0	173	0		0	0	99.6241142000072	99.7240686998703
16633.25	0.0999918000306934	22	satiated	stimuli/non_foods\non-food_animate_polar_bear.jpg	1	1	1	non-food_animate_polar_bear	0	S	13	0	137	0		0	0	99.7740797998849	99.8740715999156
16670.75	0.0999914999119937	23	satiated	stimuli/foods\pickles.jpg	1	1	1	pickles	1	G	4	0	242	0		0	0	99.9240846000612	100.024076099973
16708.25	0.0999838998541236	24	satiated	stimuli/non_foods\non-food_inanimate_ring.jpg	1	1	1	non-food_inanimate_ring	0	S	13	0	203	0		0	0	100.074075700017	100.174059599871
16745.75	0.0999849999789149	25	satiated	stimuli/non_foods\non-food_inanimate_towel.jpg	1	1	1	non-food_inanimate_towel	0	V	15	0	221	0		0	0	100.224078200059	100.324063200038
16783.25	0.0999806998297572	26	satiated	stimuli/foods\salmon.jpg	1	1	1	salmon	1	X	17	0	264	0		0	0	100.374074700056	100.474055399885
16820.75	0.0999791000504047	27	satiated	stimuli/foods\rockmelon.jpg	1	1	1	rockmelon	1	Z	18	0	262	0		0	0	100.524074199842	100.624053299893
16858.25	0.0999859001021832	28	satiated	stimuli/non_foods\non-food_animate_rhino.jpg	1	1	1	non-food_animate_rhino	0	V	15	0	141	0		0	0	100.674078899901	100.774064800004
16895.75	0.0999867999926209	29	satiated	stimuli/non_foods\non-food_inanimate_headphones.jpg	1	1	1	non-food_inanimate_headphones	0	N	10	0	188	0		0	0	100.824075700017	100.924062500009
16933.25	0.0999892000108957	30	satiated	stimuli/non_foods\non-food_inanimate_alarm_clock.jpg	1	1	1	non-food_inanimate_alarm_clock	0	K	7	0	158	0		0	0	100.974074600032	101.074063800042
16970.75	0.0999892000108957	31	satiated	stimuli/foods\grapes.jpg	1	1	1	grapes	1	X	17	0	60	0		0	0	101.124072500039	101.22406170005
17008.25	0.0999845999758691	32	satiated	stimuli/foods\swordfish.jpg	1	1	1	swordfish	1	J	6	0	273	0		0	0	101.274071800057	101.374056400033
17045.75	0.0999730001203716	33	satiated	stimuli/foods\apricot.jpg	1	1	1	apricot	1	L	8	0	2	0		0	0	101.424074699869	101.52404769999
17083.25	0.0999745998997241	34	satiated	stimuli/foods\pancakes.jpg	1	1	1	pancakes	1	Z	18	0	234	0		0	0	101.57407089998	101.67404549988
17120.75	0.09998709987849	35	satiated	stimuli/non_foods\non-food_animate_yellow_bug.jpg	1	1	1	non-food_animate_yellow_bug	0	L	8	0	155	0		0	0	101.724066599971	101.824053699849
17158.25	0.0999912000261247	36	satiated	stimuli/non_foods\non-food_animate_ram.jpg	1	1	1	non-food_animate_ram	0	D	2	0	140	0		0	0	101.874067399884	101.97405859991
17195.75	0.0999836998526007	37	satiated	stimuli/foods\banana.jpg	1	1	1	banana	1	N	10	0	9	0		0	0	102.024063799996	102.124047499849
17233.25	0.0999882000032812	38	satiated	stimuli/non_foods\non-food_animate_Asian_man.jpg	1	1	1	non-food_animate_Asian_man	0	X	17	0	88	0		0	0	102.174062199891	102.274050399894
17270.75	0.0999916999135166	39	satiated	stimuli/foods\raw_sausage.jpg	1	1	1	raw_sausage	1	N	10	0	254	0		0	0	102.324061600026	102.424053299939
17308.25	0.0999869001097977	40	satiated	stimuli/foods\baked_cod_with_carrots_and_green_beans.jpg	1	1	1	baked_cod_with_carrots_and_green_beans	1	M	9	0	7	0		0	0	102.474058399908	102.574045300018
17345.75	0.0999855999834836	41	satiated	stimuli/non_foods\non-food_animate_grasshopper.jpg	1	1	1	non-food_animate_grasshopper	0	T	14	0	117	0		0	0	102.624058200046	102.72404380003
17383.25	0.0999700000975281	42	satiated	stimuli/non_foods\non-food_animate_dragonfly.jpg	1	1	1	non-food_animate_dragonfly	0	L	8	0	108	0		0	0	102.774070099927	102.874040100025
17420.75	0.099986300105229	43	satiated	stimuli/foods\meatballs.jpg	1	1	1	meatballs	1	T	14	0	81	0		0	0	102.924052899936	103.024039200041
17458.25	0.0999827000778168	44	satiated	stimuli/foods\green_beans.jpg	1	1	1	green_beans	1	J	6	0	61	0		0	0	103.074055799982	103.174038500059
17495.75	0.0999867999926209	45	satiated	stimuli/foods\clams.jpg	1	1	1	clams	1	C	1	0	32	0		0	0	103.224048499949	103.324035299942
17533.25	0.0999751999042928	46	satiated	stimuli/non_foods\non-food_inanimate_clover.jpg	1	1	1	non-food_inanimate_clover	0	N	10	0	174	0		0	0	103.374064499978	103.474039699882
17570.75	0.0999884998891503	47	satiated	stimuli/foods\fried_zucchini.jpg	1	1	1	fried_zucchini	1	J	6	0	51	0		0	0	103.524048099993	103.624036599882
17608.25	0.0999896998982877	48	satiated	stimuli/non_foods\non-food_inanimate_teddy_bear.jpg	1	1	1	non-food_inanimate_teddy_bear	0	V	15	0	218	0		0	0	103.674046200002	103.7740358999
17645.75	0.0999852998647839	49	satiated	stimuli/non_foods\non-food_inanimate_rope.jpg	1	1	1	non-food_inanimate_rope	0	B	0	0	204	0		0	0	103.824047500035	103.9240327999
17683.25	0.100012099836022	50	satiated	stimuli/non_foods\non-food_animate_butterfly.jpg	1	1	1	non-food_animate_butterfly	0	C	1	0	96	0		0	0	103.974030300044	104.07404239988
17720.75	0.0999650999438018	51	satiated	stimuli/foods\red_cabbage.jpg	1	1	1	red_cabbage	1	L	8	0	256	0		0	0	104.12406349997	104.224028599914
17758.25	0.0999849999789149	52	satiated	stimuli/non_foods\non-food_animate_horse.jpg	1	1	1	non-food_animate_horse	0	C	1	0	119	0		0	0	104.274040400051	104.374025400029
17795.75	0.0999865001067519	53	satiated	stimuli/foods\steak.jpg	1	1	1	steak	1	X	17	0	270	0		0	0	104.424040899845	104.524027399952
17833.25	0.0999881001189351	54	satiated	stimuli/non_foods\non-food_inanimate_broom.jpg	1	1	1	non-food_inanimate_broom	0	K	7	0	164	0		0	0	104.574040599866	104.674028699985
17870.75	0.100011699832976	55	satiated	stimuli/foods\hotdog.jpg	1	1	1	hotdog	1	Z	18	0	67	0		0	0	104.72401060001	104.824022299843
17908.25	0.0999843999743462	56	satiated	stimuli/non_foods\non-food_animate_camel.jpg	1	1	1	non-food_animate_camel	0	N	10	0	97	0		0	0	104.874037199887	104.974021599861
17945.75	0.100009599933401	57	satiated	stimuli/non_foods\non-food_inanimate_cupboard.jpg	1	1	1	non-food_inanimate_cupboard	0	T	14	0	177	0		0	0	105.024030799977	105.124040399911
17983.25	0.0999749000184238	58	satiated	stimuli/non_foods\non-food_animate_tortoise.jpg	1	1	1	non-food_animate_tortoise	0	M	9	0	153	0		0	0	105.174043199979	105.274018099997
18020.75	0.0999857999850065	59	satiated	stimuli/foods\stew_with_potatoes_and_carrots.jpg	1	1	1	stew_with_potatoes_and_carrots	1	D	2	0	271	0		0	0	105.324030899908	105.424016699893
18058.25	0.0999849999789149	60	satiated	stimuli/non_foods\non-food_animate_Causasian_man.jpg	1	1	1	non-food_animate_Causasian_man	0	W	16	0	89	0		0	0	105.474029500037	105.574014500016
18095.75	0.099990300135687	61	satiated	stimuli/foods\blackberry.jpg	1	1	1	blackberry	1	H	5	0	11	0		0	0	105.624027499929	105.724017800065
18133.25	0.0999497000593692	62	satiated	stimuli/foods\cereal.jpg	1	1	1	cereal	1	S	13	0	22	0		0	0	105.774058799958	105.874008500017
18170.75	0.099972500000149	63	satiated	stimuli/foods\chocolate_bar.jpg	1	1	1	chocolate_bar	1	I	21	1	26	0		0	0	105.924036100041	106.024008600041
18208.25	0.0999857999850065	64	satiated	stimuli/non_foods\non-food_inanimate_drum_set.jpg	1	1	1	non-food_inanimate_drum_set	0	B	0	0	179	0		0	0	106.074021599954	106.174007399939
18245.75	0.0999877001158893	65	satiated	stimuli/non_foods\non-food_animate_deer.jpg	1	1	1	non-food_animate_deer	0	L	8	0	105	0		0	0	106.224017499946	106.324005200062
18283.25	0.0999895001295954	66	satiated	stimuli/non_foods\non-food_inanimate_leaf.jpg	1	1	1	non-food_inanimate_leaf	0	K	7	0	192	0		0	0	106.37401709985	106.474006599979
18320.75	0.0999809999484569	67	satiated	stimuli/non_foods\non-food_inanimate_skateboard.jpg	1	1	1	non-food_inanimate_skateboard	0	B	0	0	208	0		0	0	106.524019300006	106.624000299955
18358.25	0.0999871999956667	68	satiated	stimuli/non_foods\non-food_inanimate_suitcase.jpg	1	1	1	non-food_inanimate_suitcase	0	D	2	0	215	0		0	0	106.674014099874	106.774001299869
18395.75	0.0999852998647839	69	satiated	stimuli/non_foods\non-food_animate_eagle.jpg	1	1	1	non-food_animate_eagle	0	R	12	0	110	0		0	0	106.824014100013	106.923999399878
18433.25	0.099986599991098	70	satiated	stimuli/non_foods\non-food_inanimate_sun_flower.jpg	1	1	1	non-food_inanimate_sun_flower	0	B	0	0	216	0		0	0	106.974013800034	107.074000400025
18470.75	0.099986300105229	71	satiated	stimuli/foods\potato_chips.jpg	1	1	1	potato_chips	1	R	12	0	247	0		0	0	107.124010199914	107.223996500019
18508.25	0.0999839000869542	72	satiated	stimuli/foods\savory_pie.jpg	1	1	1	savory_pie	1	T	14	0	265	0		0	0	107.274010499939	107.373994400026
18545.75	0.0999871001113206	73	satiated	stimuli/foods\almonds.jpg	1	1	1	almonds	1	Z	18	0	0	0		0	0	107.424005999928	107.52399310004
18583.25	0.0999434001278132	74	satiated	stimuli/foods\peach.jpg	1	1	1	peach	1	L	8	0	238	0		0	0	107.574050199939	107.673993600067
18620.75	0.0999863999895751	75	satiated	stimuli/foods\smoked_ham.jpg	1	1	1	smoked_ham	1	P	11	0	266	0		0	0	107.72400539997	107.82399179996
18658.25	0.09998430009	76	satiated	stimuli/non_foods\non-food_inanimate_protractor.jpg	1	1	1	non-food_inanimate_protractor	0	Z	18	0	201	0		0	0	107.874002099968	107.973986400058
18695.75	0.0999841999728233	77	satiated	stimuli/non_foods\non-food_inanimate_bush.jpg	1	1	1	non-food_inanimate_bush	0	L	8	0	167	0		0	0	108.0240032	108.123987399973
18733.25	0.0999863999895751	78	satiated	stimuli/foods\cherry.jpg	1	1	1	cherry	1	S	13	0	23	0		0	0	108.173998099985	108.273984499974
18770.75	0.0999855999834836	79	satiated	stimuli/non_foods\non-food_inanimate_moss.jpg	1	1	1	non-food_inanimate_moss	0	M	9	0	194	0		0	0	108.323997800006	108.423983399989
18808.25	0.099986599991098	80	satiated	stimuli/non_foods\non-food_inanimate_horn.jpg	1	1	1	non-food_inanimate_horn	0	X	17	0	190	0		0	0	108.473997300025	108.573983900016
18845.75	0.0999843999743462	81	satiated	stimuli/non_foods\non-food_animate_cat.jpg	1	1	1	non-food_animate_cat	0	G	4	0	98	0		0	0	108.623995200032	108.723979600007
18883.25	0.0999912000261247	82	satiated	stimuli/non_foods\non-food_inanimate_jeans.jpg	1	1	1	non-food_inanimate_jeans	0	K	7	0	191	0		0	0	108.773992199916	108.873983399943
18920.75	0.0999866998754442	83	satiated	stimuli/non_foods\non-food_inanimate_tent.jpg	1	1	1	non-food_inanimate_tent	0	M	9	0	219	0		0	0	108.923992800061	109.023979499936
18958.25	0.0999891001265496	84	satiated	stimuli/non_foods\non-food_inanimate_grass.jpg	1	1	1	non-food_inanimate_grass	0	L	8	0	184	0		0	0	109.073987199925	109.173976300051
18995.75	0.0999849999789149	85	satiated	stimuli/foods\roasted_chicken.jpg	1	1	1	roasted_chicken	1	S	13	0	261	0		0	0	109.223988400074	109.323973400053
19033.25	0.09994459990412	86	satiated	stimuli/foods\celery.jpg	1	1	1	celery	1	Z	18	0	21	0		0	0	109.374027800048	109.473972399952
19070.75	0.0999876998830587	87	satiated	stimuli/foods\broccoli.jpg	1	1	1	broccoli	1	N	10	0	13	0		0	0	109.523984299973	109.623971999856
19108.25	0.0999539999756962	88	satiated	stimuli/foods\red_beans.jpg	1	1	1	red_beans	1	D	2	0	255	0		0	0	109.673987800023	109.773941799998
19145.75	0.0999859999865294	89	satiated	stimuli/foods\chocolate_pralines.jpg	1	1	1	chocolate_pralines	1	J	6	0	28	0		0	0	109.823981299996	109.923967299983
19183.25	0.0999849999789149	90	satiated	stimuli/non_foods\non-food_animate_baby_sitting.jpg	1	1	1	non-food_animate_baby_sitting	0	S	13	0	93	0		0	0	109.973983299918	110.073968299897
19220.75	0.09998709987849	91	satiated	stimuli/foods\coffee_beans.jpg	1	1	1	coffee_beans	1	H	5	0	34	0		0	0	110.123977300012	110.223964399891
19258.25	0.0999871999956667	92	satiated	stimuli/non_foods\non-food_inanimate_cap.jpg	1	1	1	non-food_inanimate_cap	0	J	6	0	171	0		0	0	110.273975299904	110.3739624999
19295.75	0.099960400024429	93	satiated	stimuli/non_foods\non-food_inanimate_fern.jpg	1	1	1	non-food_inanimate_fern	0	C	1	0	180	0		0	0	110.423999799881	110.523960199906
19333.25	0.0999898998998106	94	satiated	stimuli/non_foods\non-food_inanimate_toy_airplane.jpg	1	1	1	non-food_inanimate_toy_airplane	0	D	2	0	222	0		0	0	110.573973200051	110.673963099951
19370.75	0.0999853000976145	95	satiated	stimuli/non_foods\non-food_inanimate_short_sleeved_shirt.jpg	1	1	1	non-food_inanimate_short_sleeved_shirt	0	P	11	0	207	0		0	0	110.723976299865	110.823961599963
19408.25	0.0999942999333143	96	satiated	stimuli/non_foods\non-food_animate_donkey.jpg	1	1	1	non-food_animate_donkey	0	S	13	0	107	0		0	0	110.87396820006	110.973962499993
19445.75	0.10000850004144	97	satiated	stimuli/non_foods\non-food_inanimate_socks.jpg	1	1	1	non-food_inanimate_socks	0	W	16	0	211	0		0	0	111.023968999973	111.123977500014
19483.25	0.0999897001311183	98	satiated	stimuli/foods\cupcake.jpg	1	1	1	cupcake	1	F	3	0	42	0		0	0	111.173967999872	111.273957700003
19520.75	0.0999827000778168	99	satiated	stimuli/non_foods\non-food_inanimate_stoplight.jpg	1	1	1	non-food_inanimate_stoplight	0	W	16	0	214	0		0	0	111.323968499899	111.423951199977
19558.25	0.0999705998692662	100	satiated	stimuli/foods\avocado.jpg	1	1	1	avocado	1	J	6	0	5	0		0	0	111.473964300007	111.573934899876
19595.75	0.0999839999713004	101	satiated	stimuli/foods\strawberry.jpg	1	1	1	strawberry	1	L	8	0	272	0		0	0	111.623960199999	111.72394419997
19633.25	0.0999813000671566	102	satiated	stimuli/foods\spinach.jpg	1	1	1	spinach	1	I	21	1	268	0		0	0	111.773956699995	111.873938000062
19670.75	0.0999394000973552	103	satiated	stimuli/non_foods\non-food_animate_german_shepherd.jpg	1	1	1	non-food_animate_german_shepherd	0	W	16	0	114	0		0	0	111.923985499889	112.023924899986
19708.25	0.0999845999758691	104	satiated	stimuli/non_foods\non-food_animate_monkey.jpg	1	1	1	non-food_animate_monkey	0	B	0	0	130	0		0	0	112.073959399946	112.173943999922
19745.75	0.099976799916476	105	satiated	stimuli/foods\baked_lamb_with_potatoes.jpg	1	1	1	baked_lamb_with_potatoes	1	Z	18	0	8	0		0	0	112.22396870004	112.323945499957
19783.25	0.099986599991098	106	satiated	stimuli/foods\hamburger.jpg	1	1	1	hamburger	1	J	6	0	64	0		0	0	112.373957999982	112.473944599973
19820.75	0.0999855999834836	107	satiated	stimuli/non_foods\non-food_inanimate_tulip.jpg	1	1	1	non-food_inanimate_tulip	0	B	0	0	224	0		0	0	112.523953999858	112.623939599842
19858.25	0.0999912000261247	108	satiated	stimuli/non_foods\non-food_animate_sea_lion.jpg	1	1	1	non-food_animate_sea_lion	0	F	3	0	143	0		0	0	112.673952399986	112.773943600012
19895.75	0.0999892998952419	109	satiated	stimuli/non_foods\non-food_animate_lion.jpg	1	1	1	non-food_animate_lion	0	R	12	0	125	1	a	1.14183339988813	1	112.823966800002	112.923956099898
19933.25	0.0999651998281479	110	satiated	stimuli/non_foods\non-food_inanimate_couch.jpg	1	1	1	non-food_inanimate_couch	0	Z	18	0	176	0		0	0	112.973971100058	113.073936299887
19970.75	0.0999851000960916	111	satiated	stimuli/foods\mortadella.jpg	1	1	1	mortadella	1	D	2	0	83	0		0	0	113.123949399916	113.223934500013
20008.25	0.0999875999987125	112	satiated	stimuli/foods\oregano.jpg	1	1	1	oregano	1	X	17	0	231	0		0	0	113.273945000023	113.373932600021
20045.75	0.0999871999956667	113	satiated	stimuli/non_foods\non-food_animate_runner.jpg	1	1	1	non-food_animate_runner	0	G	4	0	142	0		0	0	113.42394639994	113.523933599936
20083.25	0.0999859999865294	114	satiated	stimuli/foods\egg.jpg	1	1	1	egg	1	W	16	0	45	0		0	0	113.573944499949	113.673930499936
20120.75	0.0999856998678297	115	satiated	stimuli/foods\brussel_sprouts.jpg	1	1	1	brussel_sprouts	1	G	4	0	15	0		0	0	113.723940900061	113.823926599929
20158.25	0.0999891001265496	116	satiated	stimuli/foods\fried_calamari.jpg	1	1	1	fried_calamari	1	D	2	0	50	0		0	0	113.873939799843	113.97392889997
20195.75	0.0999748001340777	117	satiated	stimuli/non_foods\non-food_animate_young_boy.jpg	1	1	1	non-food_animate_young_boy	0	S	13	0	156	0		0	0	114.023949099937	114.123923900072
20233.25	0.0999974000733346	118	satiated	stimuli/non_foods\non-food_animate_ant.jpg	1	1	1	non-food_animate_ant	0	P	11	0	91	0		0	0	114.173938299995	114.273935700068
20270.75	0.0999608000274748	119	satiated	stimuli/foods\beetroots.jpg	1	1	1	beetroots	1	M	9	0	10	0		0	0	114.323940000031	114.423900800059
20308.25	0.0999749000184238	120	satiated	stimuli/foods\spaghetti_with_meat_sauce.jpg	1	1	1	spaghetti_with_meat_sauce	1	P	11	0	267	0		0	0	114.473933500005	114.573908400023
20345.75	0.100009199930355	121	satiated	stimuli/foods\peas.jpg	1	1	1	peas	1	D	2	0	240	0		0	0	114.623967600055	114.723976799985
20383.25	0.0999740001279861	122	satiated	stimuli/non_foods\non-food_inanimate_table.jpg	1	1	1	non-food_inanimate_table	0	B	0	0	217	0		0	0	114.773941299878	114.873915300006
20420.75	0.0999893001280725	123	satiated	stimuli/foods\cinnamon_sroll.jpg	1	1	1	cinnamon_sroll	1	S	13	0	31	0		0	0	114.923928099917	115.023917400045
20458.25	0.0999611001461744	124	satiated	stimuli/foods\chilli.jpg	1	1	1	chilli	1	L	8	0	25	0		0	0	115.07393409987	115.173895200016
20495.75	0.09998709987849	125	satiated	stimuli/non_foods\non-food_inanimate_gloves.jpg	1	1	1	non-food_inanimate_gloves	0	T	14	0	183	0		0	0	115.22392540006	115.323912499938
20533.25	0.0999906999059021	126	satiated	stimuli/foods\lime.jpg	1	1	1	lime	1	H	5	0	76	0		0	0	115.373923100065	115.473913799971
20570.75	0.0999851999804378	127	satiated	stimuli/non_foods\non-food_animate_frog.jpg	1	1	1	non-food_animate_frog	0	C	1	0	113	0		0	0	115.523924599867	115.623909799848
20608.25	0.0999910000246018	128	satiated	stimuli/foods\chocolate_pudding.jpg	1	1	1	chocolate_pudding	1	M	9	0	29	0		0	0	115.673919099849	115.773910099873
20645.75	0.0999763000290841	129	satiated	stimuli/non_foods\non-food_inanimate_tree.jpg	1	1	1	non-food_inanimate_tree	0	Z	18	0	223	0		0	0	115.823932299856	115.923908599885
20683.25	0.099983099848032	130	satiated	stimuli/non_foods\non-food_animate_porcupine.jpg	1	1	1	non-food_animate_porcupine	0	W	16	0	138	0		0	0	115.973918200005	116.073901299853
20720.75	0.0999871999956667	131	satiated	stimuli/foods\cooked_ham.jpg	1	1	1	cooked_ham	1	T	14	0	35	0		0	0	116.123916300014	116.223903500009
20758.25	0.0999853999819607	132	satiated	stimuli/non_foods\non-food_animate_parrot.jpg	1	1	1	non-food_animate_parrot	0	V	15	0	133	0		0	0	116.273918600054	116.373904000036
20795.75	0.0999984000809491	133	satiated	stimuli/non_foods\non-food_inanimate_soccer_ball.jpg	1	1	1	non-food_inanimate_soccer_ball	0	S	13	0	210	0		0	0	116.423919899855	116.523918299936
20833.25	0.0999547000974417	134	satiated	stimuli/foods\frankfurter_and_provolone_salad.jpg	1	1	1	frankfurter_and_provolone_salad	1	X	17	0	49	0		0	0	116.573943699943	116.67389840004
20870.75	0.0999871999956667	135	satiated	stimuli/non_foods\non-food_inanimate_toilet.jpg	1	1	1	non-food_inanimate_toilet	0	Z	18	0	220	0		0	0	116.723910199944	116.82389739994
20908.25	0.0999904999043792	136	satiated	stimuli/non_foods\non-food_animate_ladybug.jpg	1	1	1	non-food_animate_ladybug	0	K	7	0	124	0		0	0	116.873906000052	116.973896499956
20945.75	0.0999837000854313	137	satiated	stimuli/foods\lemon_meringue_pie.jpg	1	1	1	lemon_meringue_pie	1	P	11	0	73	0		0	0	117.023909599986	117.123893300071
20983.25	0.0999877001158893	138	satiated	stimuli/non_foods\non-food_animate_owl.jpg	1	1	1	non-food_animate_owl	0	X	17	0	132	0		0	0	117.173903799849	117.273891499965
21020.75	0.0999716001097113	139	satiated	stimuli/non_foods\non-food_animate_dachshund.jpg	1	1	1	non-food_animate_dachshund	0	K	7	0	104	0		0	0	117.323904099874	117.423875699984
23670.75	0.0999781000427902	140	satiated	stimuli/foods\cinnamon.jpg	1	2	1	cinnamon	1	P	11	0	30	0		0	0	127.923803400015	128.023781500058
23708.25	0.0999697002116591	141	satiated	stimuli/non_foods\non-food_inanimate_highlighter.jpg	1	2	1	non-food_inanimate_highlighter	0	J	6	0	189	0		0	0	128.073809499852	128.173779200064
23745.75	0.0999837999697775	142	satiated	stimuli/non_foods\non-food_animate_seal.jpg	1	2	1	non-food_animate_seal	0	N	10	0	146	0		0	0	128.223787500057	128.323771300027
23783.25	0.0999789000488818	143	satiated	stimuli/non_foods\non-food_animate_kangaroo.jpg	1	2	1	non-food_animate_kangaroo	0	V	15	0	122	0		0	0	128.373784099938	128.473762999987
23820.75	0.0999803999438882	144	satiated	stimuli/non_foods\non-food_inanimate_cactus_pot_plant.jpg	1	2	1	non-food_inanimate_cactus_pot_plant	0	M	9	0	169	0		0	0	128.523783799959	128.623764199903
23858.25	0.0999751000199467	145	satiated	stimuli/non_foods\non-food_animate_hummingbird.jpg	1	2	1	non-food_animate_hummingbird	0	S	13	0	120	0		0	0	128.673786999891	128.773762099911
23895.75	0.0999922999180853	146	satiated	stimuli/foods\museli_bars.jpg	1	2	1	museli_bars	1	P	11	0	84	0		0	0	128.823778799968	128.923771099886
23933.25	0.0999853000976145	147	satiated	stimuli/non_foods\non-food_animate_skunk.jpg	1	2	1	non-food_animate_skunk	0	N	10	0	147	0		0	0	128.973786599934	129.073771900032
23970.75	0.0999840998556465	148	satiated	stimuli/non_foods\non-food_animate_clown.jpg	1	2	1	non-food_animate_clown	0	V	15	0	102	0		0	0	129.123784400057	129.223768499913
24008.25	0.0999849999789149	149	satiated	stimuli/foods\cracker.jpg	1	2	1	cracker	1	B	0	0	38	0		0	0	129.273782100063	129.373767100042
24045.75	0.0999854002147913	150	satiated	stimuli/non_foods\non-food_animate_slug.jpg	1	2	1	non-food_animate_slug	0	H	5	0	148	0		0	0	129.423780799843	129.523766200058
24083.25	0.0999617001507431	151	satiated	stimuli/non_foods\non-food_animate_green_bug.jpg	1	2	1	non-food_animate_green_bug	0	C	1	0	118	0		0	0	129.573800599901	129.673762300052
24120.75	0.0999897001311183	152	satiated	stimuli/foods\mushroom.jpg	1	2	1	mushroom	1	V	15	0	85	0		0	0	129.723775399849	129.82376509998
24158.25	0.0999577001202852	153	satiated	stimuli/foods\grapefruits.jpg	1	2	1	grapefruits	1	S	13	0	59	0		0	0	129.873804899864	129.973762599984
24195.75	0.0999818998388946	154	satiated	stimuli/non_foods\non-food_inanimate_lighter.jpg	1	2	1	non-food_inanimate_lighter	0	Z	18	0	193	0		0	0	130.023778100032	130.123759999871
24233.25	0.0999898000154644	155	satiated	stimuli/foods\rice.jpg	1	2	1	rice	1	N	10	0	257	0		0	0	130.173771099886	130.273760899901
24270.75	0.0999765999149531	156	satiated	stimuli/foods\spring_onions.jpg	1	2	1	spring_onions	1	T	14	0	269	0		0	0	130.323774500052	130.423751099966
24308.25	0.0999691002070904	157	satiated	stimuli/foods\chestnut.jpg	1	2	1	chestnut	1	C	1	0	24	0		0	0	130.473774999846	130.573744100053
24345.75	0.0999819000717252	158	satiated	stimuli/foods\grilled_chicken_breast.jpg	1	2	1	grilled_chicken_breast	1	M	9	0	63	0		0	0	130.623771999963	130.723753900034
24383.25	0.0999864002224058	159	satiated	stimuli/foods\fruit_pie.jpg	1	2	1	fruit_pie	1	W	16	0	54	0		0	0	130.773769199848	130.873755600071
24420.75	0.0999845000915229	160	satiated	stimuli/foods\lollies.jpg	1	2	1	lollies	1	D	2	0	78	0		0	0	130.923766699852	131.023751199944
24458.25	0.0999857001006603	161	satiated	stimuli/non_foods\non-food_animate_elephant.jpg	1	2	1	non-food_animate_elephant	0	J	6	0	111	0		0	0	131.073764799861	131.173750499962
24495.75	0.0999874998815358	162	satiated	stimuli/foods\orange.jpg	1	2	1	orange	1	V	15	0	230	0		0	0	131.223760399967	131.323747899849
24533.25	0.0999848998617381	163	satiated	stimuli/foods\corncob.jpg	1	2	1	corncob	1	G	4	0	37	0		0	0	131.373762500007	131.473747399868
24570.75	0.0999860998708755	164	satiated	stimuli/non_foods\non-food_animate_swan.jpg	1	2	1	non-food_animate_swan	0	B	0	0	152	0		0	0	131.523759800009	131.62374589988
24608.25	0.0999650999438018	165	satiated	stimuli/foods\carrot.jpg	1	2	1	carrot	1	G	4	0	19	0		0	0	131.67377949995	131.773744599894
24645.75	0.0999863999895751	166	satiated	stimuli/foods\pumpkin.jpg	1	2	1	pumpkin	1	P	11	0	250	0		0	0	131.823759299936	131.923745699925
24683.25	0.099982300074771	167	satiated	stimuli/non_foods\non-food_animate_baby_crawling.jpg	1	2	1	non-food_animate_baby_crawling	0	V	15	0	92	0		0	0	131.973755599931	132.073737900006
24720.75	0.0999859001021832	168	satiated	stimuli/non_foods\non-food_inanimate_shell.jpg	1	2	1	non-food_inanimate_shell	0	C	1	0	206	0		0	0	132.123754499946	132.223740400048
24758.25	0.100010100053623	169	satiated	stimuli/non_foods\non-food_animate_giraffe.jpg	1	2	1	non-food_animate_giraffe	0	J	6	0	115	0		0	0	132.27375199995	132.373762100004
24795.75	0.0999618000350893	170	satiated	stimuli/foods\rice_cake.jpg	1	2	1	rice_cake	1	E	20	1	258	0		0	0	132.423772099894	132.523733899929
24833.25	0.0999855000991374	171	satiated	stimuli/foods\bagel.jpg	1	2	1	bagel	1	B	0	0	6	0		0	0	132.573747799965	132.673733300064
24870.75	0.0999843999743462	172	satiated	stimuli/non_foods\non-food_inanimate_buds.jpg	1	2	1	non-food_inanimate_buds	0	G	4	0	166	0		0	0	132.723749500001	132.823733899975
24908.25	0.0999893001280725	173	satiated	stimuli/foods\pork_and_rice.jpg	1	2	1	pork_and_rice	1	V	15	0	245	0		0	0	132.873744099867	132.973733399995
24945.75	0.099984799977392	174	satiated	stimuli/foods\salami.jpg	1	2	1	salami	1	M	9	0	263	0		0	0	133.023746999912	133.123731799889
24983.25	0.0999804998282343	175	satiated	stimuli/foods\donut.jpg	1	2	1	donut	1	H	5	0	44	0		0	0	133.173743400024	133.273723899852
25020.75	0.100002199877053	176	satiated	stimuli/non_foods\non-food_animate_millipede.jpg	1	2	1	non-food_animate_millipede	0	C	1	0	129	0		0	0	133.32374370005	133.423745899927
25058.25	0.0999717998784035	177	satiated	stimuli/foods\mandarin.jpg	1	2	1	mandarin	1	X	17	0	79	0		0	0	133.473751500016	133.573723299894
25095.75	0.0999889001250267	178	satiated	stimuli/foods\toasted_bread_with_tomatoes.jpg	1	2	1	toasted_bread_with_tomatoes	1	M	9	0	275	0		0	0	133.623737799935	133.72372670006
25133.25	0.0999751999042928	179	satiated	stimuli/foods\fennel.jpg	1	2	1	fennel	1	P	11	0	47	0		0	0	133.773748100037	133.873723299941
25170.75	0.0999880998861045	180	satiated	stimuli/non_foods\non-food_inanimate_speakers.jpg	1	2	1	non-food_inanimate_speakers	0	D	2	0	212	0		0	0	133.923732900061	134.023720999947
25208.25	0.0999823999591172	181	satiated	stimuli/foods\brownie.jpg	1	2	1	brownie	1	S	13	0	14	0		0	0	134.073738199892	134.173720599851
25245.75	0.0999741998966783	182	satiated	stimuli/foods\gnocchi.jpg	1	2	1	gnocchi	1	N	10	0	58	0		0	0	134.223735600011	134.323709799908
25283.25	0.0999869001097977	183	satiated	stimuli/non_foods\non-food_animate_cheetah.jpg	1	2	1	non-food_animate_cheetah	0	L	8	0	100	0		0	0	134.37372049992	134.47370740003
25320.75	0.0999859001021832	184	satiated	stimuli/non_foods\non-food_inanimate_hammer.jpg	1	2	1	non-food_inanimate_hammer	0	M	9	0	186	0		0	0	134.52373149991	134.623717400013
25358.25	0.0999851999804378	185	satiated	stimuli/non_foods\non-food_animate_raccoon.jpg	1	2	1	non-food_animate_raccoon	0	X	17	0	139	0		0	0	134.6737249	134.77371009998
25395.75	0.0999868998769671	186	satiated	stimuli/non_foods\non-food_animate_iguana.jpg	1	2	1	non-food_animate_iguana	0	L	8	0	121	0		0	0	134.823726400035	134.923713299911
25433.25	0.0999846998602152	187	satiated	stimuli/non_foods\non-food_inanimate_desk.jpg	1	2	1	non-food_inanimate_desk	0	K	7	0	178	0		0	0	134.97372670006	135.07371139992
25470.75	0.0999853000976145	188	satiated	stimuli/foods\ginger_root.jpg	1	2	1	ginger_root	1	G	4	0	57	0		0	0	135.123721299926	135.223706600023
25508.25	0.099984799977392	189	satiated	stimuli/foods\omelette.jpg	1	2	1	omelette	1	H	5	0	228	0		0	0	135.273721599951	135.373706399929
25545.75	0.099982300074771	190	satiated	stimuli/foods\risotto_with_peas_and_asparagus_tips.jpg	1	2	1	risotto_with_peas_and_asparagus_tips	1	D	2	0	259	0		0	0	135.423719999846	135.523702299921
25583.25	0.0999893001280725	191	satiated	stimuli/foods\fries.jpg	1	2	1	fries	1	F	3	0	52	0		0	0	135.573716699844	135.673705999972
25620.75	0.0999769999179989	192	satiated	stimuli/non_foods\non-food_inanimate_hay.jpg	1	2	1	non-food_inanimate_hay	0	K	7	0	187	0		0	0	135.723717299988	135.823694299906
25658.25	0.0999817000702024	193	satiated	stimuli/non_foods\non-food_inanimate_canoe.jpg	1	2	1	non-food_inanimate_canoe	0	G	4	0	170	0		0	0	135.873706199927	135.973687899997
25695.75	0.0999729000031948	194	satiated	stimuli/foods\prawn.jpg	1	2	1	prawn	1	F	3	0	249	0		0	0	136.023704600055	136.123677500058
25733.25	0.0999829000793397	195	satiated	stimuli/foods\pasta_carbonara.jpg	1	2	1	pasta_carbonara	1	R	12	0	236	0		0	0	136.173712899908	136.273695799988
25770.75	0.0999880998861045	196	satiated	stimuli/foods\lettuce.jpg	1	2	1	lettuce	1	C	1	0	75	0		0	0	136.323707700009	136.423695799895
25808.25	0.0999904999043792	197	satiated	stimuli/foods\pineapple.jpg	1	2	1	pineapple	1	H	5	0	243	0		0	0	136.473702799994	136.573693299899
25845.75	0.0999940000474453	198	satiated	stimuli/foods\papaya.jpg	1	2	1	papaya	1	X	17	0	235	0		0	0	136.623705399921	136.723699399969
25883.25	0.0999871999956667	199	satiated	stimuli/foods\risotto_with_zucchini.jpg	1	2	1	risotto_with_zucchini	1	P	11	0	260	0		0	0	136.773705000058	136.873692200053
25920.75	0.0999849000945687	200	satiated	stimuli/foods\nectarine.jpg	1	2	1	nectarine	1	U	23	1	87	0		0	0	136.923704499844	137.023689399939
25958.25	0.0999934999272227	201	satiated	stimuli/non_foods\non-food_animate_mammoth.jpg	1	2	1	non-food_animate_mammoth	0	Z	18	0	128	0		0	0	137.07369780005	137.173691299977
25995.75	0.0999803000595421	202	satiated	stimuli/foods\radish.jpg	1	2	1	radish	1	F	3	0	251	0		0	0	137.223704600008	137.323684900068
26033.25	0.100011100061238	203	satiated	stimuli/non_foods\non-food_animate_sea_turtle.jpg	1	2	1	non-food_animate_sea_turtle	0	K	7	0	144	1	a	0.541822400176898	1	137.373697499977	137.473708600039
26070.75	0.0999873999971896	204	satiated	stimuli/foods\lamb_chops.jpg	1	2	1	lamb_chops	1	D	2	0	70	0		0	0	137.523700299906	137.623687699903
26108.25	0.0999413998797536	205	satiated	stimuli/non_foods\non-food_inanimate_chair.jpg	1	2	1	non-food_inanimate_chair	0	J	6	0	172	0		0	0	137.673738599988	137.773679999867
26145.75	0.0999894000124186	206	satiated	stimuli/foods\pea_pod.jpg	1	2	1	pea_pod	1	S	13	0	237	0		0	0	137.823691899888	137.923681299901
26183.25	0.0999856998678297	207	satiated	stimuli/foods\cannoli.jpg	1	2	1	cannoli	1	H	5	0	17	0		0	0	137.97369350004	138.073679199908
26220.75	0.0999848998617381	208	satiated	stimuli/non_foods\non-food_animate_lizard.jpg	1	2	1	non-food_animate_lizard	0	Z	18	0	126	0		0	0	138.123687000014	138.223671899876
26258.25	0.0999932000413537	209	satiated	stimuli/non_foods\non-food_inanimate_pine_cone.jpg	1	2	1	non-food_inanimate_pine_cone	0	P	11	0	200	0		0	0	138.273682399886	138.373675599927
26295.75	0.0999797999393195	210	satiated	stimuli/non_foods\non-food_animate_alligator.jpg	1	2	1	non-food_animate_alligator	0	V	15	0	90	0		0	0	138.423688299954	138.523668099893
26333.25	0.0999892000108957	211	satiated	stimuli/foods\artichoke.jpg	1	2	1	artichoke	1	B	0	0	3	0		0	0	138.573672499973	138.673661699984
26370.75	0.0999827000778168	212	satiated	stimuli/non_foods\non-food_animate_seahorse.jpg	1	2	1	non-food_animate_seahorse	0	R	12	0	145	0		0	0	138.723681099946	138.823663800023
26408.25	0.0999847000930458	213	satiated	stimuli/non_foods\non-food_inanimate_scissors.jpg	1	2	1	non-food_inanimate_scissors	0	J	6	0	205	0		0	0	138.873673599912	138.973658300005
26445.75	0.0999823999591172	214	satiated	stimuli/foods\tomato.jpg	1	2	1	tomato	1	N	10	0	276	0		0	0	139.023677499965	139.123659899924
26483.25	0.0999952000565827	215	satiated	stimuli/non_foods\non-food_animate_student_female.jpg	1	2	1	non-food_animate_student_female	0	D	2	0	151	0		0	0	139.173658599844	139.273653799901
26520.75	0.0999677001964301	216	satiated	stimuli/non_foods\non-food_animate_dolphin.jpg	1	2	1	non-food_animate_dolphin	0	J	6	0	106	0		0	0	139.323672999861	139.423640700057
26558.25	0.0999996000900865	217	satiated	stimuli/non_foods\non-food_animate_snail.jpg	1	2	1	non-food_animate_snail	0	W	16	0	149	0		0	0	139.473666599952	139.573666200042
26595.75	0.0999888998921961	218	satiated	stimuli/foods\minestrone_soup.jpg	1	2	1	minestrone_soup	1	K	7	0	82	0		0	0	139.623673100024	139.723661999917
26633.25	0.0999871001113206	219	satiated	stimuli/foods\honey.jpg	1	2	1	honey	1	C	1	0	66	0		0	0	139.77367549995	139.873662600061
26670.75	0.0999859999865294	220	satiated	stimuli/foods\pear.jpg	1	2	1	pear	1	B	0	0	239	0		0	0	139.923672999954	140.02365899994
26708.25	0.0999586000107229	221	satiated	stimuli/non_foods\non-food_animate_squirrel.jpg	1	2	1	non-food_animate_squirrel	0	T	14	0	150	0		0	0	140.073673599865	140.173632199876
26745.75	0.0999817000702024	222	satiated	stimuli/non_foods\non-food_inanimate_waterlily.jpg	1	2	1	non-food_inanimate_waterlily	0	P	11	0	226	0		0	0	140.223672599997	140.323654300068
26783.25	0.0999875999987125	223	satiated	stimuli/non_foods\non-food_animate_mouse.jpg	1	2	1	non-food_animate_mouse	0	X	17	0	131	0		0	0	140.373666199856	140.473653799854
26820.75	0.0999773000366986	224	satiated	stimuli/foods\lasagna.jpg	1	2	1	lasagna	1	C	1	0	71	0		0	0	140.523676599842	140.623653899878
26858.25	0.0999825999606401	225	satiated	stimuli/foods\eggplant.jpg	1	2	1	eggplant	1	G	4	0	46	0		0	0	140.673653699923	140.773636299884
26895.75	0.0999747000169009	226	satiated	stimuli/foods\raisins.jpg	1	2	1	raisins	1	S	13	0	252	0		0	0	140.823652599938	140.923627299955
26933.25	0.0999839999713004	227	satiated	stimuli/non_foods\non-food_inanimate_bed.jpg	1	2	1	non-food_inanimate_bed	0	M	9	0	160	0		0	0	140.973663399927	141.073647399899
26970.75	0.100012799957767	228	satiated	stimuli/non_foods\non-food_inanimate_stapler.jpg	1	2	1	non-food_inanimate_stapler	0	F	3	0	213	0		0	0	141.123677199939	141.223689999897
27008.25	0.0999652999453247	229	satiated	stimuli/foods\fruit_flan.jpg	1	2	1	fruit_flan	1	L	8	0	53	0		0	0	141.273680299986	141.373645599931
27045.75	0.0999835000839084	230	satiated	stimuli/foods\garlic.jpg	1	2	1	garlic	1	R	12	0	56	0		0	0	141.423660099972	141.523643600056
27083.25	0.0999892000108957	231	satiated	stimuli/non_foods\non-food_animate_chicken.jpg	1	2	1	non-food_animate_chicken	0	V	15	0	101	0		0	0	141.573655999964	141.673645199975
27120.75	0.0999861001037061	232	satiated	stimuli/foods\lentils.jpg	1	2	1	lentils	1	F	3	0	74	0		0	0	141.723655199865	141.823641299969
27158.25	0.0999884998891503	233	satiated	stimuli/non_foods\non-food_inanimate_briefcase.jpg	1	2	1	non-food_inanimate_briefcase	0	B	0	0	163	0		0	0	141.87364939996	141.97363789985
27195.75	0.0999837999697775	234	satiated	stimuli/non_foods\non-food_inanimate_bicycle.jpg	1	2	1	non-food_inanimate_bicycle	0	C	1	0	161	0		0	0	142.0236515	142.123635299969
27233.25	0.0999879001174122	235	satiated	stimuli/foods\chocolate_chip_cookies.jpg	1	2	1	chocolate_chip_cookies	1	E	20	1	27	0		0	0	142.173648299882	142.2736362
27270.75	0.0999851000960916	236	satiated	stimuli/non_foods\non-food_inanimate_bowling_ball.jpg	1	2	1	non-food_inanimate_bowling_ball	0	R	12	0	162	0		0	0	142.323657899862	142.423642999958
27308.25	0.0999928000383079	237	satiated	stimuli/foods\mussels.jpg	1	2	1	mussels	1	G	4	0	86	0		0	0	142.473642099882	142.57363489992
27345.75	0.100004100007936	238	satiated	stimuli/foods\oyster.jpg	1	2	1	oyster	1	W	16	0	233	0		0	0	142.623620399972	142.72362449998
27383.25	0.0999851000960916	239	satiated	stimuli/foods\cream_donuts.jpg	1	2	1	cream_donuts	1	P	11	0	39	0		0	0	142.773630899843	142.873615999939
27420.75	0.099976500030607	240	satiated	stimuli/non_foods\non-food_animate_killer_whale.jpg	1	2	1	non-food_animate_killer_whale	0	W	16	0	123	0		0	0	142.923645499861	143.023621999891
27458.25	0.0999750001356006	241	satiated	stimuli/foods\coconut.jpg	1	2	1	coconut	1	J	6	0	33	0		0	0	143.073640199844	143.173615199979
27495.75	0.0999791999347508	242	satiated	stimuli/non_foods\non-food_animate_llama.jpg	1	2	1	non-food_animate_llama	0	D	2	0	127	0		0	0	143.223631999921	143.323611199856
27533.25	0.100013199960813	243	satiated	stimuli/non_foods\non-food_inanimate_wrench.jpg	1	2	1	non-food_inanimate_wrench	0	H	5	0	227	0		0	0	143.373610999901	143.473624199862
27570.75	0.0999888998921961	244	satiated	stimuli/foods\cucumber.jpg	1	2	1	cucumber	1	T	14	0	41	0		0	0	143.523634399986	143.623623299878
27608.25	0.099982799962163	245	satiated	stimuli/foods\figs.jpg	1	2	1	figs	1	K	7	0	48	0		0	0	143.673635500018	143.77361829998
27645.75	0.0999853999819607	246	satiated	stimuli/non_foods\non-food_inanimate_folding_chair.jpg	1	2	1	non-food_inanimate_folding_chair	0	R	12	0	182	0		0	0	143.823633499909	143.923618899891
27683.25	0.099989099893719	247	satiated	stimuli/non_foods\non-food_animate_caterpillar.jpg	1	2	1	non-food_animate_caterpillar	0	D	2	0	99	1	a	0	0	143.973630100023	144.073619199917
27720.75	0.0999767000321299	248	satiated	stimuli/foods\pomegranate.jpg	1	2	1	pomegranate	1	S	13	0	244	0		0	0	144.12364019989	144.223616899922
27758.25	0.0999916000291705	249	satiated	stimuli/foods\apple.jpg	1	2	1	apple	1	T	14	0	1	0		0	0	144.273624799913	144.373616399942
27795.75	0.099983099848032	250	satiated	stimuli/non_foods\non-food_animate_penguin.jpg	1	2	1	non-food_animate_penguin	0	X	17	0	135	0		0	0	144.423626400065	144.523609499913
27833.25	0.0999880998861045	251	satiated	stimuli/foods\raw_ham.jpg	1	2	1	raw_ham	1	M	9	0	253	0		0	0	144.573623700067	144.673611799954
27870.75	0.0999757000245154	252	satiated	stimuli/foods\dates.jpg	1	2	1	dates	1	S	13	0	43	0		0	0	144.723650499946	144.82362619997
27908.25	0.0999866998754442	253	satiated	stimuli/foods\waffle.jpg	1	2	1	waffle	1	H	5	0	278	0		0	0	144.873650399968	144.973637099843
27945.75	0.0999888000078499	254	satiated	stimuli/foods\capsicum.jpg	1	2	1	capsicum	1	L	8	0	18	0		0	0	145.023618399864	145.123607199872
27983.25	0.0999520998448133	255	satiated	stimuli/foods\cabbage.jpg	1	2	1	cabbage	1	F	3	0	16	0		0	0	145.173654400045	145.27360649989
28020.75	0.0999803000595421	256	satiated	stimuli/foods\onion.jpg	1	2	1	onion	1	R	12	0	229	0		0	0	145.323622799944	145.423603100004
28058.25	0.0999872998800129	257	satiated	stimuli/non_foods\non-food_inanimate_construction_helment.jpg	1	2	1	non-food_inanimate_construction_helment	0	H	5	0	175	0		0	0	145.473616000032	145.573603299912
28095.75	0.0999859999865294	258	satiated	stimuli/foods\wafer.jpg	1	2	1	wafer	1	D	2	0	277	0		0	0	145.623615900055	145.723601900041
28133.25	0.100026099942625	259	satiated	stimuli/non_foods\non-food_inanimate_orchid.jpg	1	2	1	non-food_inanimate_orchid	0	J	6	0	198	0		0	0	145.773602799978	145.873628899921
28170.75	0.0999678999651223	260	satiated	stimuli/non_foods\non-food_animate_bee.jpg	1	2	1	non-food_animate_bee	0	H	5	0	95	0		0	0	145.923629499972	146.023597399937
28208.25	0.0999888000078499	261	satiated	stimuli/foods\ice_cream.jpg	1	2	1	ice_cream	1	S	13	0	68	0		0	0	146.07360740006	146.173596200068
28245.75	0.099988300120458	262	satiated	stimuli/foods\kiwi.jpg	1	2	1	kiwi	1	L	8	0	69	0		0	0	146.223607899854	146.323596199974
28283.25	0.0999853999819607	263	satiated	stimuli/non_foods\non-food_animate_young_girl.jpg	1	2	1	non-food_animate_young_girl	0	B	0	0	157	0		0	0	146.373609500006	146.473594899988
28320.75	0.0999768001493067	264	satiated	stimuli/foods\watermelon.jpg	1	2	1	watermelon	1	W	16	0	279	0		0	0	146.523607099894	146.623583900044
28358.25	0.100007199915126	265	satiated	stimuli/non_foods\non-food_inanimate_watering_can.jpg	1	2	1	non-food_inanimate_watering_can	0	J	6	0	225	0		0	0	146.673586599994	146.77359379991
28395.75	0.0999574000015855	266	satiated	stimuli/foods\brie.jpg	1	2	1	brie	1	B	0	0	12	0		0	0	146.823604600038	146.92356200004
28433.25	0.0999887001235038	267	satiated	stimuli/non_foods\non-food_animate_woman.jpg	1	2	1	non-food_animate_woman	0	N	10	0	154	0		0	0	146.973600399913	147.073589100037
28470.75	0.0999855000991374	268	satiated	stimuli/foods\asparagus.jpg	1	2	1	asparagus	1	B	0	0	4	0		0	0	147.123603199841	147.223588699941
28508.25	0.0999835999682546	269	satiated	stimuli/non_foods\non-food_inanimate_bamboo.jpg	1	2	1	non-food_inanimate_bamboo	0	C	1	0	159	0		0	0	147.273599100066	147.373582700035
28545.75	0.0999886998906732	270	satiated	stimuli/foods\oven-roasted_tomatoes.jpg	1	2	1	oven-roasted_tomatoes	1	B	0	0	232	0		0	0	147.423593800049	147.52358249994
28583.25	0.099994600052014	271	satiated	stimuli/foods\taco.jpg	1	2	1	taco	1	H	5	0	274	0		0	0	147.573595399968	147.67359000002
28620.75	0.0999833999667317	272	satiated	stimuli/foods\hazelnuts.jpg	1	2	1	hazelnuts	1	B	0	0	65	0		0	0	147.723597100005	147.823580499971
28658.25	0.100029000081122	273	satiated	stimuli/non_foods\non-food_inanimate_nettle.jpg	1	2	1	non-food_inanimate_nettle	0	W	16	0	197	0		0	0	147.873596499907	147.973625499988
28695.75	0.0999858998693526	274	satiated	stimuli/non_foods\non-food_animate_fox.jpg	1	2	1	non-food_animate_fox	0	D	2	0	112	0		0	0	148.02358909999	148.12357499986
28733.25	0.0999849999789149	275	satiated	stimuli/non_foods\non-food_inanimate_button.jpg	1	2	1	non-food_inanimate_button	0	M	9	0	168	0		0	0	148.173590299906	148.273575299885
28770.75	0.0999676999635994	276	satiated	stimuli/non_foods\non-food_inanimate_rack.jpg	1	2	1	non-food_inanimate_rack	0	T	14	0	202	0		0	0	148.323605200043	148.423572900007
28808.25	0.0999891001265496	277	satiated	stimuli/non_foods\non-food_inanimate_skirt.jpg	1	2	1	non-food_inanimate_skirt	0	R	12	0	209	0		0	0	148.473583899904	148.573573000031
28845.75	0.0999829999636859	278	satiated	stimuli/foods\linguine_with_clams.jpg	1	2	1	linguine_with_clams	1	L	8	0	77	0		0	0	148.62358819996	148.723571199924
28883.25	0.0999848998617381	279	satiated	stimuli/non_foods\non-food_inanimate_bucket.jpg	1	2	1	non-food_inanimate_bucket	0	D	2	0	165	0		0	0	148.773582200054	148.873567099916
30862.5	0.099974500015378	280	satiated	stimuli/foods\lemon.jpg	1	3	1	lemon	1	N	10	0	72	0		0	0	156.690179799916	156.790154299932
30900	0.099980799946934	281	satiated	stimuli/non_foods\non-food_inanimate_bed.jpg	1	3	1	non-food_inanimate_bed	0	H	5	0	160	0		0	0	156.84016719996	156.940147999907
30937.5	0.0999750001356006	282	satiated	stimuli/non_foods\non-food_animate_raccoon.jpg	1	3	1	non-food_animate_raccoon	0	W	16	0	139	0		0	0	156.990172399906	157.090147400042
30975	0.0999980999622494	283	satiated	stimuli/non_foods\non-food_animate_chicken.jpg	1	3	1	non-food_animate_chicken	0	G	4	0	101	0		0	0	157.140159199946	157.240157299908
31012.5	0.0999875001143664	284	satiated	stimuli/non_foods\non-food_animate_bee.jpg	1	3	1	non-food_animate_bee	0	C	1	0	95	0		0	0	157.290170799941	157.390158300055
31050	0.10001159994863	285	satiated	stimuli/foods\omelette.jpg	1	3	1	omelette	1	S	13	0	228	0		0	0	157.440149500035	157.540161099983
31087.5	0.0999972000718117	286	satiated	stimuli/non_foods\non-food_inanimate_hammer.jpg	1	3	1	non-food_inanimate_hammer	0	N	10	0	186	0		0	0	157.590148499934	157.690145700006
31125	0.0999907001387328	287	satiated	stimuli/foods\risotto_with_peas_and_asparagus_tips.jpg	1	3	1	risotto_with_peas_and_asparagus_tips	1	S	13	0	259	0		0	0	157.740157499909	157.840148200048
31162.5	0.0999690000899136	288	satiated	stimuli/non_foods\non-food_animate_elephant.jpg	1	3	1	non-food_animate_elephant	0	H	5	0	111	0		0	0	157.89017109992	157.99014010001
31200	0.0999817999545485	289	satiated	stimuli/non_foods\non-food_inanimate_rope.jpg	1	3	1	non-food_inanimate_rope	0	V	15	0	204	0		0	0	158.040157099953	158.140138899907
31237.5	0.0999855999834836	290	satiated	stimuli/non_foods\non-food_animate_woman.jpg	1	3	1	non-food_animate_woman	0	T	14	0	154	0		0	0	158.190155399963	158.290140999947
31275	0.09998430009	291	satiated	stimuli/foods\croissant.jpg	1	3	1	croissant	1	Z	18	0	40	0		0	0	158.340154899983	158.440139200073
31312.5	0.0999876998830587	292	satiated	stimuli/non_foods\non-food_animate_cat.jpg	1	3	1	non-food_animate_cat	0	B	0	0	98	0		0	0	158.490151199978	158.590138899861
31350	0.0999656999483705	293	satiated	stimuli/foods\cherry.jpg	1	3	1	cherry	1	W	16	0	23	0		0	0	158.640167899895	158.740133599844
31387.5	0.0999829999636859	294	satiated	stimuli/foods\lamb_chops.jpg	1	3	1	lamb_chops	1	X	17	0	70	0		0	0	158.790143399965	158.890126399929
31425	0.0999869999941438	295	satiated	stimuli/foods\orange.jpg	1	3	1	orange	1	S	13	0	230	0		0	0	158.940140999854	159.040127999848
31462.5	0.0999848998617381	296	satiated	stimuli/foods\radish.jpg	1	3	1	radish	1	M	9	0	251	0		0	0	159.090141599998	159.19012649986
31500	0.0999751000199467	297	satiated	stimuli/foods\lasagna.jpg	1	3	1	lasagna	1	P	11	0	71	0		0	0	159.240149599966	159.340124699986
31537.5	0.099992600036785	298	satiated	stimuli/non_foods\non-food_animate_hummingbird.jpg	1	3	1	non-food_animate_hummingbird	0	U	23	1	120	0		0	0	159.390132899862	159.490125499899
31575	0.0999596999026835	299	satiated	stimuli/non_foods\non-food_animate_cow.jpg	1	3	1	non-food_animate_cow	0	T	14	0	103	0		0	0	159.540139700053	159.640099399956
31612.5	0.0999874998815358	300	satiated	stimuli/foods\prawn.jpg	1	3	1	prawn	1	P	11	0	249	0		0	0	159.690142099978	159.79012959986
31650	0.0999831999652088	301	satiated	stimuli/foods\banana.jpg	1	3	1	banana	1	W	16	0	9	0		0	0	159.840142299887	159.940125499852
31687.5	0.0999565001111478	302	satiated	stimuli/non_foods\non-food_animate_monkey.jpg	1	3	1	non-food_animate_monkey	0	S	13	0	130	1	a	0.593234600033611	1	159.990141799906	160.090098300017
31725	0.0999887001235038	303	satiated	stimuli/non_foods\non-food_animate_slug.jpg	1	3	1	non-food_animate_slug	0	R	12	0	148	0		0	0	160.140133499866	160.24012219999
31762.5	0.0999834998510778	304	satiated	stimuli/non_foods\non-food_inanimate_nest.jpg	1	3	1	non-food_inanimate_nest	0	V	15	0	196	0		0	0	160.290136900032	160.390120399883
31800	0.0999948000535369	305	satiated	stimuli/foods\oregano.jpg	1	3	1	oregano	1	P	11	0	231	0		0	0	160.440149199916	160.54014399997
31837.5	0.0999841000884771	306	satiated	stimuli/non_foods\non-food_inanimate_drum_set.jpg	1	3	1	non-food_inanimate_drum_set	0	X	17	0	179	0		0	0	160.590125199873	160.690109299961
31875	0.0999843999743462	307	satiated	stimuli/non_foods\non-food_animate_ant.jpg	1	3	1	non-food_animate_ant	0	F	3	0	91	0		0	0	160.740123699885	160.840108099859
31912.5	0.0999813999515027	308	satiated	stimuli/foods\coconut.jpg	1	3	1	coconut	1	D	2	0	33	0		0	0	160.89012919995	160.990110599902
31950	0.0999656999483705	309	satiated	stimuli/non_foods\non-food_inanimate_bamboo.jpg	1	3	1	non-food_inanimate_bamboo	0	L	8	0	159	0		0	0	161.040123400046	161.140089099994
31987.5	0.0999344000592828	310	satiated	stimuli/non_foods\non-food_inanimate_lighter.jpg	1	3	1	non-food_inanimate_lighter	0	G	4	0	193	0		0	0	161.190182199934	161.290116599994
32025	0.0999851999804378	311	satiated	stimuli/foods\raw_sausage.jpg	1	3	1	raw_sausage	1	C	1	0	254	0		0	0	161.340126399882	161.440111599863
32062.5	0.0999812001828104	312	satiated	stimuli/non_foods\non-food_inanimate_grass.jpg	1	3	1	non-food_inanimate_grass	0	W	16	0	184	0		0	0	161.490122499876	161.590103700059
32100	0.0999922000337392	313	satiated	stimuli/non_foods\non-food_inanimate_skateboard.jpg	1	3	1	non-food_inanimate_skateboard	0	D	2	0	208	0		0	0	161.640107600018	161.740099800052
32137.5	0.0999895001295954	314	satiated	stimuli/non_foods\non-food_animate_student_female.jpg	1	3	1	non-food_animate_student_female	0	W	16	0	151	0		0	0	161.790117099881	161.890106600011
32175	0.0999733998905867	315	satiated	stimuli/foods\fruit_salad.jpg	1	3	1	fruit_salad	1	Z	18	0	55	0		0	0	161.940120300045	162.040093699936
32212.5	0.0999843999743462	316	satiated	stimuli/foods\apricot.jpg	1	3	1	apricot	1	S	13	0	2	0		0	0	162.090112200007	162.190096599981
32250	0.0999669001903385	317	satiated	stimuli/foods\carrot.jpg	1	3	1	carrot	1	F	3	0	19	0		0	0	162.240106999874	162.340073900064
32287.5	0.0999634000472724	318	satiated	stimuli/non_foods\non-food_inanimate_padlock.jpg	1	3	1	non-food_inanimate_padlock	0	B	0	0	199	0		0	0	162.390115599846	162.490078999894
32325	0.0999724001158029	319	satiated	stimuli/foods\chocolate_pudding.jpg	1	3	1	chocolate_pudding	1	A	19	1	29	0		0	0	162.540104599902	162.640077000018
32362.5	0.0999816998373717	320	satiated	stimuli/foods\honey.jpg	1	3	1	honey	1	B	0	0	66	0		0	0	162.690103800036	162.790085499873
32400	0.0999764001462609	321	satiated	stimuli/non_foods\non-food_animate_camel.jpg	1	3	1	non-food_animate_camel	0	P	11	0	97	0		0	0	162.84010079992	162.940077200066
32437.5	0.10000710003078	322	satiated	stimuli/non_foods\non-food_inanimate_short_sleeved_shirt.jpg	1	3	1	non-food_inanimate_short_sleeved_shirt	0	C	1	0	207	0		0	0	162.990086799953	163.090093899984
32475	0.0999948000535369	323	satiated	stimuli/foods\peach.jpg	1	3	1	peach	1	B	0	0	238	1	a	0.593205600045621	1	163.140095199924	163.240089999977
32512.5	0.0999910000246018	324	satiated	stimuli/non_foods\non-food_animate_deer.jpg	1	3	1	non-food_animate_deer	0	N	10	0	105	0		0	0	163.29010159988	163.390092599904
32550	0.0999942999333143	325	satiated	stimuli/non_foods\non-food_animate_dachshund.jpg	1	3	1	non-food_animate_dachshund	0	C	1	0	104	0		0	0	163.440093999961	163.540088299895
32587.5	0.09998709987849	326	satiated	stimuli/non_foods\non-food_animate_lion.jpg	1	3	1	non-food_animate_lion	0	B	0	0	125	0		0	0	163.590099300025	163.690086399904
32625	0.0999786998145282	327	satiated	stimuli/foods\fried_zucchini.jpg	1	3	1	fried_zucchini	1	J	6	0	51	0		0	0	163.740101400064	163.840080099879
32662.5	0.0999812998343259	328	satiated	stimuli/non_foods\non-food_inanimate_broom.jpg	1	3	1	non-food_inanimate_broom	0	B	0	0	164	0		0	0	163.890092700021	163.990073999856
32700	0.099968999857083	329	satiated	stimuli/non_foods\non-food_inanimate_construction_helment.jpg	1	3	1	non-food_inanimate_construction_helment	0	W	16	0	175	0		0	0	164.040104500018	164.140073499875
32737.5	0.0999848998617381	330	satiated	stimuli/non_foods\non-food_animate_pigeon.jpg	1	3	1	non-food_animate_pigeon	0	S	13	0	136	0		0	0	164.190085500013	164.290070399875
32775	0.100001399870962	331	satiated	stimuli/foods\red_beans.jpg	1	3	1	red_beans	1	K	7	0	255	0		0	0	164.340085600037	164.440086999908
32812.5	0.0999847000930458	332	satiated	stimuli/non_foods\non-food_animate_german_shepherd.jpg	1	3	1	non-food_animate_german_shepherd	0	H	5	0	114	0		0	0	164.490087399958	164.590072100051
32850	0.0999650000594556	333	satiated	stimuli/non_foods\non-food_animate_kangaroo.jpg	1	3	1	non-food_animate_kangaroo	0	S	13	0	122	0		0	0	164.64010259998	164.74006760004
32887.5	0.0999778998084366	334	satiated	stimuli/non_foods\non-food_animate_mouse.jpg	1	3	1	non-food_animate_mouse	0	D	2	0	131	0		0	0	164.790079700062	164.89005759987
32925	0.100010400172323	335	satiated	stimuli/non_foods\non-food_inanimate_canoe.jpg	1	3	1	non-food_inanimate_canoe	0	T	14	0	170	0		0	0	164.940063699847	165.040074100019
32962.5	0.0999748001340777	336	satiated	stimuli/non_foods\non-food_animate_peacock.jpg	1	3	1	non-food_animate_peacock	0	V	15	0	134	0		0	0	165.090086699929	165.190061500063
33000	0.0999801000580192	337	satiated	stimuli/non_foods\non-food_inanimate_sun_flower.jpg	1	3	1	non-food_inanimate_sun_flower	0	Z	18	0	216	0		0	0	165.240079100011	165.340059200069
33037.5	0.100010500056669	338	satiated	stimuli/non_foods\non-food_inanimate_wrench.jpg	1	3	1	non-food_inanimate_wrench	0	T	14	0	227	0		0	0	165.390057699988	165.490068200044
33075	0.0999862002208829	339	satiated	stimuli/foods\cooked_ham.jpg	1	3	1	cooked_ham	1	B	0	0	35	0		0	0	165.540082099847	165.640068300068
33112.5	0.0999874998815358	340	satiated	stimuli/non_foods\non-food_animate_baby_crawling.jpg	1	3	1	non-food_animate_baby_crawling	0	D	2	0	92	0		0	0	165.690080699977	165.790068199858
33150	0.0999831999652088	341	satiated	stimuli/non_foods\non-food_inanimate_towel.jpg	1	3	1	non-food_inanimate_towel	0	H	5	0	221	0		0	0	165.840078999987	165.940062199952
33187.5	0.0999837999697775	342	satiated	stimuli/non_foods\non-food_inanimate_desk.jpg	1	3	1	non-food_inanimate_desk	0	V	15	0	178	0		0	0	165.990082500037	166.090066300007
33225	0.0999831999652088	343	satiated	stimuli/non_foods\non-food_animate_yellow_bug.jpg	1	3	1	non-food_animate_yellow_bug	0	S	13	0	155	0		0	0	166.140076899901	166.240060099866
33262.5	0.0999880000017583	344	satiated	stimuli/non_foods\non-food_inanimate_socks.jpg	1	3	1	non-food_inanimate_socks	0	H	5	0	211	0		0	0	166.290077300044	166.390065300046
33300	0.0999648000579327	345	satiated	stimuli/foods\hazelnuts.jpg	1	3	1	hazelnuts	1	M	9	0	65	0		0	0	166.440096999984	166.540061800042
33337.5	0.0999820998404175	346	satiated	stimuli/non_foods\non-food_animate_rhino.jpg	1	3	1	non-food_animate_rhino	0	K	7	0	141	0		0	0	166.590074500069	166.690056599909
33375	0.0999861999880522	347	satiated	stimuli/foods\mussels.jpg	1	3	1	mussels	1	W	16	0	86	0		0	0	166.740071800072	166.84005800006
33412.5	0.0999825000762939	348	satiated	stimuli/foods\nectarine.jpg	1	3	1	nectarine	1	Z	18	0	87	0		0	0	166.890071799979	166.990054300055
33450	0.0999851000960916	349	satiated	stimuli/foods\pickles.jpg	1	3	1	pickles	1	J	6	0	242	0		0	0	167.040070199873	167.140055299969
33487.5	0.0999848998617381	350	satiated	stimuli/non_foods\non-food_inanimate_tulip.jpg	1	3	1	non-food_inanimate_tulip	0	X	17	0	224	0		0	0	167.190066799987	167.290051699849
33525	0.0999840998556465	351	satiated	stimuli/foods\smoked_ham.jpg	1	3	1	smoked_ham	1	C	1	0	266	0		0	0	167.340066100005	167.440050199861
33562.5	0.100008000154048	352	satiated	stimuli/non_foods\non-food_inanimate_cap.jpg	1	3	1	non-food_inanimate_cap	0	V	15	0	171	0		0	0	167.490065699909	167.590073700063
33600	0.100005500018597	353	satiated	stimuli/non_foods\non-food_inanimate_speakers.jpg	1	3	1	non-food_inanimate_speakers	0	U	23	1	212	0		0	0	167.640041099861	167.74004659988
33637.5	0.0999827000778168	354	satiated	stimuli/foods\mandarin.jpg	1	3	1	mandarin	1	L	8	0	79	0		0	0	167.790065299952	167.89004800003
33675	0.099985099863261	355	satiated	stimuli/non_foods\non-food_inanimate_leaf.jpg	1	3	1	non-food_inanimate_leaf	0	Z	18	0	192	0		0	0	167.940061500063	168.040046599926
33712.5	0.0999851999804378	356	satiated	stimuli/foods\lollies.jpg	1	3	1	lollies	1	R	12	0	78	1	a	0.550176199991256	1	168.090058200061	168.190043400042
33750	0.0999557999894023	357	satiated	stimuli/foods\egg.jpg	1	3	1	egg	1	V	15	0	45	0		0	0	168.240075799869	168.340031599859
33787.5	0.0999793000519276	358	satiated	stimuli/foods\almonds.jpg	1	3	1	almonds	1	S	13	0	0	0		0	0	168.390049699927	168.490028999979
33825	0.0999797999393195	359	satiated	stimuli/non_foods\non-food_animate_grasshopper.jpg	1	3	1	non-food_animate_grasshopper	0	R	12	0	117	0		0	0	168.540044999914	168.640024799854
33862.5	0.0999872998800129	360	satiated	stimuli/non_foods\non-food_animate_lizard.jpg	1	3	1	non-food_animate_lizard	0	H	5	0	126	0		0	0	168.690040800022	168.790028099902
33900	0.0999857001006603	361	satiated	stimuli/foods\salmon.jpg	1	3	1	salmon	1	V	15	0	264	0		0	0	168.840039799921	168.940025500022
33937.5	0.0999836998526007	362	satiated	stimuli/foods\potato_chips.jpg	1	3	1	potato_chips	1	T	14	0	247	0		0	0	168.990040400065	169.090024099918
33975	0.0999764001462609	363	satiated	stimuli/non_foods\non-food_animate_clown.jpg	1	3	1	non-food_animate_clown	0	F	3	0	102	0		0	0	169.140047899913	169.240024300059
34012.5	0.0999873999971896	364	satiated	stimuli/non_foods\non-food_inanimate_clover.jpg	1	3	1	non-food_inanimate_clover	0	L	8	0	174	0		0	0	169.290036399849	169.390023799846
34050	0.0999964000657201	365	satiated	stimuli/non_foods\non-food_inanimate_cactus_pot_plant.jpg	1	3	1	non-food_inanimate_cactus_pot_plant	0	K	7	0	169	1	a	0	0	169.440033099847	169.540029499913
34087.5	0.0999857001006603	366	satiated	stimuli/foods\frankfurter_and_provolone_salad.jpg	1	3	1	frankfurter_and_provolone_salad	1	W	16	0	49	0		0	0	169.59003959992	169.69002530002
34125	0.0999797999393195	367	satiated	stimuli/non_foods\non-food_inanimate_stoplight.jpg	1	3	1	non-food_inanimate_stoplight	0	X	17	0	214	0		0	0	169.740039200056	169.840018999996
34162.5	0.0999875999987125	368	satiated	stimuli/foods\cracker.jpg	1	3	1	cracker	1	M	9	0	38	0		0	0	169.890030399896	169.990017999895
34200	0.100017199991271	369	satiated	stimuli/foods\tomato.jpg	1	3	1	tomato	1	B	0	0	276	0		0	0	170.040027499897	170.140044699889
34237.5	0.09997220011428	370	satiated	stimuli/foods\spaghetti_with_meat_sauce.jpg	1	3	1	spaghetti_with_meat_sauce	1	T	14	0	267	0		0	0	170.19003749988	170.290009699995
34275	0.0999845000915229	371	satiated	stimuli/foods\avocado.jpg	1	3	1	avocado	1	J	6	0	5	0		0	0	170.340038799914	170.440023300005
34312.5	0.100007199915126	372	satiated	stimuli/non_foods\non-food_inanimate_nettle.jpg	1	3	1	non-food_inanimate_nettle	0	H	5	0	197	0		0	0	170.490035200026	170.590042399941
34350	0.0999773000366986	373	satiated	stimuli/non_foods\non-food_animate_caterpillar.jpg	1	3	1	non-food_animate_caterpillar	0	F	3	0	99	0		0	0	170.640034999931	170.740012299968
34387.5	0.0999854002147913	374	satiated	stimuli/foods\cupcake.jpg	1	3	1	cupcake	1	J	6	0	42	0		0	0	170.790022299858	170.890007700073
34425	0.0999855999834836	375	satiated	stimuli/foods\peas.jpg	1	3	1	peas	1	X	17	0	240	0		0	0	170.940022099996	171.040007699979
34462.5	0.0999970999546349	376	satiated	stimuli/non_foods\non-food_inanimate_briefcase.jpg	1	3	1	non-food_inanimate_briefcase	0	P	11	0	163	0		0	0	171.090028200066	171.19002530002
34500	0.0999830001965165	377	satiated	stimuli/foods\stew_with_potatoes_and_carrots.jpg	1	3	1	stew_with_potatoes_and_carrots	1	H	5	0	271	0		0	0	171.240028299857	171.340011300053
34537.5	0.0999857999850065	378	satiated	stimuli/non_foods\non-food_animate_eagle.jpg	1	3	1	non-food_animate_eagle	0	B	0	0	110	0		0	0	171.390026699984	171.490012499969
34575	0.0999712999910116	379	satiated	stimuli/foods\capsicum.jpg	1	3	1	capsicum	1	P	11	0	18	0		0	0	171.540024499875	171.639995799866
34612.5	0.0999773000366986	380	satiated	stimuli/foods\lime.jpg	1	3	1	lime	1	L	8	0	76	0		0	0	171.690022099996	171.789999400033
34650	0.0999562998767942	381	satiated	stimuli/non_foods\non-food_animate_millipede.jpg	1	3	1	non-food_animate_millipede	0	D	2	0	129	0		0	0	171.840041900054	171.93999819993
34687.5	0.0999695998616517	382	satiated	stimuli/foods\wafer.jpg	1	3	1	wafer	1	H	5	0	277	0		0	0	171.99000780005	172.089977399912
34725	0.0999962000641972	383	satiated	stimuli/non_foods\non-food_animate_seal.jpg	1	3	1	non-food_animate_seal	0	L	8	0	146	0		0	0	172.140006399946	172.24000260001
34762.5	0.099986300105229	384	satiated	stimuli/non_foods\non-food_animate_fox.jpg	1	3	1	non-food_animate_fox	0	Z	18	0	112	0		0	0	172.290015799925	172.39000210003
34800	0.099992600036785	385	satiated	stimuli/non_foods\non-food_animate_swan.jpg	1	3	1	non-food_animate_swan	0	B	0	0	152	0		0	0	172.440006699879	172.539999299916
34837.5	0.0999763000290841	386	satiated	stimuli/non_foods\non-food_animate_Asian_man.jpg	1	3	1	non-food_animate_Asian_man	0	W	16	0	88	0		0	0	172.590014999965	172.689991299994
34875	0.09997220011428	387	satiated	stimuli/foods\ice_cream.jpg	1	3	1	ice_cream	1	D	2	0	68	0		0	0	172.740000099875	172.839972299989
34912.5	0.0999837000854313	388	satiated	stimuli/non_foods\non-food_inanimate_orchid.jpg	1	3	1	non-food_inanimate_orchid	0	N	10	0	198	0		0	0	172.890025199857	172.990008899942
34950	0.0999773000366986	389	satiated	stimuli/foods\taco.jpg	1	3	1	taco	1	M	9	0	274	0		0	0	173.040008099983	173.139985400019
34987.5	0.0999855999834836	390	satiated	stimuli/foods\spinach.jpg	1	3	1	spinach	1	N	10	0	268	0		0	0	173.190006299876	173.289991899859
35025	0.0999733000062406	391	satiated	stimuli/non_foods\non-food_animate_parrot.jpg	1	3	1	non-food_animate_parrot	0	P	11	0	133	0		0	0	173.339998699958	173.439971999964
35062.5	0.100011200178415	392	satiated	stimuli/foods\fried_calamari.jpg	1	3	1	fried_calamari	1	V	15	0	50	0		0	0	173.489984799875	173.589996000053
35100	0.0999757000245154	393	satiated	stimuli/foods\spring_onions.jpg	1	3	1	spring_onions	1	R	12	0	269	0		0	0	173.64000159991	173.739977299934
35137.5	0.0999859999865294	394	satiated	stimuli/foods\eggplant.jpg	1	3	1	eggplant	1	S	13	0	46	0		0	0	173.789992499864	173.88997849985
35175	0.099988300120458	395	satiated	stimuli/foods\toasted_bread_with_tomatoes.jpg	1	3	1	toasted_bread_with_tomatoes	1	W	16	0	275	0		0	0	173.939987999853	174.039976299973
35212.5	0.0999811999499798	396	satiated	stimuli/foods\mortadella.jpg	1	3	1	mortadella	1	F	3	0	83	0		0	0	174.089986599982	174.189967799932
35250	0.100001400103793	397	satiated	stimuli/foods\brussel_sprouts.jpg	1	3	1	brussel_sprouts	1	Z	18	0	15	0		0	0	174.239972699899	174.339974100003
35287.5	0.0999851999804378	398	satiated	stimuli/non_foods\non-food_animate_sea_turtle.jpg	1	3	1	non-food_animate_sea_turtle	0	V	15	0	144	0		0	0	174.389987200033	174.489972400013
35325	0.0999818998388946	399	satiated	stimuli/foods\oyster.jpg	1	3	1	oyster	1	K	7	0	233	0		0	0	174.53998370003	174.639965599868
35362.5	0.0999664999544621	400	satiated	stimuli/foods\oven-roasted_tomatoes.jpg	1	3	1	oven-roasted_tomatoes	1	X	17	0	232	0		0	0	174.689983600052	174.789950100007
35400	0.099990899907425	401	satiated	stimuli/foods\grapefruits.jpg	1	3	1	grapefruits	1	L	8	0	59	0		0	0	174.839989600005	174.939980499912
35437.5	0.0999857999850065	402	satiated	stimuli/non_foods\non-food_animate_dolphin.jpg	1	3	1	non-food_animate_dolphin	0	K	7	0	106	0		0	0	174.989991900045	175.08997770003
35475	0.0999613001476973	403	satiated	stimuli/foods\blackberry.jpg	1	3	1	blackberry	1	R	12	0	11	0		0	0	175.139985899907	175.239947200054
35512.5	0.099984799977392	404	satiated	stimuli/non_foods\non-food_inanimate_soccer_ball.jpg	1	3	1	non-food_inanimate_soccer_ball	0	S	13	0	210	0		0	0	175.289999499917	175.389984299894
35550	0.0999640000518411	405	satiated	stimuli/foods\garlic.jpg	1	3	1	garlic	1	K	7	0	56	0		0	0	175.440005399985	175.539969400037
35587.5	0.0999853000976145	406	satiated	stimuli/foods\waffle.jpg	1	3	1	waffle	1	R	12	0	278	0		0	0	175.589980599936	175.689965900034
35625	0.0999818998388946	407	satiated	stimuli/foods\pasta_carbonara.jpg	1	3	1	pasta_carbonara	1	G	4	0	236	0		0	0	175.739978600061	175.839960499899
35662.5	0.0999853999819607	408	satiated	stimuli/foods\fruit_flan.jpg	1	3	1	fruit_flan	1	M	9	0	53	0		0	0	175.88997150003	175.989956900012
35700	0.0999874998815358	409	satiated	stimuli/non_foods\non-food_inanimate_fire_extinguisher.jpg	1	3	1	non-food_inanimate_fire_extinguisher	0	K	7	0	181	0		0	0	176.039968600031	176.139956099913
35737.5	0.0999982000794262	410	satiated	stimuli/foods\artichoke.jpg	1	3	1	artichoke	1	X	17	0	3	0		0	0	176.189961199882	176.289959399961
35775	0.0999982999637723	411	satiated	stimuli/non_foods\non-food_inanimate_fern.jpg	1	3	1	non-food_inanimate_fern	0	P	11	0	180	0		0	0	176.339966899948	176.439965199912
35812.5	0.0999775000382215	412	satiated	stimuli/non_foods\non-food_animate_Causasian_man.jpg	1	3	1	non-food_animate_Causasian_man	0	K	7	0	89	0		0	0	176.489985199878	176.589962699916
35850	0.0999853999819607	413	satiated	stimuli/foods\green_beans.jpg	1	3	1	green_beans	1	W	16	0	61	0		0	0	176.63996229996	176.739947699942
35887.5	0.0999849000945687	414	satiated	stimuli/foods\pumpkin.jpg	1	3	1	pumpkin	1	L	8	0	250	0		0	0	176.789961299859	176.889946199954
35925	0.100005500018597	415	satiated	stimuli/foods\donut.jpg	1	3	1	donut	1	K	7	0	44	0		0	0	176.9399615	177.039967000019
35962.5	0.0999485000502318	416	satiated	stimuli/non_foods\non-food_animate_skunk.jpg	1	3	1	non-food_animate_skunk	0	R	12	0	147	0		0	0	177.089984499849	177.1899329999
36000	0.0999835999682546	417	satiated	stimuli/foods\baked_lamb_with_potatoes.jpg	1	3	1	baked_lamb_with_potatoes	1	W	16	0	8	0		0	0	177.239967799978	177.339951399947
36037.5	0.0999754001386464	418	satiated	stimuli/non_foods\non-food_animate_butterfly.jpg	1	3	1	non-food_animate_butterfly	0	P	11	0	96	0		0	0	177.389964799862	177.489940200001
36075	0.0999829999636859	419	satiated	stimuli/non_foods\non-food_inanimate_cupboard.jpg	1	3	1	non-food_inanimate_cupboard	0	N	10	0	177	0		0	0	177.539954900043	177.639937900007
37825	0.0999414999969304	420	satiated	stimuli/foods\pork_and_rice.jpg	1	4	1	pork_and_rice	1	D	2	0	245	0		0	0	184.539939000038	184.639880500035
37862.5	0.0999846998602152	421	satiated	stimuli/non_foods\non-food_animate_cheetah.jpg	1	4	1	non-food_animate_cheetah	0	V	15	0	100	0		0	0	184.689890800044	184.789875499904
37900	0.0999837999697775	422	satiated	stimuli/foods\rice.jpg	1	4	1	rice	1	K	7	0	257	0		0	0	184.839892199961	184.939875999931
37937.5	0.0999833999667317	423	satiated	stimuli/foods\risotto_with_zucchini.jpg	1	4	1	risotto_with_zucchini	1	J	6	0	260	0		0	0	184.989889099961	185.089872499928
37975	0.0999859001021832	424	satiated	stimuli/non_foods\non-food_inanimate_tree.jpg	1	4	1	non-food_inanimate_tree	0	B	0	0	223	0		0	0	185.139886899851	185.239872799953
38012.5	0.099982799962163	425	satiated	stimuli/non_foods\non-food_animate_killer_whale.jpg	1	4	1	non-food_animate_killer_whale	0	H	5	0	123	0		0	0	185.289889700012	185.389872499974
38050	0.0999811000656337	426	satiated	stimuli/foods\dates.jpg	1	4	1	dates	1	T	14	0	43	0		0	0	185.439885699889	185.539866799954
38087.5	0.0999692000914365	427	satiated	stimuli/foods\chocolate_bar.jpg	1	4	1	chocolate_bar	1	F	3	0	26	0		0	0	185.589902299922	185.689871500013
38125	0.0999842998571694	428	satiated	stimuli/non_foods\non-food_inanimate_folding_chair.jpg	1	4	1	non-food_inanimate_folding_chair	0	M	9	0	182	0		0	0	185.739883000031	185.839867299888
38162.5	0.0999849999789149	429	satiated	stimuli/non_foods\non-food_inanimate_ring.jpg	1	4	1	non-food_inanimate_ring	0	N	10	0	203	0		0	0	185.889877900016	185.989862899994
38200	0.0999909997917712	430	satiated	stimuli/foods\onion.jpg	1	4	1	onion	1	K	7	0	229	0		0	0	186.03987940005	186.139870399842
38237.5	0.100001000100747	431	satiated	stimuli/foods\kiwi.jpg	1	4	1	kiwi	1	B	0	0	69	0		0	0	186.189890499925	186.289891500026
38275	0.099962400039658	432	satiated	stimuli/foods\rockmelon.jpg	1	4	1	rockmelon	1	P	11	0	262	0		0	0	186.339890999952	186.439853399992
38312.5	0.0999843999743462	433	satiated	stimuli/foods\chocolate_pralines.jpg	1	4	1	chocolate_pralines	1	C	1	0	28	0		0	0	186.489867599914	186.589851999888
38350	0.0999733000062406	434	satiated	stimuli/foods\mushroom.jpg	1	4	1	mushroom	1	J	6	0	85	0		0	0	186.639861800009	186.739835100016
38387.5	0.0999895001295954	435	satiated	stimuli/foods\cauliflower.jpg	1	4	1	cauliflower	1	F	3	0	20	0		0	0	186.789870299865	186.889859799994
38425	0.0999809999484569	436	satiated	stimuli/non_foods\non-food_inanimate_tent.jpg	1	4	1	non-food_inanimate_tent	0	S	13	0	219	0		0	0	186.939872100018	187.039853099966
38462.5	0.0999636999331415	437	satiated	stimuli/foods\baked_cod_with_carrots_and_green_beans.jpg	1	4	1	baked_cod_with_carrots_and_green_beans	1	K	7	0	7	0		0	0	187.089867000002	187.189830699936
38500	0.100007399916649	438	satiated	stimuli/non_foods\non-food_animate_alligator.jpg	1	4	1	non-food_animate_alligator	0	Z	18	0	90	0		0	0	187.239867100026	187.339874499943
38537.5	0.0999910000246018	439	satiated	stimuli/foods\grilled_chicken_breast.jpg	1	4	1	grilled_chicken_breast	1	S	13	0	63	0		0	0	187.389876199886	187.489867199911
38575	0.0999837000854313	440	satiated	stimuli/foods\gnocchi.jpg	1	4	1	gnocchi	1	W	16	0	58	0		0	0	187.539867899846	187.639851599932
38612.5	0.0999843999743462	441	satiated	stimuli/foods\pineapple.jpg	1	4	1	pineapple	1	C	1	0	243	0		0	0	187.689863499952	187.789847899927
38650	0.0999882000032812	442	satiated	stimuli/non_foods\non-food_inanimate_protractor.jpg	1	4	1	non-food_inanimate_protractor	0	H	5	0	201	0		0	0	187.839859799948	187.939847999951
38687.5	0.0999795999377966	443	satiated	stimuli/foods\strawberry.jpg	1	4	1	strawberry	1	K	7	0	272	0		0	0	187.989881000016	188.089860599954
38725	0.0999576998874545	444	satiated	stimuli/non_foods\non-food_animate_duck.jpg	1	4	1	non-food_animate_duck	0	P	11	0	109	0		0	0	188.139883100055	188.239840799943
38762.5	0.0999940000474453	445	satiated	stimuli/non_foods\non-food_animate_mammoth.jpg	1	4	1	non-food_animate_mammoth	0	F	3	0	128	0		0	0	188.289852499962	188.389846500009
38800	0.0999814998358488	446	satiated	stimuli/foods\steak.jpg	1	4	1	steak	1	R	12	0	270	0		0	0	188.439856800018	188.539838299854
38837.5	0.0999839000869542	447	satiated	stimuli/non_foods\non-food_animate_sea_lion.jpg	1	4	1	non-food_animate_sea_lion	0	T	14	0	143	0		0	0	188.589853199897	188.689837099984
38875	0.0999857999850065	448	satiated	stimuli/foods\cucumber.jpg	1	4	1	cucumber	1	Z	18	0	41	0		0	0	188.739854600048	188.839840400033
38912.5	0.0999842998571694	449	satiated	stimuli/non_foods\non-food_animate_giraffe.jpg	1	4	1	non-food_animate_giraffe	0	C	1	0	115	0		0	0	188.88985050004	188.989834799897
38950	0.100010699825361	450	satiated	stimuli/non_foods\non-food_inanimate_buds.jpg	1	4	1	non-food_inanimate_buds	0	Z	18	0	166	0		0	0	189.03984620003	189.139856899856
38987.5	0.0999873999971896	451	satiated	stimuli/non_foods\non-food_animate_horse.jpg	1	4	1	non-food_animate_horse	0	D	2	0	119	0		0	0	189.189865499968	189.289852899965
39025	0.0999869001097977	452	satiated	stimuli/foods\swordfish.jpg	1	4	1	swordfish	1	L	8	0	273	0		0	0	189.339842099929	189.439829000039
39062.5	0.0999881001189351	453	satiated	stimuli/non_foods\non-food_inanimate_bicycle.jpg	1	4	1	non-food_inanimate_bicycle	0	P	11	0	161	0		0	0	189.489844299853	189.589832399972
39100	0.0999884000048041	454	satiated	stimuli/foods\apple.jpg	1	4	1	apple	1	Z	18	0	1	0		0	0	189.639842599863	189.739830999868
39137.5	0.0999559001065791	455	satiated	stimuli/non_foods\non-food_animate_donkey.jpg	1	4	1	non-food_animate_donkey	0	T	14	0	107	0		0	0	189.789871299872	189.889827199979
39175	0.0999667998403311	456	satiated	stimuli/foods\hotdog.jpg	1	4	1	hotdog	1	S	13	0	67	0		0	0	189.93985840003	190.03982519987
39212.5	0.0999857999850065	457	satiated	stimuli/foods\minestrone_soup.jpg	1	4	1	minestrone_soup	1	B	0	0	82	0		0	0	190.089835199993	190.189820999978
39250	0.0999861001037061	458	satiated	stimuli/non_foods\non-food_animate_ram.jpg	1	4	1	non-food_animate_ram	0	S	13	0	140	0		0	0	190.239836199908	190.339822300011
39287.5	0.0999873999971896	459	satiated	stimuli/foods\pomegranate.jpg	1	4	1	pomegranate	1	J	6	0	244	0		0	0	190.389834499918	190.489821899915
39325	0.0999838998541236	460	satiated	stimuli/foods\pear.jpg	1	4	1	pear	1	V	15	0	239	0		0	0	190.539835100062	190.639818999916
39362.5	0.0999859001021832	461	satiated	stimuli/foods\salami.jpg	1	4	1	salami	1	J	6	0	263	0		0	0	190.689833599841	190.789819499943
39400	0.0999815000686795	462	satiated	stimuli/foods\brownie.jpg	1	4	1	brownie	1	S	13	0	14	0		0	0	190.839829199947	190.939810700016
39437.5	0.0999833999667317	463	satiated	stimuli/foods\rice_cake.jpg	1	4	1	rice_cake	1	G	4	0	258	0		0	0	190.989823800046	191.089807200013
39475	0.0999628999270499	464	satiated	stimuli/non_foods\non-food_inanimate_headphones.jpg	1	4	1	non-food_inanimate_headphones	0	H	5	0	188	0		0	0	191.139829199994	191.239792099921
39512.5	0.0999802001751959	465	satiated	stimuli/non_foods\non-food_animate_porcupine.jpg	1	4	1	non-food_animate_porcupine	0	D	2	0	138	0		0	0	191.289826999884	191.389807200059
39550	0.0999888000078499	466	satiated	stimuli/non_foods\non-food_animate_gorilla.jpg	1	4	1	non-food_animate_gorilla	0	B	0	0	116	0		0	0	191.439817599952	191.53980639996
39587.5	0.0999848998617381	467	satiated	stimuli/non_foods\non-food_inanimate_waterlily.jpg	1	4	1	non-food_inanimate_waterlily	0	Z	18	0	226	0		0	0	191.589818899985	191.689803799847
39625	0.0999980000779033	468	satiated	stimuli/non_foods\non-food_animate_dragonfly.jpg	1	4	1	non-food_animate_dragonfly	0	X	17	0	108	0		0	0	191.739813499851	191.839811499929
39662.5	0.100000099977478	469	satiated	stimuli/non_foods\non-food_animate_iguana.jpg	1	4	1	non-food_animate_iguana	0	T	14	0	121	0		0	0	191.889805099927	191.989805199904
39700	0.0999869999941438	470	satiated	stimuli/non_foods\non-food_animate_ladybug.jpg	1	4	1	non-food_animate_ladybug	0	M	9	0	124	0		0	0	192.039817200042	192.139804200036
39737.5	0.0999890000093728	471	satiated	stimuli/non_foods\non-food_inanimate_watering_can.jpg	1	4	1	non-food_inanimate_watering_can	0	T	14	0	225	0		0	0	192.189815700054	192.289804700064
39775	0.0999829999636859	472	satiated	stimuli/non_foods\non-food_animate_green_bug.jpg	1	4	1	non-food_animate_green_bug	0	S	13	0	118	0		0	0	192.339815899963	192.439798899926
39812.5	0.0999878998845816	473	satiated	stimuli/foods\broccoli.jpg	1	4	1	broccoli	1	C	1	0	13	0		0	0	192.489815199981	192.589803099865
39850	0.0999843999743462	474	satiated	stimuli/foods\celery.jpg	1	4	1	celery	1	Z	18	0	21	0		0	0	192.639815199887	192.739799599862
39887.5	0.0999838998541236	475	satiated	stimuli/non_foods\non-food_inanimate_pine_cone.jpg	1	4	1	non-food_inanimate_pine_cone	0	B	0	0	200	0		0	0	192.789811199997	192.889795099851
39925	0.0999910000246018	476	satiated	stimuli/non_foods\non-food_inanimate_teddy_bear.jpg	1	4	1	non-food_inanimate_teddy_bear	0	M	9	0	218	0		0	0	192.939807999879	193.039798999904
39962.5	0.0999775000382215	477	satiated	stimuli/non_foods\non-food_animate_owl.jpg	1	4	1	non-food_animate_owl	0	F	3	0	132	0		0	0	193.089808400022	193.18978590006
40000	0.099988600006327	478	satiated	stimuli/non_foods\non-food_inanimate_guitar.jpg	1	4	1	non-food_inanimate_guitar	0	C	1	0	185	0		0	0	193.239798799856	193.339787399862
40037.5	0.0999429000075907	479	satiated	stimuli/foods\chilli.jpg	1	4	1	chilli	1	T	14	0	25	0		0	0	193.389851500047	193.489794400055
40075	0.0999803999438882	480	satiated	stimuli/non_foods\non-food_inanimate_chair.jpg	1	4	1	non-food_inanimate_chair	0	W	16	0	172	0		0	0	193.539804799948	193.639785199892
40112.5	0.0999880000017583	481	satiated	stimuli/non_foods\non-food_inanimate_stapler.jpg	1	4	1	non-food_inanimate_stapler	0	M	9	0	213	0		0	0	193.68980120006	193.789789200062
40150	0.0999853999819607	482	satiated	stimuli/non_foods\non-food_inanimate_jeans.jpg	1	4	1	non-food_inanimate_jeans	0	P	11	0	191	0		0	0	193.839803899871	193.939789299853
40187.5	0.0999867001082748	483	satiated	stimuli/non_foods\non-food_animate_llama.jpg	1	4	1	non-food_animate_llama	0	V	15	0	127	0		0	0	193.989797299961	194.089784000069
40225	0.0999900999013335	484	satiated	stimuli/foods\bagel.jpg	1	4	1	bagel	1	W	16	0	6	0		0	0	194.139794999966	194.239785099868
40262.5	0.0999803999438882	485	satiated	stimuli/foods\brie.jpg	1	4	1	brie	1	G	4	0	12	0		0	0	194.289799599908	194.389779999852
40300	0.0999932000413537	486	satiated	stimuli/foods\coffee_beans.jpg	1	4	1	coffee_beans	1	X	17	0	34	0		0	0	194.43980589998	194.539799100021
40337.5	0.0999899001326412	487	satiated	stimuli/foods\mango.jpg	1	4	1	mango	1	C	1	0	80	0		0	0	194.589793599909	194.689783500042
40375	0.0999826998449862	488	satiated	stimuli/non_foods\non-food_animate_young_girl.jpg	1	4	1	non-food_animate_young_girl	0	K	7	0	157	0		0	0	194.739792200038	194.839774899883
40412.5	0.0999892000108957	489	satiated	stimuli/foods\cooked_prawn.jpg	1	4	1	cooked_prawn	1	V	15	0	36	0		0	0	194.889787399909	194.989776599919
40450	0.100007499800995	490	satiated	stimuli/foods\red_cabbage.jpg	1	4	1	red_cabbage	1	H	5	0	256	0		0	0	195.039788600057	195.139796099858
40487.5	0.0999400999862701	491	satiated	stimuli/foods\beetroots.jpg	1	4	1	beetroots	1	P	11	0	10	0		0	0	195.189832200063	195.28977230005
40525	0.0999839999713004	492	satiated	stimuli/non_foods\non-food_inanimate_chandelier.jpg	1	4	1	non-food_inanimate_chandelier	0	G	4	0	173	0		0	0	195.339790399885	195.439774399856
40562.5	0.0999775000382215	493	satiated	stimuli/foods\cannoli.jpg	1	4	1	cannoli	1	S	13	0	17	0		0	0	195.48978319997	195.589760700008
40600	0.0999843999743462	494	satiated	stimuli/non_foods\non-food_inanimate_nailpolish.jpg	1	4	1	non-food_inanimate_nailpolish	0	V	15	0	195	0		0	0	195.639773200033	195.739757600008
40637.5	0.100008999928832	495	satiated	stimuli/foods\fennel.jpg	1	4	1	fennel	1	F	3	0	47	0		0	0	195.789759200066	195.889768199995
40675	0.0999894000124186	496	satiated	stimuli/foods\clams.jpg	1	4	1	clams	1	B	0	0	32	0		0	0	195.939778199885	196.039767599897
40712.5	0.0999858998693526	497	satiated	stimuli/foods\hamburger.jpg	1	4	1	hamburger	1	H	5	0	64	0		0	0	196.089782600058	196.189768499928
40750	0.0999714999925345	498	satiated	stimuli/foods\papaya.jpg	1	4	1	papaya	1	C	1	0	235	0		0	0	196.23979069991	196.339762199903
40787.5	0.0999892000108957	499	satiated	stimuli/non_foods\non-food_inanimate_highlighter.jpg	1	4	1	non-food_inanimate_highlighter	0	K	7	0	189	0		0	0	196.389776099939	196.48976529995
40825	0.0999845999758691	500	satiated	stimuli/foods\pea_pod.jpg	1	4	1	pea_pod	1	H	5	0	237	0		0	0	196.539774399949	196.639758999925
40862.5	0.0999838998541236	501	satiated	stimuli/foods\figs.jpg	1	4	1	figs	1	L	8	0	48	0		0	0	196.689771000063	196.789754899917
40900	0.100008100038394	502	satiated	stimuli/foods\cereal.jpg	1	4	1	cereal	1	J	6	0	22	0		0	0	196.839792199899	196.939800299937
40937.5	0.0999596999026835	503	satiated	stimuli/non_foods\non-food_animate_baby_sitting.jpg	1	4	1	non-food_animate_baby_sitting	0	W	16	0	93	0		0	0	196.989794400055	197.089754099958
40975	0.0999640999361873	504	satiated	stimuli/non_foods\non-food_animate_frog.jpg	1	4	1	non-food_animate_frog	0	D	2	0	113	0		0	0	197.139775600052	197.239739699988
41012.5	0.100003700004891	505	satiated	stimuli/foods\lemon_meringue_pie.jpg	1	4	1	lemon_meringue_pie	1	N	10	0	73	0		0	0	197.28974869987	197.389752399875
41050	0.099986599991098	506	satiated	stimuli/non_foods\non-food_inanimate_suitcase.jpg	1	4	1	non-food_inanimate_suitcase	0	I	21	1	215	0		0	0	197.439764099894	197.539750699885
41087.5	0.0999884000048041	507	satiated	stimuli/foods\ginger_root.jpg	1	4	1	ginger_root	1	Z	18	0	57	0		0	0	197.589762799907	197.689751199912
41125	0.0999837999697775	508	satiated	stimuli/foods\chocolate_chip_cookies.jpg	1	4	1	chocolate_chip_cookies	1	T	14	0	27	0		0	0	197.73976320005	197.83974700002
41162.5	0.0999856998678297	509	satiated	stimuli/non_foods\non-food_inanimate_couch.jpg	1	4	1	non-food_inanimate_couch	0	H	5	0	176	0		0	0	197.889760500053	197.989746199921
41200	0.0999705998692662	510	satiated	stimuli/foods\potato_and_green_bean_salad.jpg	1	4	1	potato_and_green_bean_salad	1	B	0	0	246	0		0	0	198.039771300042	198.139741899911
41237.5	0.0999867999926209	511	satiated	stimuli/foods\green_olives.jpg	1	4	1	green_olives	1	F	3	0	62	0		0	0	198.189757999964	198.289744799957
41275	0.0999878000002354	512	satiated	stimuli/non_foods\non-food_inanimate_scissors.jpg	1	4	1	non-food_inanimate_scissors	0	R	12	0	205	0		0	0	198.339758499991	198.439746299991
41312.5	0.0999853000976145	513	satiated	stimuli/foods\savory_pie.jpg	1	4	1	savory_pie	1	F	3	0	265	0		0	0	198.489752899855	198.589738199953
41350	0.100003300001845	514	satiated	stimuli/non_foods\non-food_animate_runner.jpg	1	4	1	non-food_animate_runner	0	W	16	0	142	0		0	0	198.639765999978	198.73976929998
41387.5	0.0999692000914365	515	satiated	stimuli/non_foods\non-food_animate_snail.jpg	1	4	1	non-food_animate_snail	0	J	6	0	149	0		0	0	198.789767599897	198.889736799989
41425	0.0999896998982877	516	satiated	stimuli/foods\cinnamon_sroll.jpg	1	4	1	cinnamon_sroll	1	Z	18	0	31	0		0	0	198.939744099975	199.039733799873
41462.5	0.0999855999834836	517	satiated	stimuli/foods\lettuce.jpg	1	4	1	lettuce	1	M	9	0	75	0		0	0	199.089752600063	199.189738200046
41500	0.0999859001021832	518	satiated	stimuli/foods\raisins.jpg	1	4	1	raisins	1	K	7	0	252	0		0	0	199.239747999934	199.339733900037
41537.5	0.0999893001280725	519	satiated	stimuli/non_foods\non-food_inanimate_toilet.jpg	1	4	1	non-food_inanimate_toilet	0	H	5	0	220	0		0	0	199.389746099943	199.489735400071
41575	0.0999837999697775	520	satiated	stimuli/foods\cream_donuts.jpg	1	4	1	cream_donuts	1	T	14	0	39	0		0	0	199.539747599978	199.639731399948
41612.5	0.0999835000839084	521	satiated	stimuli/non_foods\non-food_inanimate_hay.jpg	1	4	1	non-food_inanimate_hay	0	Z	18	0	187	0		0	0	199.689742799848	199.789726299932
41650	0.0999802998267114	522	satiated	stimuli/foods\roasted_chicken.jpg	1	4	1	roasted_chicken	1	N	10	0	261	1	a	0	0	199.839749000035	199.939729299862
41687.5	0.0999828998465091	523	satiated	stimuli/non_foods\non-food_animate_young_boy.jpg	1	4	1	non-food_animate_young_boy	0	D	2	0	156	0		0	0	199.989742300007	200.089725199854
41725	0.0999829000793397	524	satiated	stimuli/foods\fruit_pie.jpg	1	4	1	fruit_pie	1	T	14	0	54	0		0	0	200.139731199946	200.239714100026
41762.5	0.0999789000488818	525	satiated	stimuli/non_foods\non-food_inanimate_bowling_ball.jpg	1	4	1	non-food_inanimate_bowling_ball	0	J	6	0	162	0		0	0	200.289741199929	200.389720099978
41800	0.0999733000062406	526	satiated	stimuli/non_foods\non-food_animate_polar_bear.jpg	1	4	1	non-food_animate_polar_bear	0	S	13	0	137	0		0	0	200.439738000045	200.539711300051
41837.5	0.0999790001660585	527	satiated	stimuli/foods\fries.jpg	1	4	1	fries	1	Z	18	0	52	0		0	0	200.589728799881	200.689707800047
41875	0.100008300039917	528	satiated	stimuli/foods\grapes.jpg	1	4	1	grapes	1	J	6	0	60	0		0	0	200.739713500021	200.839721800061
41912.5	0.0999851999804378	529	satiated	stimuli/non_foods\non-food_animate_bat.jpg	1	4	1	non-food_animate_bat	0	D	2	0	94	0		0	0	200.88973090006	200.989716100041
41950	0.0999916000291705	530	satiated	stimuli/non_foods\non-food_inanimate_gloves.jpg	1	4	1	non-food_inanimate_gloves	0	C	1	0	183	0		0	0	201.039725899929	201.139717499958
41987.5	0.0999849000945687	531	satiated	stimuli/non_foods\non-food_inanimate_skirt.jpg	1	4	1	non-food_inanimate_skirt	0	X	17	0	209	0		0	0	201.189728299854	201.289713199949
42025	0.0999920999165624	532	satiated	stimuli/non_foods\non-food_inanimate_bush.jpg	1	4	1	non-food_inanimate_bush	0	R	12	0	167	0		0	0	201.339720800053	201.43971289997
42062.5	0.100005300017074	533	satiated	stimuli/foods\chestnut.jpg	1	4	1	chestnut	1	A	19	1	24	0		0	0	201.489726600004	201.589731900021
42100	0.0999693998601288	534	satiated	stimuli/foods\corncob.jpg	1	4	1	corncob	1	B	0	0	37	0		0	0	201.639739400009	201.739708799869
42137.5	0.0999893001280725	535	satiated	stimuli/foods\cabbage.jpg	1	4	1	cabbage	1	K	7	0	16	0		0	0	201.789723099908	201.889712400036
42175	0.099956399993971	536	satiated	stimuli/foods\raw_ham.jpg	1	4	1	raw_ham	1	D	2	0	253	0		0	0	201.939726399956	202.03968279995
42212.5	0.0999829999636859	537	satiated	stimuli/foods\potatoes.jpg	1	4	1	potatoes	1	R	12	0	248	1	a	0.593168099876493	1	202.089723099954	202.189706099918
42250	0.0999678999651223	538	satiated	stimuli/non_foods\non-food_inanimate_toy_airplane.jpg	1	4	1	non-food_inanimate_toy_airplane	0	L	8	0	222	1	a	0.750179499853402	1	202.239737699972	202.339705599938
42287.5	0.0999817999545485	539	satiated	stimuli/foods\meatballs.jpg	1	4	1	meatballs	1	V	15	0	81	0		0	0	202.389713200042	202.489694999997
42325	0.0999878998845816	540	satiated	stimuli/non_foods\non-food_animate_penguin.jpg	1	4	1	non-food_animate_penguin	0	R	12	0	135	0		0	0	202.539714300074	202.639702199958
42362.5	0.0999859999865294	541	satiated	stimuli/foods\pancakes.jpg	1	4	1	pancakes	1	D	2	0	234	0		0	0	202.689715399873	202.789701399859
42400	0.099984799977392	542	satiated	stimuli/foods\watermelon.jpg	1	4	1	watermelon	1	F	3	0	279	0		0	0	202.839713099878	202.939697899856
42437.5	0.0999952000565827	543	satiated	stimuli/non_foods\non-food_animate_squirrel.jpg	1	4	1	non-food_animate_squirrel	0	V	15	0	150	0		0	0	202.989709099988	203.089704300044
42475	0.0999851000960916	544	satiated	stimuli/non_foods\non-food_inanimate_moss.jpg	1	4	1	non-food_inanimate_moss	0	W	16	0	194	0		0	0	203.139712099917	203.239697200013
42512.5	0.100019600009546	545	satiated	stimuli/foods\asparagus.jpg	1	4	1	asparagus	1	D	2	0	4	0		0	0	203.289683999959	203.389703599969
42550	0.0999744997825474	546	satiated	stimuli/non_foods\non-food_inanimate_bucket.jpg	1	4	1	non-food_inanimate_bucket	0	X	17	0	165	0		0	0	203.439710400067	203.53968489985
42587.5	0.0999960000626743	547	satiated	stimuli/foods\lentils.jpg	1	4	1	lentils	1	W	16	0	74	0		0	0	203.589695099974	203.689691100037
42625	0.0999857001006603	548	satiated	stimuli/non_foods\non-food_inanimate_shell.jpg	1	4	1	non-food_inanimate_shell	0	Z	18	0	206	0		0	0	203.739704899956	203.839690600056
42662.5	0.0999888998921961	549	satiated	stimuli/non_foods\non-food_animate_seahorse.jpg	1	4	1	non-food_animate_seahorse	0	H	5	0	145	0		0	0	203.889701300068	203.98969019996
42700	0.0999574000015855	550	satiated	stimuli/non_foods\non-food_inanimate_horn.jpg	1	4	1	non-food_inanimate_horn	0	T	14	0	190	0		0	0	204.03971859999	204.139675999992
42737.5	0.0999890000093728	551	satiated	stimuli/non_foods\non-food_inanimate_button.jpg	1	4	1	non-food_inanimate_button	0	X	17	0	168	0		0	0	204.189687999897	204.289676999906
42775	0.100000000093132	552	satiated	stimuli/foods\pepperoni_pizza.jpg	1	4	1	pepperoni_pizza	1	L	8	0	241	0		0	0	204.339685099898	204.439685099991
42812.5	0.0999851000960916	553	satiated	stimuli/foods\linguine_with_clams.jpg	1	4	1	linguine_with_clams	1	C	1	0	77	0		0	0	204.489695899887	204.589680999983
42850	0.0999884000048041	554	satiated	stimuli/foods\cinnamon.jpg	1	4	1	cinnamon	1	P	11	0	30	0		0	0	204.639693500008	204.739681900013
42887.5	0.0999821999575943	555	satiated	stimuli/non_foods\non-food_inanimate_table.jpg	1	4	1	non-food_inanimate_table	0	W	16	0	217	0		0	0	204.789694299921	204.889676499879
42925	0.0999902000185102	556	satiated	stimuli/non_foods\non-food_animate_tortoise.jpg	1	4	1	non-food_animate_tortoise	0	J	6	0	153	0		0	0	204.93969099992	205.039681199938
42962.5	0.0999833000823855	557	satiated	stimuli/non_foods\non-food_inanimate_rack.jpg	1	4	1	non-food_inanimate_rack	0	H	5	0	202	0		0	0	205.08969329996	205.189676600043
43000	0.0999894998967648	558	satiated	stimuli/foods\museli_bars.jpg	1	4	1	museli_bars	1	K	7	0	84	0		0	0	205.239685300039	205.339674799936
43037.5	0.0999857999850065	559	satiated	stimuli/non_foods\non-food_inanimate_alarm_clock.jpg	1	4	1	non-food_inanimate_alarm_clock	0	L	8	0	158	0		0	0	205.38968849997	205.489674299955
48766.5	0.0999514998402447	560	satiated	stimuli/non_foods\non-food_animate_lion.jpg	1	5	1	non-food_animate_lion	0	F	3	0	125	0		0	0	228.306164500071	228.406115999911
48804	0.0999882000032812	561	satiated	stimuli/non_foods\non-food_animate_baby_crawling.jpg	1	5	1	non-food_animate_baby_crawling	0	D	2	0	92	0		0	0	228.456129299942	228.556117499946
48841.5	0.099988600006327	562	satiated	stimuli/non_foods\non-food_inanimate_grass.jpg	1	5	1	non-food_inanimate_grass	0	B	0	0	184	0		0	0	228.60613069986	228.706119299866
48879	0.0999875999987125	563	satiated	stimuli/foods\cauliflower.jpg	1	5	1	cauliflower	1	Z	18	0	20	0		0	0	228.75612639985	228.856113999849
48916.5	0.099986599991098	564	satiated	stimuli/non_foods\non-food_animate_yellow_bug.jpg	1	5	1	non-food_animate_yellow_bug	0	C	1	0	155	0		0	0	228.906125699868	229.00611229986
48954	0.0999829999636859	565	satiated	stimuli/non_foods\non-food_animate_sea_turtle.jpg	1	5	1	non-food_animate_sea_turtle	0	N	10	0	144	0		0	0	229.056126500014	229.156109499978
48991.5	0.100006900029257	566	satiated	stimuli/foods\mushroom.jpg	1	5	1	mushroom	1	Z	18	0	85	0		0	0	229.206121499883	229.306128399912
49029	0.0999733998905867	567	satiated	stimuli/non_foods\non-food_inanimate_horn.jpg	1	5	1	non-food_inanimate_horn	0	M	9	0	190	0		0	0	229.356132599991	229.456105999881
49066.5	0.0999859999865294	568	satiated	stimuli/foods\minestrone_soup.jpg	1	5	1	minestrone_soup	1	B	0	0	82	0		0	0	229.506119000027	229.606105000013
49104	0.0999844998586923	569	satiated	stimuli/non_foods\non-food_inanimate_chandelier.jpg	1	5	1	non-food_inanimate_chandelier	0	P	11	0	173	0		0	0	229.656121300068	229.756105799926
49141.5	0.0999865001067519	570	satiated	stimuli/non_foods\non-food_inanimate_rope.jpg	1	5	1	non-food_inanimate_rope	0	Z	18	0	204	0		0	0	229.806116099935	229.906102600042
49179	0.0999871001113206	571	satiated	stimuli/foods\swordfish.jpg	1	5	1	swordfish	1	O	22	1	273	0		0	0	229.956139399903	230.056126500014
49216.5	0.0999637001659721	572	satiated	stimuli/non_foods\non-food_inanimate_teddy_bear.jpg	1	5	1	non-food_inanimate_teddy_bear	0	D	2	0	218	0		0	0	230.1061358999	230.206099600065
49254	0.0999912000261247	573	satiated	stimuli/non_foods\non-food_animate_hummingbird.jpg	1	5	1	non-food_animate_hummingbird	0	B	0	0	120	0		0	0	230.256110099843	230.356101299869
49291.5	0.0999902000185102	574	satiated	stimuli/non_foods\non-food_inanimate_stoplight.jpg	1	5	1	non-food_inanimate_stoplight	0	F	3	0	214	0		0	0	230.40611059987	230.506100799888
49329	0.0999912999104708	575	satiated	stimuli/foods\pancakes.jpg	1	5	1	pancakes	1	S	13	0	234	0		0	0	230.556113000028	230.656104299938
49366.5	0.100006500026211	576	satiated	stimuli/foods\spring_onions.jpg	1	5	1	spring_onions	1	R	12	0	269	1	a	0.743373499950394	1	230.70608789986	230.806094399886
49404	0.0999809000641108	577	satiated	stimuli/foods\mortadella.jpg	1	5	1	mortadella	1	B	0	0	83	0		0	0	230.856113599846	230.95609449991
49441.5	0.0999862998723984	578	satiated	stimuli/non_foods\non-food_inanimate_suitcase.jpg	1	5	1	non-food_inanimate_suitcase	0	X	17	0	215	0		0	0	231.006104900036	231.106091199908
49479	0.0999670000746846	579	satiated	stimuli/non_foods\non-food_inanimate_canoe.jpg	1	5	1	non-food_inanimate_canoe	0	V	15	0	170	0		0	0	231.156124399975	231.25609140005
49516.5	0.0999832998495549	580	satiated	stimuli/non_foods\non-food_animate_Asian_man.jpg	1	5	1	non-food_animate_Asian_man	0	J	6	0	88	0		0	0	231.306103700073	231.406086999923
49554	0.0999821999575943	581	satiated	stimuli/foods\honey.jpg	1	5	1	honey	1	R	12	0	66	0		0	0	231.45610229997	231.556084499927
49591.5	0.0999690999742597	582	satiated	stimuli/foods\lemon.jpg	1	5	1	lemon	1	M	9	0	72	0		0	0	231.606106899912	231.706075999886
49629	0.0999855999834836	583	satiated	stimuli/non_foods\non-food_inanimate_cactus_pot_plant.jpg	1	5	1	non-food_inanimate_cactus_pot_plant	0	J	6	0	169	0		0	0	231.756094499957	231.85608009994
49666.5	0.0999841000884771	584	satiated	stimuli/non_foods\non-food_inanimate_highlighter.jpg	1	5	1	non-food_inanimate_highlighter	0	H	5	0	189	0		0	0	231.90609059995	232.006074700039
49704	0.0999844002071768	585	satiated	stimuli/foods\onion.jpg	1	5	1	onion	1	S	13	0	229	0		0	0	232.056089999853	232.15607440006
49741.5	0.0999860998708755	586	satiated	stimuli/non_foods\non-food_inanimate_protractor.jpg	1	5	1	non-food_inanimate_protractor	0	C	1	0	201	0		0	0	232.206085300073	232.306071399944
49779	0.0999880000017583	587	satiated	stimuli/foods\cannoli.jpg	1	5	1	cannoli	1	G	4	0	17	0		0	0	232.356083499966	232.456071499968
49816.5	0.0999862998723984	588	satiated	stimuli/foods\figs.jpg	1	5	1	figs	1	C	1	0	48	0		0	0	232.506082599983	232.606068899855
49854	0.099986599991098	589	satiated	stimuli/foods\ginger_root.jpg	1	5	1	ginger_root	1	V	15	0	57	0		0	0	232.656078499975	232.756065099966
49891.5	0.0999823999591172	590	satiated	stimuli/foods\fried_calamari.jpg	1	5	1	fried_calamari	1	J	6	0	50	0		0	0	232.806083099917	232.906065499876
49929	0.0999849999789149	591	satiated	stimuli/foods\cinnamon.jpg	1	5	1	cinnamon	1	G	4	0	30	0		0	0	232.9560777999	233.056062799878
49966.5	0.0999817999545485	592	satiated	stimuli/non_foods\non-food_animate_caterpillar.jpg	1	5	1	non-food_animate_caterpillar	0	W	16	0	99	0		0	0	233.106074299896	233.206056099851
50004	0.100026799831539	593	satiated	stimuli/foods\egg.jpg	1	5	1	egg	1	J	6	0	45	0		0	0	233.25606220006	233.356088999892
50041.5	0.0999901001341641	594	satiated	stimuli/non_foods\non-food_inanimate_nettle.jpg	1	5	1	non-food_inanimate_nettle	0	L	8	0	197	0		0	0	233.406085199909	233.506075300043
50079	0.0999324999283999	595	satiated	stimuli/foods\tomato.jpg	1	5	1	tomato	1	D	2	0	276	0		0	0	233.556133500068	233.656065999996
50116.5	0.0999890000093728	596	satiated	stimuli/non_foods\non-food_inanimate_button.jpg	1	5	1	non-food_inanimate_button	0	S	13	0	168	0		0	0	233.706079300027	233.806068300037
50154	0.0999896998982877	597	satiated	stimuli/non_foods\non-food_animate_student_female.jpg	1	5	1	non-food_animate_student_female	0	F	3	0	151	0		0	0	233.85607660003	233.956066299928
50191.5	0.0999840998556465	598	satiated	stimuli/non_foods\non-food_animate_elephant.jpg	1	5	1	non-food_animate_elephant	0	B	0	0	111	0		0	0	234.006075900048	234.106059999904
50229	0.0999851999804378	599	satiated	stimuli/foods\cooked_ham.jpg	1	5	1	cooked_ham	1	R	12	0	35	0		0	0	234.156075099949	234.256060299929
50266.5	0.0999835000839084	600	satiated	stimuli/foods\oven-roasted_tomatoes.jpg	1	5	1	oven-roasted_tomatoes	1	X	17	0	232	0		0	0	234.30607739999	234.406060900073
50304	0.0999841000884771	601	satiated	stimuli/foods\nectarine.jpg	1	5	1	nectarine	1	B	0	0	87	0		0	0	234.456070899963	234.556055000052
50341.5	0.0999676999635994	602	satiated	stimuli/foods\coconut.jpg	1	5	1	coconut	1	C	1	0	33	0		0	0	234.606090799905	234.706058499869
50379	0.0999801000580192	603	satiated	stimuli/non_foods\non-food_inanimate_bicycle.jpg	1	5	1	non-food_inanimate_bicycle	0	G	4	0	161	0		0	0	234.756067199865	234.856047299923
50416.5	0.0999817999545485	604	satiated	stimuli/foods\omelette.jpg	1	5	1	omelette	1	T	14	0	228	0		0	0	234.906061999965	235.00604379992
50454	0.100012399954721	605	satiated	stimuli/foods\steak.jpg	1	5	1	steak	1	J	6	0	270	0		0	0	235.056059099967	235.156071499921
50491.5	0.0999924999196082	606	satiated	stimuli/non_foods\non-food_animate_donkey.jpg	1	5	1	non-food_animate_donkey	0	L	8	0	107	0		0	0	235.20605379995	235.306046299869
50529	0.0999878998845816	607	satiated	stimuli/foods\brie.jpg	1	5	1	brie	1	X	17	0	12	0		0	0	235.356056499993	235.456044399878
50566.5	0.0999956999439746	608	satiated	stimuli/non_foods\non-food_inanimate_broom.jpg	1	5	1	non-food_inanimate_broom	0	P	11	0	164	0		0	0	235.506054400001	235.606050099945
50604	0.1000102001708	609	satiated	stimuli/foods\cucumber.jpg	1	5	1	cucumber	1	N	10	0	41	0		0	0	235.656035099877	235.756045300048
50641.5	0.0999889001250267	610	satiated	stimuli/non_foods\non-food_animate_mouse.jpg	1	5	1	non-food_animate_mouse	0	B	0	0	131	0		0	0	235.806059399853	235.906048299978
50679	0.0999830001965165	611	satiated	stimuli/non_foods\non-food_animate_seahorse.jpg	1	5	1	non-food_animate_seahorse	0	S	13	0	145	0		0	0	235.956057899864	236.056040900061
50716.5	0.0999894998967648	612	satiated	stimuli/non_foods\non-food_animate_iguana.jpg	1	5	1	non-food_animate_iguana	0	J	6	0	121	0		0	0	236.106052899966	236.206042399863
50754	0.099984799977392	613	satiated	stimuli/foods\frankfurter_and_provolone_salad.jpg	1	5	1	frankfurter_and_provolone_salad	1	L	8	0	49	0		0	0	236.256054400001	236.356039199978
50791.5	0.09997049998492	614	satiated	stimuli/foods\rice.jpg	1	5	1	rice	1	C	1	0	257	0		0	0	236.406066499883	236.506036999868
50829	0.0999818998388946	615	satiated	stimuli/foods\beetroots.jpg	1	5	1	beetroots	1	F	3	0	10	0		0	0	236.55605740007	236.656039299909
50866.5	0.0999792998190969	616	satiated	stimuli/foods\potatoes.jpg	1	5	1	potatoes	1	N	10	0	248	0		0	0	236.706049500033	236.806028799852
50904	0.0999801000580192	617	satiated	stimuli/foods\pasta_carbonara.jpg	1	5	1	pasta_carbonara	1	T	14	0	236	0		0	0	236.856041099876	236.956021199934
50941.5	0.0999855999834836	618	satiated	stimuli/non_foods\non-food_inanimate_bowling_ball.jpg	1	5	1	non-food_inanimate_bowling_ball	0	L	8	0	162	0		0	0	237.006050799973	237.106036399957
50979	0.0999680999666452	619	satiated	stimuli/foods\gnocchi.jpg	1	5	1	gnocchi	1	P	11	0	58	0		0	0	237.156061999965	237.256030099932
51016.5	0.0999809000641108	620	satiated	stimuli/foods\red_cabbage.jpg	1	5	1	red_cabbage	1	F	3	0	256	0		0	0	237.306048600003	237.406029500067
51054	0.0999813000671566	621	satiated	stimuli/foods\chocolate_pudding.jpg	1	5	1	chocolate_pudding	1	W	16	0	29	0		0	0	237.456044499995	237.556025800062
51091.5	0.0999880000017583	622	satiated	stimuli/foods\broccoli.jpg	1	5	1	broccoli	1	X	17	0	13	0		0	0	237.606040899875	237.706028899876
51129	0.0999839999713004	623	satiated	stimuli/foods\lime.jpg	1	5	1	lime	1	T	14	0	76	0		0	0	237.756042199908	237.856026199879
51166.5	0.0999900999013335	624	satiated	stimuli/foods\lasagna.jpg	1	5	1	lasagna	1	V	15	0	71	0		0	0	237.906034999993	238.006025099894
51204	0.0999857999850065	625	satiated	stimuli/non_foods\non-food_inanimate_short_sleeved_shirt.jpg	1	5	1	non-food_inanimate_short_sleeved_shirt	0	N	10	0	207	0		0	0	238.056037700037	238.156023500022
51241.5	0.0999718999955803	626	satiated	stimuli/foods\garlic.jpg	1	5	1	garlic	1	T	14	0	56	0		0	0	238.206052700058	238.306024600053
51279	0.0999869999941438	627	satiated	stimuli/non_foods\non-food_animate_penguin.jpg	1	5	1	non-food_animate_penguin	0	N	10	0	135	0		0	0	238.356034100056	238.45602110005
51316.5	0.0999888998921961	628	satiated	stimuli/foods\meatballs.jpg	1	5	1	meatballs	1	R	12	0	81	0		0	0	238.506031400058	238.606020299951
51354	0.0999759999103844	629	satiated	stimuli/non_foods\non-food_inanimate_tent.jpg	1	5	1	non-food_inanimate_tent	0	G	4	0	219	0		0	0	238.656033999985	238.756009999895
51391.5	0.0999946999363601	630	satiated	stimuli/foods\hotdog.jpg	1	5	1	hotdog	1	P	11	0	67	0		0	0	238.80604210007	238.906036800006
51429	0.099950899835676	631	satiated	stimuli/foods\fries.jpg	1	5	1	fries	1	N	10	0	52	0		0	0	238.956063400023	239.056014299858
51466.5	0.0999899001326412	632	satiated	stimuli/non_foods\non-food_inanimate_desk.jpg	1	5	1	non-food_inanimate_desk	0	X	17	0	178	0		0	0	239.106025199872	239.206015100004
51504	0.0999952000565827	633	satiated	stimuli/non_foods\non-food_animate_millipede.jpg	1	5	1	non-food_animate_millipede	0	L	8	0	129	0		0	0	239.256024000002	239.356019200059
51541.5	0.099981099832803	634	satiated	stimuli/foods\watermelon.jpg	1	5	1	watermelon	1	H	5	0	279	0		0	0	239.406028100057	239.506009199889
51579	0.0999849999789149	635	satiated	stimuli/non_foods\non-food_inanimate_drum_set.jpg	1	5	1	non-food_inanimate_drum_set	0	V	15	0	179	0		0	0	239.556023200043	239.656008200021
51616.5	0.0999853999819607	636	satiated	stimuli/foods\fennel.jpg	1	5	1	fennel	1	H	5	0	47	0		0	0	239.70602199994	239.806007399922
51654	0.0999826001934707	637	satiated	stimuli/non_foods\non-food_animate_dolphin.jpg	1	5	1	non-food_animate_dolphin	0	T	14	0	106	0		0	0	239.856023399858	239.956006000051
51691.5	0.0999811999499798	638	satiated	stimuli/foods\prawn.jpg	1	5	1	prawn	1	B	0	0	249	0		0	0	240.006039100001	240.106020299951
51729	0.0999727000016719	639	satiated	stimuli/foods\celery.jpg	1	5	1	celery	1	L	8	0	21	0		0	0	240.156030799961	240.256003499962
51766.5	0.0999868998769671	640	satiated	stimuli/non_foods\non-food_inanimate_socks.jpg	1	5	1	non-food_inanimate_socks	0	T	14	0	211	0		0	0	240.306013999972	240.406000899849
