onset	duration	eventnumber	hunger_condition	stimfilename	blockno	trialno	is_faststream	stim	food_idx	letter	letter_idx	istarget	image_number	response	keypressed	rt	correct	time_stimon	time_stimoff
14151.75	0.0999743	0	satiated	stimuli/non_foods\non-food_inanimate_hammer.jpg	1	1	1	non-food_inanimate_hammer	0	R	12	0	186	0		0	0	64.6767118	64.7766861
14189.25	0.1000522	1	satiated	stimuli/non_foods\non-food_animate_ram.jpg	1	1	1	non-food_animate_ram	0	M	9	0	140	0		0	0	64.8267114	64.9267636
14226.75	0.0999535	2	satiated	stimuli/foods\banana.jpg	1	1	1	banana	1	R	12	0	9	0		0	0	64.9767328	65.0766863
14264.25	0.0999944	3	satiated	stimuli/foods\cannoli.jpg	1	1	1	cannoli	1	W	16	0	17	0		0	0	65.1266771	65.2266715
14301.75	0.0999916	4	satiated	stimuli/non_foods\non-food_animate_dragonfly.jpg	1	1	1	non-food_animate_dragonfly	0	C	1	0	108	0		0	0	65.2766851	65.3766767
14339.25	0.0999587	5	satiated	stimuli/foods\savory_pie.jpg	1	1	1	savory_pie	1	M	9	0	265	0		0	0	65.4266921	65.5266508
14376.75	0.0999793	6	satiated	stimuli/foods\pork_and_rice.jpg	1	1	1	pork_and_rice	1	G	4	0	245	0		0	0	65.5766945	65.6766738
14414.25	0.0999773	7	satiated	stimuli/foods\gnocchi.jpg	1	1	1	gnocchi	1	T	14	0	58	0		0	0	65.7266888	65.8266661
14451.75	0.0999864	8	satiated	stimuli/non_foods\non-food_animate_student_female.jpg	1	1	1	non-food_animate_student_female	0	J	6	0	151	0		0	0	65.8766737	65.9766601
14489.25	0.0999675	9	satiated	stimuli/foods\roasted_chicken.jpg	1	1	1	roasted_chicken	1	Z	18	0	261	0		0	0	66.0266917	66.1266592
14526.75	0.0999827	10	satiated	stimuli/non_foods\non-food_animate_Causasian_man.jpg	1	1	1	non-food_animate_Causasian_man	0	S	13	0	89	0		0	0	66.1766754	66.2766581
14564.25	0.0999811	11	satiated	stimuli/foods\spaghetti_with_meat_sauce.jpg	1	1	1	spaghetti_with_meat_sauce	1	P	11	0	267	0		0	0	66.3266748	66.4266559
14601.75	0.0999903	12	satiated	stimuli/foods\potato_and_green_bean_salad.jpg	1	1	1	potato_and_green_bean_salad	1	O	22	1	246	0		0	0	66.4766699	66.5766602
14639.25	0.0997559	13	satiated	stimuli/non_foods\non-food_inanimate_rack.jpg	1	1	1	non-food_inanimate_rack	0	K	7	0	202	0		0	0	66.6269273	66.7266832
14676.75	0.0999605	14	satiated	stimuli/foods\prawn.jpg	1	1	1	prawn	1	T	14	0	249	0		0	0	66.7766997	66.8766602
14714.25	0.100001	15	satiated	stimuli/foods\cracker.jpg	1	1	1	cracker	1	L	8	0	38	1	a	0.5418274	1	66.9266732	67.0266742
14751.75	0.099991	16	satiated	stimuli/foods\broccoli.jpg	1	1	1	broccoli	1	K	7	0	13	0		0	0	67.0766654	67.1766564
14789.25	0.0999869	17	satiated	stimuli/non_foods\non-food_animate_gorilla.jpg	1	1	1	non-food_animate_gorilla	0	V	15	0	116	0		0	0	67.226671	67.3266579
14826.75	0.0999812	18	satiated	stimuli/non_foods\non-food_animate_squirrel.jpg	1	1	1	non-food_animate_squirrel	0	F	3	0	150	0		0	0	67.3766695	67.4766507
14864.25	0.0999884	19	satiated	stimuli/non_foods\non-food_inanimate_gloves.jpg	1	1	1	non-food_inanimate_gloves	0	J	6	0	183	0		0	0	67.5266643	67.6266527
14901.75	0.1000184	20	satiated	stimuli/non_foods\non-food_animate_tortoise.jpg	1	1	1	non-food_animate_tortoise	0	F	3	0	153	0		0	0	67.6766457	67.7766641
14939.25	0.0999699	21	satiated	stimuli/non_foods\non-food_animate_kangaroo.jpg	1	1	1	non-food_animate_kangaroo	0	D	2	0	122	0		0	0	67.8266749	67.9266448
14976.75	0.099989	22	satiated	stimuli/non_foods\non-food_animate_dachshund.jpg	1	1	1	non-food_animate_dachshund	0	W	16	0	104	0		0	0	67.9766559	68.0766449
15014.25	0.0999752	23	satiated	stimuli/foods\coconut.jpg	1	1	1	coconut	1	G	4	0	33	0		0	0	68.1266603	68.2266355
15051.75	0.0999849	24	satiated	stimuli/foods\fruit_pie.jpg	1	1	1	fruit_pie	1	S	13	0	54	0		0	0	68.276656	68.3766409
15089.25	0.0999576	25	satiated	stimuli/non_foods\non-food_animate_horse.jpg	1	1	1	non-food_animate_horse	0	F	3	0	119	0		0	0	68.4266833	68.5266409
15126.75	0.0999706	26	satiated	stimuli/non_foods\non-food_inanimate_soccer_ball.jpg	1	1	1	non-food_inanimate_soccer_ball	0	L	8	0	210	0		0	0	68.5766673	68.6766379
15164.25	0.0999865	27	satiated	stimuli/foods\pea_pod.jpg	1	1	1	pea_pod	1	K	7	0	237	0		0	0	68.7266504	68.8266369
15201.75	0.0999861	28	satiated	stimuli/foods\raw_sausage.jpg	1	1	1	raw_sausage	1	Z	18	0	254	0		0	0	68.8766509	68.976637
15239.25	0.0999843	29	satiated	stimuli/foods\hotdog.jpg	1	1	1	hotdog	1	H	5	0	67	0		0	0	69.0266462	69.1266305
15276.75	0.0999885	30	satiated	stimuli/non_foods\non-food_animate_hummingbird.jpg	1	1	1	non-food_animate_hummingbird	0	J	6	0	120	0		0	0	69.1766436	69.2766321
15314.25	0.0999821	31	satiated	stimuli/non_foods\non-food_inanimate_clover.jpg	1	1	1	non-food_inanimate_clover	0	H	5	0	174	0		0	0	69.3266419	69.426624
15351.75	0.0999989	32	satiated	stimuli/foods\lettuce.jpg	1	1	1	lettuce	1	D	2	0	75	0		0	0	69.4766362	69.5766351
15389.25	0.0999798	33	satiated	stimuli/foods\peach.jpg	1	1	1	peach	1	M	9	0	238	0		0	0	69.6266408	69.7266206
15426.75	0.0999795	34	satiated	stimuli/non_foods\non-food_animate_owl.jpg	1	1	1	non-food_animate_owl	0	G	4	0	132	0		0	0	69.7766337	69.8766132
15464.25	0.0999837	35	satiated	stimuli/non_foods\non-food_animate_monkey.jpg	1	1	1	non-food_animate_monkey	0	M	9	0	130	0		0	0	69.9266291	70.0266128
15501.75	0.0999955	36	satiated	stimuli/foods\beetroots.jpg	1	1	1	beetroots	1	J	6	0	10	0		0	0	70.0766265	70.176622
15539.25	0.0999816	37	satiated	stimuli/foods\cooked_prawn.jpg	1	1	1	cooked_prawn	1	N	10	0	36	0		0	0	70.2266293	70.3266109
15576.75	0.0999638	38	satiated	stimuli/foods\brownie.jpg	1	1	1	brownie	1	D	2	0	14	0		0	0	70.3766576	70.4766214
15614.25	0.0999613	39	satiated	stimuli/foods\pear.jpg	1	1	1	pear	1	F	3	0	239	0		0	0	70.526631	70.6265923
15651.75	0.1000057	40	satiated	stimuli/non_foods\non-food_animate_porcupine.jpg	1	1	1	non-food_animate_porcupine	0	T	14	0	138	0		0	0	70.6766094	70.7766151
15689.25	0.0999977	41	satiated	stimuli/non_foods\non-food_animate_grasshopper.jpg	1	1	1	non-food_animate_grasshopper	0	R	12	0	117	0		0	0	70.8266253	70.926623
15726.75	0.1000024	42	satiated	stimuli/foods\asparagus.jpg	1	1	1	asparagus	1	V	15	0	4	0		0	0	70.9766273	71.0766297
15764.25	0.099957	43	satiated	stimuli/foods\clams.jpg	1	1	1	clams	1	M	9	0	32	0		0	0	71.1266539	71.2266109
15801.75	0.0999841	44	satiated	stimuli/non_foods\non-food_inanimate_alarm_clock.jpg	1	1	1	non-food_inanimate_alarm_clock	0	X	17	0	158	0		0	0	71.2766208	71.3766049
15839.25	0.0999856	45	satiated	stimuli/foods\celery.jpg	1	1	1	celery	1	R	12	0	21	0		0	0	71.4266181	71.5266037
15876.75	0.0999826	46	satiated	stimuli/foods\green_beans.jpg	1	1	1	green_beans	1	J	6	0	61	0		0	0	71.5766189	71.6766015
15914.25	0.0999858	47	satiated	stimuli/non_foods\non-food_inanimate_wrench.jpg	1	1	1	non-food_inanimate_wrench	0	D	2	0	227	0		0	0	71.726613	71.8265988
15951.75	0.0999867	48	satiated	stimuli/non_foods\non-food_inanimate_bamboo.jpg	1	1	1	non-food_inanimate_bamboo	0	S	13	0	159	0		0	0	71.8766126	71.9765993
15989.25	0.0999839	49	satiated	stimuli/foods\carrot.jpg	1	1	1	carrot	1	V	15	0	19	0		0	0	72.0266119	72.1265958
16026.75	0.0999733	50	satiated	stimuli/foods\waffle.jpg	1	1	1	waffle	1	T	14	0	278	0		0	0	72.1766309	72.2766042
16064.25	0.0999968	51	satiated	stimuli/foods\chilli.jpg	1	1	1	chilli	1	X	17	0	25	0		0	0	72.3266017	72.4265985
16101.75	0.0999983	52	satiated	stimuli/non_foods\non-food_animate_mammoth.jpg	1	1	1	non-food_animate_mammoth	0	V	15	0	128	0		0	0	72.4765944	72.5765927
16139.25	0.0999834	53	satiated	stimuli/non_foods\non-food_animate_skunk.jpg	1	1	1	non-food_animate_skunk	0	L	8	0	147	0		0	0	72.6266123	72.7265957
16176.75	0.0999925	54	satiated	stimuli/foods\spring_onions.jpg	1	1	1	spring_onions	1	N	10	0	269	0		0	0	72.7766121	72.8766046
16214.25	0.0999667	55	satiated	stimuli/foods\rice_cake.jpg	1	1	1	rice_cake	1	R	12	0	258	0		0	0	72.9266201	73.0265868
16251.75	0.0999825	56	satiated	stimuli/foods\omelette.jpg	1	1	1	omelette	1	J	6	0	228	0		0	0	73.0766023	73.1765848
16289.25	0.0999866	57	satiated	stimuli/foods\onion.jpg	1	1	1	onion	1	M	9	0	229	0		0	0	73.2265961	73.3265827
16326.75	0.0999865	58	satiated	stimuli/non_foods\non-food_inanimate_sun_flower.jpg	1	1	1	non-food_inanimate_sun_flower	0	J	6	0	216	0		0	0	73.3765953	73.4765818
16364.25	0.0999869	59	satiated	stimuli/foods\grapes.jpg	1	1	1	grapes	1	W	16	0	60	0		0	0	73.5265935	73.6265804
16401.75	0.0999859	60	satiated	stimuli/foods\spinach.jpg	1	1	1	spinach	1	K	7	0	268	0		0	0	73.6765908	73.7765767
16439.25	0.1000059	61	satiated	stimuli/non_foods\non-food_inanimate_bed.jpg	1	1	1	non-food_inanimate_bed	0	Z	18	0	160	0		0	0	73.8265881	73.926594
16476.75	0.0999726	62	satiated	stimuli/non_foods\non-food_animate_parrot.jpg	1	1	1	non-food_animate_parrot	0	J	6	0	133	0		0	0	73.9766001	74.0765727
16514.25	0.0999857	63	satiated	stimuli/non_foods\non-food_animate_young_boy.jpg	1	1	1	non-food_animate_young_boy	0	W	16	0	156	0		0	0	74.126586	74.2265717
16551.75	0.0999837	64	satiated	stimuli/foods\artichoke.jpg	1	1	1	artichoke	1	N	10	0	3	0		0	0	74.2765863	74.37657
16589.25	0.0999849	65	satiated	stimuli/non_foods\non-food_animate_slug.jpg	1	1	1	non-food_animate_slug	0	T	14	0	148	0		0	0	74.4265818	74.5265667
16626.75	0.1000042	66	satiated	stimuli/foods\rockmelon.jpg	1	1	1	rockmelon	1	G	4	0	262	0		0	0	74.5766046	74.6766088
16664.25	0.0999832	67	satiated	stimuli/foods\ginger_root.jpg	1	1	1	ginger_root	1	R	12	0	57	0		0	0	74.7265805	74.8265637
16701.75	0.0999893	68	satiated	stimuli/non_foods\non-food_inanimate_teddy_bear.jpg	1	1	1	non-food_inanimate_teddy_bear	0	W	16	0	218	0		0	0	74.8765744	74.9765637
16739.25	0.0999815	69	satiated	stimuli/non_foods\non-food_animate_eagle.jpg	1	1	1	non-food_animate_eagle	0	K	7	0	110	0		0	0	75.0265782	75.1265597
16776.75	0.0999832	70	satiated	stimuli/foods\papaya.jpg	1	1	1	papaya	1	M	9	0	235	0		0	0	75.1765737	75.2765569
16814.25	0.0999864	71	satiated	stimuli/foods\pomegranate.jpg	1	1	1	pomegranate	1	K	7	0	244	0		0	0	75.3265735	75.4265599
16851.75	0.0999854	72	satiated	stimuli/non_foods\non-food_animate_rhino.jpg	1	1	1	non-food_animate_rhino	0	W	16	0	141	0		0	0	75.47657	75.5765554
16889.25	0.1000219	73	satiated	stimuli/non_foods\non-food_inanimate_headphones.jpg	1	1	1	non-food_inanimate_headphones	0	B	0	0	188	0		0	0	75.626566	75.7265879
16926.75	0.0999864	74	satiated	stimuli/foods\lollies.jpg	1	1	1	lollies	1	Z	18	0	78	0		0	0	75.7765665	75.8765529
16964.25	0.099985	75	satiated	stimuli/non_foods\non-food_animate_seal.jpg	1	1	1	non-food_animate_seal	0	G	4	0	146	0		0	0	75.9265627	76.0265477
17001.75	0.0999867	76	satiated	stimuli/foods\green_olives.jpg	1	1	1	green_olives	1	L	8	0	62	0		0	0	76.0765639	76.1765506
17039.25	0.1000169	77	satiated	stimuli/foods\chocolate_chip_cookies.jpg	1	1	1	chocolate_chip_cookies	1	X	17	0	27	0		0	0	76.2265609	76.3265778
17076.75	0.0999658	78	satiated	stimuli/non_foods\non-food_inanimate_waterlily.jpg	1	1	1	non-food_inanimate_waterlily	0	W	16	0	226	0		0	0	76.3765789	76.4765447
17114.25	0.0999483	79	satiated	stimuli/foods\figs.jpg	1	1	1	figs	1	C	1	0	48	0		0	0	76.5265959	76.6265442
17151.75	0.099987	80	satiated	stimuli/foods\peas.jpg	1	1	1	peas	1	R	12	0	240	0		0	0	76.6765537	76.7765407
17189.25	0.0999713	81	satiated	stimuli/foods\eggplant.jpg	1	1	1	eggplant	1	V	15	0	46	0		0	0	76.8265527	76.926524
17226.75	0.1000078	82	satiated	stimuli/non_foods\non-food_animate_killer_whale.jpg	1	1	1	non-food_animate_killer_whale	0	R	12	0	123	0		0	0	76.976531	77.0765388
17264.25	0.0999856	83	satiated	stimuli/foods\pasta_carbonara.jpg	1	1	1	pasta_carbonara	1	X	17	0	236	0		0	0	77.1265492	77.2265348
17301.75	0.0999901	84	satiated	stimuli/non_foods\non-food_inanimate_stoplight.jpg	1	1	1	non-food_inanimate_stoplight	0	B	0	0	214	0		0	0	77.2765467	77.3765368
17339.25	0.1000026	85	satiated	stimuli/non_foods\non-food_inanimate_fern.jpg	1	1	1	non-food_inanimate_fern	0	N	10	0	180	0		0	0	77.4265439	77.5265465
17376.75	0.1000086	86	satiated	stimuli/foods\hazelnuts.jpg	1	1	1	hazelnuts	1	K	7	0	65	0		0	0	77.5765457	77.6765543
17414.25	0.0999827	87	satiated	stimuli/foods\pineapple.jpg	1	1	1	pineapple	1	G	4	0	243	0		0	0	77.7265479	77.8265306
17451.75	0.0999811	88	satiated	stimuli/non_foods\non-food_animate_cheetah.jpg	1	1	1	non-food_animate_cheetah	0	D	2	0	100	0		0	0	77.8765437	77.9765248
17489.25	0.0999803	89	satiated	stimuli/foods\rice.jpg	1	1	1	rice	1	K	7	0	257	0		0	0	78.02654	78.1265203
17526.75	0.0999472	90	satiated	stimuli/foods\risotto_with_peas_and_asparagus_tips.jpg	1	1	1	risotto_with_peas_and_asparagus_tips	1	T	14	0	259	0		0	0	78.1765782	78.2765254
17564.25	0.0999588	91	satiated	stimuli/foods\pickles.jpg	1	1	1	pickles	1	J	6	0	242	0		0	0	78.3265383	78.4264971
17601.75	0.0999834	92	satiated	stimuli/foods\salmon.jpg	1	1	1	salmon	1	H	5	0	264	0		0	0	78.4765376	78.576521
17639.25	0.0999809	93	satiated	stimuli/non_foods\non-food_inanimate_speakers.jpg	1	1	1	non-food_inanimate_speakers	0	J	6	0	212	0		0	0	78.6265368	78.7265177
17676.75	0.0999862	94	satiated	stimuli/non_foods\non-food_inanimate_couch.jpg	1	1	1	non-food_inanimate_couch	0	F	3	0	176	0		0	0	78.7765286	78.8765148
17714.25	0.0999817	95	satiated	stimuli/foods\raw_ham.jpg	1	1	1	raw_ham	1	W	16	0	253	0		0	0	78.926531	79.0265127
17751.75	0.0999837	96	satiated	stimuli/non_foods\non-food_animate_giraffe.jpg	1	1	1	non-food_animate_giraffe	0	M	9	0	115	0		0	0	79.0765278	79.1765115
17789.25	0.0999868	97	satiated	stimuli/foods\fries.jpg	1	1	1	fries	1	G	4	0	52	0		0	0	79.2265443	79.3265311
17826.75	0.0999857	98	satiated	stimuli/foods\baked_cod_with_carrots_and_green_beans.jpg	1	1	1	baked_cod_with_carrots_and_green_beans	1	C	1	0	7	0		0	0	79.376522	79.4765077
17864.25	0.0999896	99	satiated	stimuli/non_foods\non-food_inanimate_pine_cone.jpg	1	1	1	non-food_inanimate_pine_cone	0	H	5	0	200	0		0	0	79.5265216	79.6265112
17901.75	0.0999875	100	satiated	stimuli/foods\brie.jpg	1	1	1	brie	1	X	17	0	12	0		0	0	79.6765193	79.7765068
17939.25	0.0999957	101	satiated	stimuli/foods\smoked_ham.jpg	1	1	1	smoked_ham	1	J	6	0	266	0		0	0	79.8265158	79.9265115
17976.75	0.0999448	102	satiated	stimuli/foods\pepperoni_pizza.jpg	1	1	1	pepperoni_pizza	1	R	12	0	241	0		0	0	79.976559	80.0765038
18014.25	0.099984	103	satiated	stimuli/non_foods\non-food_animate_frog.jpg	1	1	1	non-food_animate_frog	0	S	13	0	113	0		0	0	80.1265147	80.2264987
18051.75	0.0999836	104	satiated	stimuli/non_foods\non-food_animate_millipede.jpg	1	1	1	non-food_animate_millipede	0	L	8	0	129	0		0	0	80.276515	80.3764986
18089.25	0.0999866	105	satiated	stimuli/foods\hamburger.jpg	1	1	1	hamburger	1	B	0	0	64	0		0	0	80.4265112	80.5264978
18126.75	0.100004	106	satiated	stimuli/foods\corncob.jpg	1	1	1	corncob	1	P	11	0	37	0		0	0	80.5764906	80.6764946
18164.25	0.0999862	107	satiated	stimuli/foods\fruit_salad.jpg	1	1	1	fruit_salad	1	S	13	0	55	0		0	0	80.7265087	80.8264949
18201.75	0.0999865	108	satiated	stimuli/foods\oyster.jpg	1	1	1	oyster	1	J	6	0	233	0		0	0	80.8765053	80.9764918
18239.25	0.0999721	109	satiated	stimuli/foods\garlic.jpg	1	1	1	garlic	1	S	13	0	56	0		0	0	81.0265148	81.1264869
18276.75	0.0999873	110	satiated	stimuli/non_foods\non-food_animate_runner.jpg	1	1	1	non-food_animate_runner	0	M	9	0	142	0		0	0	81.1765026	81.2764899
18314.25	0.099981	111	satiated	stimuli/non_foods\non-food_animate_polar_bear.jpg	1	1	1	non-food_animate_polar_bear	0	G	4	0	137	0		0	0	81.3265019	81.4264829
18351.75	0.1000075	112	satiated	stimuli/non_foods\non-food_inanimate_bucket.jpg	1	1	1	non-food_inanimate_bucket	0	T	14	0	165	0		0	0	81.4764768	81.5764843
18389.25	0.099977	113	satiated	stimuli/non_foods\non-food_inanimate_padlock.jpg	1	1	1	non-food_inanimate_padlock	0	H	5	0	199	0		0	0	81.6265074	81.7264844
18426.75	0.0999617	114	satiated	stimuli/foods\minestrone_soup.jpg	1	1	1	minestrone_soup	1	N	10	0	82	0		0	0	81.7765177	81.8764794
18464.25	0.0999879	115	satiated	stimuli/foods\fennel.jpg	1	1	1	fennel	1	F	3	0	47	0		0	0	81.9264931	82.026481
18501.75	0.0999806	116	satiated	stimuli/non_foods\non-food_inanimate_skirt.jpg	1	1	1	non-food_inanimate_skirt	0	U	23	1	209	0		0	0	82.0764924	82.176473
18539.25	0.099984	117	satiated	stimuli/foods\chocolate_pralines.jpg	1	1	1	chocolate_pralines	1	L	8	0	28	0		0	0	82.2264897	82.3264737
18576.75	0.0999844	118	satiated	stimuli/foods\cereal.jpg	1	1	1	cereal	1	F	3	0	22	0		0	0	82.3764894	82.4764738
18614.25	0.0999882	119	satiated	stimuli/non_foods\non-food_inanimate_skateboard.jpg	1	1	1	non-food_inanimate_skateboard	0	M	9	0	208	0		0	0	82.5264851	82.6264733
18651.75	0.0999872	120	satiated	stimuli/foods\nectarine.jpg	1	1	1	nectarine	1	S	13	0	87	1	a	0.6002302	1	82.6764827	82.7764699
18689.25	0.0999763	121	satiated	stimuli/non_foods\non-food_animate_seahorse.jpg	1	1	1	non-food_animate_seahorse	0	R	12	0	145	0		0	0	82.8264897	82.926466
18726.75	0.099985	122	satiated	stimuli/non_foods\non-food_animate_sea_turtle.jpg	1	1	1	non-food_animate_sea_turtle	0	L	8	0	144	0		0	0	82.9764818	83.0764668
18764.25	0.0999928	123	satiated	stimuli/non_foods\non-food_inanimate_chandelier.jpg	1	1	1	non-food_inanimate_chandelier	0	J	6	0	173	0		0	0	83.1264712	83.226464
18801.75	0.0999825	124	satiated	stimuli/foods\risotto_with_zucchini.jpg	1	1	1	risotto_with_zucchini	1	H	5	0	260	0		0	0	83.2764763	83.3764588
18839.25	0.1000128	125	satiated	stimuli/non_foods\non-food_inanimate_moss.jpg	1	1	1	non-food_inanimate_moss	0	P	11	0	194	0		0	0	83.4264799	83.5264927
18876.75	0.0999833	126	satiated	stimuli/foods\avocado.jpg	1	1	1	avocado	1	D	2	0	5	0		0	0	83.5764738	83.6764571
18914.25	0.0999846	127	satiated	stimuli/non_foods\non-food_inanimate_desk.jpg	1	1	1	non-food_inanimate_desk	0	M	9	0	178	0		0	0	83.726472	83.8264566
18951.75	0.099984	128	satiated	stimuli/non_foods\non-food_inanimate_hay.jpg	1	1	1	non-food_inanimate_hay	0	X	17	0	187	0		0	0	83.8764697	83.9764537
18989.25	0.0999823	129	satiated	stimuli/foods\mandarin.jpg	1	1	1	mandarin	1	B	0	0	79	0		0	0	84.0264676	84.1264499
19026.75	0.0999862	130	satiated	stimuli/non_foods\non-food_inanimate_stapler.jpg	1	1	1	non-food_inanimate_stapler	0	N	10	0	213	0		0	0	84.1764677	84.2764539
19064.25	0.0999888	131	satiated	stimuli/foods\raisins.jpg	1	1	1	raisins	1	V	15	0	252	0		0	0	84.3264626	84.4264514
19101.75	0.0999853	132	satiated	stimuli/foods\egg.jpg	1	1	1	egg	1	T	14	0	45	0		0	0	84.4764605	84.5764458
19139.25	0.0999793	133	satiated	stimuli/non_foods\non-food_animate_deer.jpg	1	1	1	non-food_animate_deer	0	P	11	0	105	0		0	0	84.6264695	84.7264488
19176.75	0.0999819	134	satiated	stimuli/foods\museli_bars.jpg	1	1	1	museli_bars	1	X	17	0	84	0		0	0	84.7764495	84.8764314
19214.25	0.0999876	135	satiated	stimuli/foods\grapefruits.jpg	1	1	1	grapefruits	1	K	7	0	59	0		0	0	84.9264519	85.0264395
19251.75	0.0999987	136	satiated	stimuli/non_foods\non-food_inanimate_toilet.jpg	1	1	1	non-food_inanimate_toilet	0	S	13	0	220	0		0	0	85.0764418	85.1764405
19289.25	0.0999498	137	satiated	stimuli/non_foods\non-food_animate_dolphin.jpg	1	1	1	non-food_animate_dolphin	0	M	9	0	106	0		0	0	85.2264828	85.3264326
19326.75	0.0999854	138	satiated	stimuli/foods\cupcake.jpg	1	1	1	cupcake	1	T	14	0	42	0		0	0	85.3764529	85.4764383
19364.25	0.0999732	139	satiated	stimuli/foods\pancakes.jpg	1	1	1	pancakes	1	W	16	0	234	0		0	0	85.5264539	85.6264271
20072.5	0.0999618	140	satiated	stimuli/foods\ice_cream.jpg	1	2	1	ice_cream	1	P	11	0	68	0		0	0	88.3597493	88.4597111
20110	0.0999853	141	satiated	stimuli/non_foods\non-food_inanimate_chair.jpg	1	2	1	non-food_inanimate_chair	0	N	10	0	172	0		0	0	88.5097419	88.6097272
20147.5	0.0999703	142	satiated	stimuli/non_foods\non-food_animate_lizard.jpg	1	2	1	non-food_animate_lizard	0	G	4	0	126	0		0	0	88.6597523	88.7597226
20185	0.0999846	143	satiated	stimuli/foods\tomato.jpg	1	2	1	tomato	1	T	14	0	276	0		0	0	88.8097368	88.9097214
20222.5	0.0999825	144	satiated	stimuli/foods\fruit_flan.jpg	1	2	1	fruit_flan	1	K	7	0	53	0		0	0	88.9597358	89.0597183
20260	0.0999812	145	satiated	stimuli/non_foods\non-food_inanimate_short_sleeved_shirt.jpg	1	2	1	non-food_inanimate_short_sleeved_shirt	0	N	10	0	207	0		0	0	89.1097336	89.2097148
20297.5	0.0999715	146	satiated	stimuli/non_foods\non-food_inanimate_tent.jpg	1	2	1	non-food_inanimate_tent	0	R	12	0	219	0		0	0	89.2597418	89.3597133
20335	0.0999823	147	satiated	stimuli/foods\mango.jpg	1	2	1	mango	1	W	16	0	80	0		0	0	89.4097433	89.5097256
20372.5	0.1000317	148	satiated	stimuli/non_foods\non-food_animate_cow.jpg	1	2	1	non-food_animate_cow	0	Z	18	0	103	0		0	0	89.5597117	89.6597434
20410	0.0999402	149	satiated	stimuli/non_foods\non-food_animate_woman.jpg	1	2	1	non-food_animate_woman	0	J	6	0	154	0		0	0	89.7097786	89.8097188
20447.5	0.099969	150	satiated	stimuli/non_foods\non-food_inanimate_towel.jpg	1	2	1	non-food_inanimate_towel	0	L	8	0	221	0		0	0	89.8597316	89.9597006
20485	0.0999808	151	satiated	stimuli/foods\mushroom.jpg	1	2	1	mushroom	1	S	13	0	85	0		0	0	90.0097314	90.1097122
20522.5	0.0999912	152	satiated	stimuli/non_foods\non-food_animate_german_shepherd.jpg	1	2	1	non-food_animate_german_shepherd	0	D	2	0	114	0		0	0	90.1597254	90.2597166
20560	0.0999768	153	satiated	stimuli/non_foods\non-food_animate_chicken.jpg	1	2	1	non-food_animate_chicken	0	H	5	0	101	0		0	0	90.309736	90.4097128
20597.5	0.0999796	154	satiated	stimuli/non_foods\non-food_animate_bat.jpg	1	2	1	non-food_animate_bat	0	R	12	0	94	0		0	0	90.4597304	90.55971
20635	0.0999813	155	satiated	stimuli/non_foods\non-food_inanimate_cupboard.jpg	1	2	1	non-food_inanimate_cupboard	0	J	6	0	177	0		0	0	90.6097274	90.7097087
20672.5	0.1000082	156	satiated	stimuli/foods\honey.jpg	1	2	1	honey	1	A	19	1	66	0		0	0	90.759697	90.8597052
20710	0.0999871	157	satiated	stimuli/foods\frankfurter_and_provolone_salad.jpg	1	2	1	frankfurter_and_provolone_salad	1	K	7	0	49	0		0	0	90.9097199	91.009707
20747.5	0.0999831	158	satiated	stimuli/non_foods\non-food_animate_baby_sitting.jpg	1	2	1	non-food_animate_baby_sitting	0	M	9	0	93	0		0	0	91.0597198	91.1597029
20785	0.1000494	159	satiated	stimuli/non_foods\non-food_animate_alligator.jpg	1	2	1	non-food_animate_alligator	0	F	3	0	90	1	a	0.4433297	1	91.2096885	91.3097379
20822.5	0.0999966	160	satiated	stimuli/non_foods\non-food_inanimate_grass.jpg	1	2	1	non-food_inanimate_grass	0	H	5	0	184	0		0	0	91.3596996	91.4596962
20860	0.0999627	161	satiated	stimuli/foods\bagel.jpg	1	2	1	bagel	1	M	9	0	6	0		0	0	91.5097266	91.6096893
20897.5	0.0999856	162	satiated	stimuli/non_foods\non-food_animate_llama.jpg	1	2	1	non-food_animate_llama	0	T	14	0	127	0		0	0	91.659703	91.7596886
20935	0.0999816	163	satiated	stimuli/non_foods\non-food_animate_pigeon.jpg	1	2	1	non-food_animate_pigeon	0	W	16	0	136	0		0	0	91.8097027	91.9096843
20972.5	0.0999849	164	satiated	stimuli/foods\salami.jpg	1	2	1	salami	1	H	5	0	263	0		0	0	91.9597012	92.0596861
21010	0.0999761	165	satiated	stimuli/non_foods\non-food_inanimate_shell.jpg	1	2	1	non-food_inanimate_shell	0	F	3	0	206	0		0	0	92.1096994	92.2096755
21047.5	0.1000099	166	satiated	stimuli/foods\red_beans.jpg	1	2	1	red_beans	1	B	0	0	255	0		0	0	92.2596783	92.3596882
21085	0.099982	167	satiated	stimuli/non_foods\non-food_animate_peacock.jpg	1	2	1	non-food_animate_peacock	0	G	4	0	134	0		0	0	92.4097039	92.5096859
21122.5	0.0999828	168	satiated	stimuli/foods\grilled_chicken_breast.jpg	1	2	1	grilled_chicken_breast	1	F	3	0	63	0		0	0	92.5597032	92.659686
21160	0.0999894	169	satiated	stimuli/foods\red_cabbage.jpg	1	2	1	red_cabbage	1	X	17	0	256	0		0	0	92.709693	92.8096824
21197.5	0.099978	170	satiated	stimuli/foods\wafer.jpg	1	2	1	wafer	1	F	3	0	277	0		0	0	92.859697	92.959675
21235	0.0999827	171	satiated	stimuli/non_foods\non-food_inanimate_nettle.jpg	1	2	1	non-food_inanimate_nettle	0	T	14	0	197	0		0	0	93.009694	93.1096767
21272.5	0.1000036	172	satiated	stimuli/non_foods\non-food_inanimate_cactus_pot_plant.jpg	1	2	1	non-food_inanimate_cactus_pot_plant	0	D	2	0	169	0		0	0	93.1597041	93.2597077
21310	0.0999706	173	satiated	stimuli/foods\cream_donuts.jpg	1	2	1	cream_donuts	1	H	5	0	39	0		0	0	93.3097076	93.4096782
21347.5	0.1000002	174	satiated	stimuli/foods\oregano.jpg	1	2	1	oregano	1	K	7	0	231	0		0	0	93.4596633	93.5596635
21385	0.09999	175	satiated	stimuli/non_foods\non-food_inanimate_suitcase.jpg	1	2	1	non-food_inanimate_suitcase	0	N	10	0	215	0		0	0	93.6096844	93.7096744
21422.5	0.0999824	176	satiated	stimuli/foods\linguine_with_clams.jpg	1	2	1	linguine_with_clams	1	T	14	0	77	0		0	0	93.7596894	93.8596718
21460	0.0999843	177	satiated	stimuli/non_foods\non-food_inanimate_button.jpg	1	2	1	non-food_inanimate_button	0	F	3	0	168	0		0	0	93.909685	94.0096693
21497.5	0.0999882	178	satiated	stimuli/non_foods\non-food_animate_penguin.jpg	1	2	1	non-food_animate_penguin	0	H	5	0	135	0		0	0	94.0596827	94.1596709
21535	0.1000002	179	satiated	stimuli/foods\watermelon.jpg	1	2	1	watermelon	1	R	12	0	279	0		0	0	94.2096642	94.3096644
21572.5	0.1000091	180	satiated	stimuli/foods\kiwi.jpg	1	2	1	kiwi	1	H	5	0	69	0		0	0	94.3596768	94.4596859
21610	0.0999836	181	satiated	stimuli/foods\blackberry.jpg	1	2	1	blackberry	1	V	15	0	11	0		0	0	94.5096762	94.6096598
21647.5	0.0999999	182	satiated	stimuli/foods\croissant.jpg	1	2	1	croissant	1	B	0	0	40	0		0	0	94.6596514	94.7596513
21685	0.0999895	183	satiated	stimuli/non_foods\non-food_inanimate_rope.jpg	1	2	1	non-food_inanimate_rope	0	W	16	0	204	0		0	0	94.8096687	94.9096582
21722.5	0.0999748	184	satiated	stimuli/non_foods\non-food_inanimate_protractor.jpg	1	2	1	non-food_inanimate_protractor	0	M	9	0	201	0		0	0	94.959673	95.0596478
21760	0.0999753	185	satiated	stimuli/non_foods\non-food_inanimate_nest.jpg	1	2	1	non-food_inanimate_nest	0	T	14	0	196	0		0	0	95.1096803	95.2096556
21797.5	0.0999635	186	satiated	stimuli/non_foods\non-food_animate_donkey.jpg	1	2	1	non-food_animate_donkey	0	K	7	0	107	0		0	0	95.2596674	95.3596309
21835	0.0999847	187	satiated	stimuli/non_foods\non-food_animate_fox.jpg	1	2	1	non-food_animate_fox	0	W	16	0	112	0		0	0	95.4096607	95.5096454
21872.5	0.0999797	188	satiated	stimuli/non_foods\non-food_animate_butterfly.jpg	1	2	1	non-food_animate_butterfly	0	H	5	0	96	0		0	0	95.5596583	95.659638
21910	0.0999744	189	satiated	stimuli/foods\cinnamon.jpg	1	2	1	cinnamon	1	S	13	0	30	0		0	0	95.7096629	95.8096373
21947.5	0.0999805	190	satiated	stimuli/non_foods\non-food_animate_camel.jpg	1	2	1	non-food_animate_camel	0	W	16	0	97	0		0	0	95.8596561	95.9596366
21985	0.0999864	191	satiated	stimuli/non_foods\non-food_animate_cat.jpg	1	2	1	non-food_animate_cat	0	X	17	0	98	0		0	0	96.00965	96.1096364
22022.5	0.0999843	192	satiated	stimuli/non_foods\non-food_inanimate_socks.jpg	1	2	1	non-food_inanimate_socks	0	B	0	0	211	0		0	0	96.1596477	96.259632
22060	0.0999823	193	satiated	stimuli/foods\lamb_chops.jpg	1	2	1	lamb_chops	1	L	8	0	70	0		0	0	96.3096499	96.4096322
22097.5	0.0999924	194	satiated	stimuli/non_foods\non-food_inanimate_bowling_ball.jpg	1	2	1	non-food_inanimate_bowling_ball	0	M	9	0	162	0		0	0	96.4596497	96.5596421
22135	0.0999557	195	satiated	stimuli/non_foods\non-food_inanimate_briefcase.jpg	1	2	1	non-food_inanimate_briefcase	0	L	8	0	163	0		0	0	96.6096543	96.70961
22172.5	0.1000424	196	satiated	stimuli/foods\stew_with_potatoes_and_carrots.jpg	1	2	1	stew_with_potatoes_and_carrots	1	W	16	0	271	0		0	0	96.7596369	96.8596793
22210	0.0999561	197	satiated	stimuli/foods\mortadella.jpg	1	2	1	mortadella	1	H	5	0	83	0		0	0	96.9096515	97.0096076
22247.5	0.0999855	198	satiated	stimuli/non_foods\non-food_inanimate_canoe.jpg	1	2	1	non-food_inanimate_canoe	0	F	3	0	170	0		0	0	97.0596448	97.1596303
22285	0.0999884	199	satiated	stimuli/non_foods\non-food_animate_sea_lion.jpg	1	2	1	non-food_animate_sea_lion	0	C	1	0	143	0		0	0	97.2096425	97.3096309
22322.5	0.0999814	200	satiated	stimuli/non_foods\non-food_inanimate_tulip.jpg	1	2	1	non-food_inanimate_tulip	0	F	3	0	224	0		0	0	97.3596441	97.4596255
22360	0.0999894	201	satiated	stimuli/foods\coffee_beans.jpg	1	2	1	coffee_beans	1	P	11	0	34	0		0	0	97.5096383	97.6096277
22397.5	0.0999848	202	satiated	stimuli/foods\radish.jpg	1	2	1	radish	1	K	7	0	251	0		0	0	97.6596418	97.7596266
22435	0.0999825	203	satiated	stimuli/foods\cooked_ham.jpg	1	2	1	cooked_ham	1	X	17	0	35	0		0	0	97.8096387	97.9096212
22472.5	0.0999795	204	satiated	stimuli/non_foods\non-food_inanimate_bush.jpg	1	2	1	non-food_inanimate_bush	0	W	16	0	167	0		0	0	97.9596422	98.0596217
22510	0.0999785	205	satiated	stimuli/non_foods\non-food_animate_yellow_bug.jpg	1	2	1	non-food_animate_yellow_bug	0	H	5	0	155	0		0	0	98.1096344	98.2096129
22547.5	0.099989	206	satiated	stimuli/non_foods\non-food_animate_ladybug.jpg	1	2	1	non-food_animate_ladybug	0	T	14	0	124	0		0	0	98.2596321	98.3596211
22585	0.0999884	207	satiated	stimuli/foods\brussel_sprouts.jpg	1	2	1	brussel_sprouts	1	Z	18	0	15	0		0	0	98.4096314	98.5096198
22622.5	0.0999615	208	satiated	stimuli/non_foods\non-food_animate_Asian_man.jpg	1	2	1	non-food_animate_Asian_man	0	G	4	0	88	0		0	0	98.559652	98.6596135
22660	0.0999794	209	satiated	stimuli/non_foods\non-food_inanimate_ring.jpg	1	2	1	non-food_inanimate_ring	0	W	16	0	203	0		0	0	98.7096244	98.8096038
22697.5	0.0999838	210	satiated	stimuli/foods\steak.jpg	1	2	1	steak	1	T	14	0	270	0		0	0	98.8596257	98.9596095
22735	0.0999788	211	satiated	stimuli/non_foods\non-food_inanimate_drum_set.jpg	1	2	1	non-food_inanimate_drum_set	0	S	13	0	179	0		0	0	99.0096228	99.1096016
22772.5	0.099974	212	satiated	stimuli/non_foods\non-food_animate_duck.jpg	1	2	1	non-food_animate_duck	0	X	17	0	109	0		0	0	99.1596321	99.2596061
22810	0.0999836	213	satiated	stimuli/foods\dates.jpg	1	2	1	dates	1	U	23	1	43	0		0	0	99.3096199	99.4096035
22847.5	0.0999854	214	satiated	stimuli/non_foods\non-food_animate_green_bug.jpg	1	2	1	non-food_animate_green_bug	0	F	3	0	118	0		0	0	99.4596153	99.5596007
22885	0.0999846	215	satiated	stimuli/foods\mussels.jpg	1	2	1	mussels	1	P	11	0	86	0		0	0	99.6096164	99.709601
22922.5	0.09998	216	satiated	stimuli/non_foods\non-food_animate_elephant.jpg	1	2	1	non-food_animate_elephant	0	G	4	0	111	1	a	0.4501804	1	99.759621	99.859601
22960	0.0999853	217	satiated	stimuli/non_foods\non-food_inanimate_cap.jpg	1	2	1	non-food_inanimate_cap	0	W	16	0	171	0		0	0	99.9096125	100.0095978
22997.5	0.0999844	218	satiated	stimuli/non_foods\non-food_inanimate_construction_helment.jpg	1	2	1	non-food_inanimate_construction_helment	0	T	14	0	175	0		0	0	100.0596104	100.1595948
23035	0.1000009	219	satiated	stimuli/foods\cabbage.jpg	1	2	1	cabbage	1	G	4	0	16	0		0	0	100.2095989	100.3095998
23072.5	0.0999613	220	satiated	stimuli/non_foods\non-food_inanimate_horn.jpg	1	2	1	non-food_inanimate_horn	0	J	6	0	190	0		0	0	100.3596317	100.459593
23110	0.0999925	221	satiated	stimuli/non_foods\non-food_inanimate_table.jpg	1	2	1	non-food_inanimate_table	0	K	7	0	217	0		0	0	100.5096046	100.6095971
23147.5	0.0999852	222	satiated	stimuli/foods\strawberry.jpg	1	2	1	strawberry	1	F	3	0	272	0		0	0	100.6596036	100.7595888
23185	0.099977	223	satiated	stimuli/foods\swordfish.jpg	1	2	1	swordfish	1	S	13	0	273	0		0	0	100.8096079	100.9095849
23222.5	0.0999872	224	satiated	stimuli/foods\lentils.jpg	1	2	1	lentils	1	K	7	0	74	0		0	0	100.9596	101.0595872
23260	0.099982	225	satiated	stimuli/foods\almonds.jpg	1	2	1	almonds	1	S	13	0	0	0		0	0	101.1096026	101.2095846
23297.5	0.0999775	226	satiated	stimuli/foods\apricot.jpg	1	2	1	apricot	1	L	8	0	2	0		0	0	101.2595961	101.3595736
23335	0.0999925	227	satiated	stimuli/non_foods\non-food_inanimate_scissors.jpg	1	2	1	non-food_inanimate_scissors	0	M	9	0	205	0		0	0	101.4095965	101.509589
23372.5	0.0999817	228	satiated	stimuli/non_foods\non-food_inanimate_leaf.jpg	1	2	1	non-food_inanimate_leaf	0	F	3	0	192	0		0	0	101.5595957	101.6595774
23410	0.0999823	229	satiated	stimuli/non_foods\non-food_animate_raccoon.jpg	1	2	1	non-food_animate_raccoon	0	C	1	0	139	0		0	0	101.7095947	101.809577
23447.5	0.0999957	230	satiated	stimuli/non_foods\non-food_animate_mouse.jpg	1	2	1	non-food_animate_mouse	0	R	12	0	131	0		0	0	101.8595704	101.9595661
23485	0.1000208	231	satiated	stimuli/non_foods\non-food_inanimate_nailpolish.jpg	1	2	1	non-food_inanimate_nailpolish	0	V	15	0	195	0		0	0	102.0095799	102.1096007
23522.5	0.0999832	232	satiated	stimuli/foods\donut.jpg	1	2	1	donut	1	B	0	0	44	0		0	0	102.1595889	102.2595721
23560	0.0999875	233	satiated	stimuli/non_foods\non-food_animate_young_girl.jpg	1	2	1	non-food_animate_young_girl	0	D	2	0	157	0		0	0	102.3095812	102.4095687
23597.5	0.0999833	234	satiated	stimuli/non_foods\non-food_inanimate_guitar.jpg	1	2	1	non-food_inanimate_guitar	0	P	11	0	185	0		0	0	102.4595833	102.5595666
23635	0.0999831	235	satiated	stimuli/non_foods\non-food_inanimate_lighter.jpg	1	2	1	non-food_inanimate_lighter	0	W	16	0	193	0		0	0	102.6095833	102.7095664
23672.5	0.0999846	236	satiated	stimuli/non_foods\non-food_inanimate_orchid.jpg	1	2	1	non-food_inanimate_orchid	0	V	15	0	198	0		0	0	102.7595777	102.8595623
23710	0.0999833	237	satiated	stimuli/foods\fried_calamari.jpg	1	2	1	fried_calamari	1	S	13	0	50	0		0	0	102.9095786	103.0095619
23747.5	0.0999866	238	satiated	stimuli/foods\lemon.jpg	1	2	1	lemon	1	H	5	0	72	0		0	0	103.0595689	103.1595555
23785	0.0999851	239	satiated	stimuli/foods\baked_lamb_with_potatoes.jpg	1	2	1	baked_lamb_with_potatoes	1	J	6	0	8	0		0	0	103.2095658	103.3095509
23822.5	0.0999846	240	satiated	stimuli/non_foods\non-food_inanimate_fire_extinguisher.jpg	1	2	1	non-food_inanimate_fire_extinguisher	0	T	14	0	181	0		0	0	103.359566	103.4595506
23860	0.09998	241	satiated	stimuli/non_foods\non-food_animate_snail.jpg	1	2	1	non-food_animate_snail	0	G	4	0	149	0		0	0	103.5095646	103.6095446
23897.5	0.0999837	242	satiated	stimuli/foods\potatoes.jpg	1	2	1	potatoes	1	R	12	0	248	0		0	0	103.6595597	103.7595434
23935	0.0999998	243	satiated	stimuli/non_foods\non-food_animate_swan.jpg	1	2	1	non-food_animate_swan	0	X	17	0	152	0		0	0	103.8095682	103.909568
23972.5	0.0999623	244	satiated	stimuli/foods\cauliflower.jpg	1	2	1	cauliflower	1	W	16	0	20	0		0	0	103.9595889	104.0595512
24010	0.0999859	245	satiated	stimuli/non_foods\non-food_animate_iguana.jpg	1	2	1	non-food_animate_iguana	0	L	8	0	121	0		0	0	104.1095647	104.2095506
24047.5	0.0999832	246	satiated	stimuli/foods\pumpkin.jpg	1	2	1	pumpkin	1	N	10	0	250	0		0	0	104.2595532	104.3595364
24085	0.0999883	247	satiated	stimuli/foods\fried_zucchini.jpg	1	2	1	fried_zucchini	1	W	16	0	51	0		0	0	104.4095513	104.5095396
24122.5	0.0999834	248	satiated	stimuli/foods\capsicum.jpg	1	2	1	capsicum	1	X	17	0	18	0		0	0	104.5595498	104.6595332
24160	0.099983	249	satiated	stimuli/foods\oven-roasted_tomatoes.jpg	1	2	1	oven-roasted_tomatoes	1	S	13	0	232	0		0	0	104.7095477	104.8095307
24197.5	0.0999836	250	satiated	stimuli/non_foods\non-food_inanimate_broom.jpg	1	2	1	non-food_inanimate_broom	0	R	12	0	164	0		0	0	104.859549	104.9595326
24235	0.1000037	251	satiated	stimuli/non_foods\non-food_inanimate_folding_chair.jpg	1	2	1	non-food_inanimate_folding_chair	0	T	14	0	182	0		0	0	105.0095452	105.1095489
24272.5	0.0999832	252	satiated	stimuli/non_foods\non-food_inanimate_buds.jpg	1	2	1	non-food_inanimate_buds	0	H	5	0	166	0		0	0	105.1595411	105.2595243
24310	0.0999941	253	satiated	stimuli/non_foods\non-food_animate_clown.jpg	1	2	1	non-food_animate_clown	0	I	21	1	102	0		0	0	105.3095409	105.409535
24347.5	0.0999844	254	satiated	stimuli/foods\toasted_bread_with_tomatoes.jpg	1	2	1	toasted_bread_with_tomatoes	1	F	3	0	275	0		0	0	105.4595469	105.5595313
24385	0.0999997	255	satiated	stimuli/non_foods\non-food_inanimate_toy_airplane.jpg	1	2	1	non-food_inanimate_toy_airplane	0	K	7	0	222	0		0	0	105.609575	105.7095747
24422.5	0.0999775	256	satiated	stimuli/foods\apple.jpg	1	2	1	apple	1	V	15	0	1	0		0	0	105.7595499	105.8595274
24460	0.0999871	257	satiated	stimuli/foods\cherry.jpg	1	2	1	cherry	1	G	4	0	23	0		0	0	105.9095405	106.0095276
24497.5	0.0999923	258	satiated	stimuli/non_foods\non-food_inanimate_bicycle.jpg	1	2	1	non-food_inanimate_bicycle	0	R	12	0	161	0		0	0	106.0595431	106.1595354
24535	0.0999847	259	satiated	stimuli/non_foods\non-food_animate_bee.jpg	1	2	1	non-food_animate_bee	0	P	11	0	95	0		0	0	106.2095388	106.3095235
24572.5	0.0999857	260	satiated	stimuli/non_foods\non-food_inanimate_watering_can.jpg	1	2	1	non-food_inanimate_watering_can	0	C	1	0	225	0		0	0	106.359539	106.4595247
24610	0.0999859	261	satiated	stimuli/foods\cinnamon_sroll.jpg	1	2	1	cinnamon_sroll	1	X	17	0	31	0		0	0	106.5095321	106.609518
24647.5	0.099979	262	satiated	stimuli/non_foods\non-food_animate_baby_crawling.jpg	1	2	1	non-food_animate_baby_crawling	0	T	14	0	92	0		0	0	106.6595301	106.7595091
24685	0.0999831	263	satiated	stimuli/non_foods\non-food_inanimate_highlighter.jpg	1	2	1	non-food_inanimate_highlighter	0	B	0	0	189	0		0	0	106.8095256	106.9095087
24722.5	0.0999834	264	satiated	stimuli/foods\potato_chips.jpg	1	2	1	potato_chips	1	X	17	0	247	0		0	0	106.9595231	107.0595065
24760	0.099978	265	satiated	stimuli/non_foods\non-food_animate_ant.jpg	1	2	1	non-food_animate_ant	0	P	11	0	91	0		0	0	107.1095209	107.2094989
24797.5	0.0999746	266	satiated	stimuli/non_foods\non-food_inanimate_jeans.jpg	1	2	1	non-food_inanimate_jeans	0	X	17	0	191	0		0	0	107.2595267	107.3595013
24835	0.0999678	267	satiated	stimuli/non_foods\non-food_animate_caterpillar.jpg	1	2	1	non-food_animate_caterpillar	0	S	13	0	99	0		0	0	107.4095319	107.5094997
24872.5	0.0999707	268	satiated	stimuli/foods\chocolate_pudding.jpg	1	2	1	chocolate_pudding	1	J	6	0	29	0		0	0	107.5595229	107.6594936
24910	0.1000003	269	satiated	stimuli/foods\taco.jpg	1	2	1	taco	1	S	13	0	274	0		0	0	107.7095035	107.8095038
24947.5	0.0999901	270	satiated	stimuli/foods\orange.jpg	1	2	1	orange	1	X	17	0	230	0		0	0	107.8595168	107.9595069
24985	0.099984	271	satiated	stimuli/foods\lime.jpg	1	2	1	lime	1	M	9	0	76	0		0	0	108.0095176	108.1095016
25022.5	0.0999832	272	satiated	stimuli/foods\chestnut.jpg	1	2	1	chestnut	1	G	4	0	24	0		0	0	108.1595147	108.2594979
25060	0.0999884	273	satiated	stimuli/foods\cucumber.jpg	1	2	1	cucumber	1	B	0	0	41	0		0	0	108.3095115	108.4094999
25097.5	0.0999748	274	satiated	stimuli/non_foods\non-food_animate_lion.jpg	1	2	1	non-food_animate_lion	0	S	13	0	125	0		0	0	108.459511	108.5594858
25135	0.099986	275	satiated	stimuli/non_foods\non-food_inanimate_tree.jpg	1	2	1	non-food_inanimate_tree	0	X	17	0	223	0		0	0	108.6095103	108.7094963
25172.5	0.0999863	276	satiated	stimuli/foods\chocolate_bar.jpg	1	2	1	chocolate_bar	1	G	4	0	26	0		0	0	108.7595076	108.8594939
25210	0.0999861	277	satiated	stimuli/foods\lasagna.jpg	1	2	1	lasagna	1	H	5	0	71	0		0	0	108.9095046	109.0094907
25247.5	0.0999872	278	satiated	stimuli/foods\lemon_meringue_pie.jpg	1	2	1	lemon_meringue_pie	1	F	3	0	73	0		0	0	109.0595062	109.1594934
25285	0.0999959	279	satiated	stimuli/foods\meatballs.jpg	1	2	1	meatballs	1	P	11	0	81	0		0	0	109.2095057	109.3095016
25868.25	0.0999778	280	satiated	stimuli/foods\pickles.jpg	1	3	1	pickles	1	V	15	0	242	0		0	0	111.5428148	111.6427926
25905.75	0.0999582	281	satiated	stimuli/foods\strawberry.jpg	1	3	1	strawberry	1	X	17	0	272	0		0	0	111.6928086	111.7927668
25943.25	0.0999641	282	satiated	stimuli/foods\avocado.jpg	1	3	1	avocado	1	M	9	0	5	0		0	0	111.842815	111.9427791
25980.75	0.0999713	283	satiated	stimuli/non_foods\non-food_inanimate_broom.jpg	1	3	1	non-food_inanimate_broom	0	T	14	0	164	0		0	0	111.9928063	112.0927776
26018.25	0.099979	284	satiated	stimuli/foods\honey.jpg	1	3	1	honey	1	Z	18	0	66	0		0	0	112.1427955	112.2427745
26055.75	0.0999837	285	satiated	stimuli/foods\cereal.jpg	1	3	1	cereal	1	T	14	0	22	0		0	0	112.2927934	112.3927771
26093.25	0.0999676	286	satiated	stimuli/non_foods\non-food_animate_ram.jpg	1	3	1	non-food_animate_ram	0	J	6	0	140	0		0	0	112.44281	112.5427776
26130.75	0.0999848	287	satiated	stimuli/non_foods\non-food_inanimate_chair.jpg	1	3	1	non-food_inanimate_chair	0	F	3	0	172	0		0	0	112.5927907	112.6927755
26168.25	0.0999814	288	satiated	stimuli/non_foods\non-food_animate_Asian_man.jpg	1	3	1	non-food_animate_Asian_man	0	B	0	0	88	0		0	0	112.7427861	112.8427675
26205.75	0.0999859	289	satiated	stimuli/non_foods\non-food_inanimate_couch.jpg	1	3	1	non-food_inanimate_couch	0	J	6	0	176	0		0	0	112.8927846	112.9927705
26243.25	0.0999871	290	satiated	stimuli/foods\grapes.jpg	1	3	1	grapes	1	L	8	0	60	0		0	0	113.0427809	113.142768
26280.75	0.0999835	291	satiated	stimuli/foods\potatoes.jpg	1	3	1	potatoes	1	P	11	0	248	0		0	0	113.1927844	113.2927679
26318.25	0.0999761	292	satiated	stimuli/non_foods\non-food_animate_giraffe.jpg	1	3	1	non-food_animate_giraffe	0	J	6	0	115	0		0	0	113.3427824	113.4427585
26355.75	0.0999925	293	satiated	stimuli/foods\mango.jpg	1	3	1	mango	1	G	4	0	80	0		0	0	113.4927788	113.5927713
26393.25	0.0999729	294	satiated	stimuli/foods\bagel.jpg	1	3	1	bagel	1	W	16	0	6	0		0	0	113.6427993	113.7427722
26430.75	0.0999828	295	satiated	stimuli/foods\cream_donuts.jpg	1	3	1	cream_donuts	1	X	17	0	39	0		0	0	113.7927855	113.8927683
26468.25	0.0999807	296	satiated	stimuli/foods\rice_cake.jpg	1	3	1	rice_cake	1	D	2	0	258	0		0	0	113.9427715	114.0427522
26505.75	0.0999765	297	satiated	stimuli/foods\meatballs.jpg	1	3	1	meatballs	1	N	10	0	81	0		0	0	114.0927804	114.1927569
26543.25	0.0999887	298	satiated	stimuli/non_foods\non-food_animate_Causasian_man.jpg	1	3	1	non-food_animate_Causasian_man	0	L	8	0	89	0		0	0	114.2427649	114.3427536
26580.75	0.0999755	299	satiated	stimuli/non_foods\non-food_inanimate_teddy_bear.jpg	1	3	1	non-food_inanimate_teddy_bear	0	N	10	0	218	0		0	0	114.3927687	114.4927442
26618.25	0.0999983	300	satiated	stimuli/non_foods\non-food_inanimate_scissors.jpg	1	3	1	non-food_inanimate_scissors	0	J	6	0	205	0		0	0	114.5427616	114.6427599
26655.75	0.1000073	301	satiated	stimuli/foods\radish.jpg	1	3	1	radish	1	C	1	0	251	0		0	0	114.6927529	114.7927602
26693.25	0.0999508	302	satiated	stimuli/non_foods\non-food_animate_grasshopper.jpg	1	3	1	non-food_animate_grasshopper	0	Z	18	0	117	0		0	0	114.8428052	114.942756
26730.75	0.0999817	303	satiated	stimuli/foods\fruit_pie.jpg	1	3	1	fruit_pie	1	J	6	0	54	0		0	0	114.9927699	115.0927516
26768.25	0.09999	304	satiated	stimuli/non_foods\non-food_animate_runner.jpg	1	3	1	non-food_animate_runner	0	Z	18	0	142	0		0	0	115.1427671	115.2427571
26805.75	0.1000145	305	satiated	stimuli/non_foods\non-food_animate_tortoise.jpg	1	3	1	non-food_animate_tortoise	0	K	7	0	153	0		0	0	115.2927464	115.3927609
26843.25	0.0999824	306	satiated	stimuli/non_foods\non-food_animate_sea_turtle.jpg	1	3	1	non-food_animate_sea_turtle	0	X	17	0	144	0		0	0	115.4427602	115.5427426
26880.75	0.099982	307	satiated	stimuli/non_foods\non-food_inanimate_highlighter.jpg	1	3	1	non-food_inanimate_highlighter	0	C	1	0	189	0		0	0	115.592756	115.692738
26918.25	0.0999791	308	satiated	stimuli/non_foods\non-food_inanimate_suitcase.jpg	1	3	1	non-food_inanimate_suitcase	0	D	2	0	215	0		0	0	115.742756	115.8427351
26955.75	0.0999828	309	satiated	stimuli/non_foods\non-food_animate_iguana.jpg	1	3	1	non-food_animate_iguana	0	L	8	0	121	0		0	0	115.8927511	115.9927339
26993.25	0.0999851	310	satiated	stimuli/foods\minestrone_soup.jpg	1	3	1	minestrone_soup	1	P	11	0	82	0		0	0	116.0427606	116.1427457
27030.75	0.0999753	311	satiated	stimuli/foods\pomegranate.jpg	1	3	1	pomegranate	1	K	7	0	244	0		0	0	116.1927559	116.2927312
27068.25	0.0999822	312	satiated	stimuli/foods\cooked_ham.jpg	1	3	1	cooked_ham	1	C	1	0	35	0		0	0	116.3427468	116.442729
27105.75	0.0999911	313	satiated	stimuli/foods\egg.jpg	1	3	1	egg	1	J	6	0	45	0		0	0	116.4927438	116.5927349
27143.25	0.099983	314	satiated	stimuli/non_foods\non-food_inanimate_bush.jpg	1	3	1	non-food_inanimate_bush	0	P	11	0	167	0		0	0	116.6427486	116.7427316
27180.75	0.0999889	315	satiated	stimuli/foods\fruit_flan.jpg	1	3	1	fruit_flan	1	G	4	0	53	0		0	0	116.7927468	116.8927357
27218.25	0.0999853	316	satiated	stimuli/non_foods\non-food_inanimate_shell.jpg	1	3	1	non-food_inanimate_shell	0	J	6	0	206	0		0	0	116.9427448	117.0427301
27255.75	0.1	317	satiated	stimuli/non_foods\non-food_animate_ladybug.jpg	1	3	1	non-food_animate_ladybug	0	S	13	0	124	0		0	0	117.0927448	117.1927448
27293.25	0.0999833	318	satiated	stimuli/foods\omelette.jpg	1	3	1	omelette	1	N	10	0	228	0		0	0	117.2427395	117.3427228
27330.75	0.0999867	319	satiated	stimuli/non_foods\non-food_inanimate_headphones.jpg	1	3	1	non-food_inanimate_headphones	0	M	9	0	188	0		0	0	117.3927302	117.4927169
27368.25	0.0999862	320	satiated	stimuli/foods\potato_chips.jpg	1	3	1	potato_chips	1	C	1	0	247	0		0	0	117.5427323	117.6427185
27405.75	0.0999851	321	satiated	stimuli/foods\lettuce.jpg	1	3	1	lettuce	1	W	16	0	75	0		0	0	117.6927308	117.7927159
27443.25	0.0999901	322	satiated	stimuli/non_foods\non-food_inanimate_chandelier.jpg	1	3	1	non-food_inanimate_chandelier	0	T	14	0	173	0		0	0	117.8427226	117.9427127
27480.75	0.0999811	323	satiated	stimuli/foods\peas.jpg	1	3	1	peas	1	L	8	0	240	0		0	0	117.9927259	118.092707
27518.25	0.0999803	324	satiated	stimuli/foods\museli_bars.jpg	1	3	1	museli_bars	1	H	5	0	84	0		0	0	118.1427244	118.2427047
27555.75	0.0999926	325	satiated	stimuli/non_foods\non-food_animate_clown.jpg	1	3	1	non-food_animate_clown	0	W	16	0	102	0		0	0	118.2927253	118.3927179
27593.25	0.100009	326	satiated	stimuli/non_foods\non-food_inanimate_nest.jpg	1	3	1	non-food_inanimate_nest	0	L	8	0	196	0		0	0	118.4427351	118.5427441
27630.75	0.0999838	327	satiated	stimuli/non_foods\non-food_animate_mouse.jpg	1	3	1	non-food_animate_mouse	0	R	12	0	131	0		0	0	118.5927266	118.6927104
27668.25	0.0999834	328	satiated	stimuli/foods\chilli.jpg	1	3	1	chilli	1	B	0	0	25	0		0	0	118.7427285	118.8427119
27705.75	0.1000114	329	satiated	stimuli/foods\brussel_sprouts.jpg	1	3	1	brussel_sprouts	1	K	7	0	15	0		0	0	118.8927224	118.9927338
27743.25	0.0999756	330	satiated	stimuli/non_foods\non-food_animate_caterpillar.jpg	1	3	1	non-food_animate_caterpillar	0	L	8	0	99	0		0	0	119.042752	119.1427276
27780.75	0.0999941	331	satiated	stimuli/non_foods\non-food_inanimate_towel.jpg	1	3	1	non-food_inanimate_towel	0	X	17	0	221	0		0	0	119.1927182	119.2927123
27818.25	0.0999888	332	satiated	stimuli/non_foods\non-food_animate_mammoth.jpg	1	3	1	non-food_animate_mammoth	0	H	5	0	128	0		0	0	119.3427108	119.4426996
27855.75	0.0999887	333	satiated	stimuli/foods\apricot.jpg	1	3	1	apricot	1	P	11	0	2	0		0	0	119.4927148	119.5927035
27893.25	0.0999817	334	satiated	stimuli/non_foods\non-food_animate_dragonfly.jpg	1	3	1	non-food_animate_dragonfly	0	D	2	0	108	0		0	0	119.6427151	119.7426968
27930.75	0.099988	335	satiated	stimuli/non_foods\non-food_animate_cheetah.jpg	1	3	1	non-food_animate_cheetah	0	L	8	0	100	0		0	0	119.7927076	119.8926956
27968.25	0.0999851	336	satiated	stimuli/foods\green_beans.jpg	1	3	1	green_beans	1	B	0	0	61	0		0	0	119.942711	120.0426961
28005.75	0.099982	337	satiated	stimuli/non_foods\non-food_inanimate_folding_chair.jpg	1	3	1	non-food_inanimate_folding_chair	0	F	3	0	182	0		0	0	120.0927086	120.1926906
28043.25	0.1000014	338	satiated	stimuli/foods\blackberry.jpg	1	3	1	blackberry	1	C	1	0	11	0		0	0	120.2427057	120.3427071
28080.75	0.0999856	339	satiated	stimuli/foods\lemon.jpg	1	3	1	lemon	1	H	5	0	72	0		0	0	120.3927052	120.4926908
28118.25	0.0999866	340	satiated	stimuli/non_foods\non-food_animate_chicken.jpg	1	3	1	non-food_animate_chicken	0	V	15	0	101	0		0	0	120.542701	120.6426876
28155.75	0.1000236	341	satiated	stimuli/non_foods\non-food_animate_lion.jpg	1	3	1	non-food_animate_lion	0	M	9	0	125	0		0	0	120.6927031	120.7927267
28193.25	0.0999641	342	satiated	stimuli/foods\raw_ham.jpg	1	3	1	raw_ham	1	R	12	0	253	0		0	0	120.8427191	120.9426832
28230.75	0.0999849	343	satiated	stimuli/foods\swordfish.jpg	1	3	1	swordfish	1	H	5	0	273	0		0	0	120.9926983	121.0926832
28268.25	0.1000067	344	satiated	stimuli/foods\cracker.jpg	1	3	1	cracker	1	Z	18	0	38	0		0	0	121.1426752	121.2426819
28305.75	0.0999863	345	satiated	stimuli/non_foods\non-food_animate_polar_bear.jpg	1	3	1	non-food_animate_polar_bear	0	G	4	0	137	0		0	0	121.2926933	121.3926796
28343.25	0.0999891	346	satiated	stimuli/non_foods\non-food_animate_cow.jpg	1	3	1	non-food_animate_cow	0	W	16	0	103	0		0	0	121.4426912	121.5426803
28380.75	0.0999864	347	satiated	stimuli/foods\linguine_with_clams.jpg	1	3	1	linguine_with_clams	1	C	1	0	77	0		0	0	121.5926811	121.6926675
28418.25	0.0999794	348	satiated	stimuli/foods\beetroots.jpg	1	3	1	beetroots	1	T	14	0	10	0		0	0	121.7426827	121.8426621
28455.75	0.0999718	349	satiated	stimuli/non_foods\non-food_inanimate_rope.jpg	1	3	1	non-food_inanimate_rope	0	J	6	0	204	0		0	0	121.8926921	121.9926639
28493.25	0.099986	350	satiated	stimuli/non_foods\non-food_inanimate_briefcase.jpg	1	3	1	non-food_inanimate_briefcase	0	P	11	0	163	0		0	0	122.042677	122.142663
28530.75	0.0999854	351	satiated	stimuli/non_foods\non-food_inanimate_lighter.jpg	1	3	1	non-food_inanimate_lighter	0	L	8	0	193	0		0	0	122.1926757	122.2926611
28568.25	0.0999828	352	satiated	stimuli/non_foods\non-food_inanimate_button.jpg	1	3	1	non-food_inanimate_button	0	P	11	0	168	0		0	0	122.3426851	122.4426679
28605.75	0.0999891	353	satiated	stimuli/foods\clams.jpg	1	3	1	clams	1	C	1	0	32	0		0	0	122.4926868	122.5926759
28643.25	0.0999726	354	satiated	stimuli/non_foods\non-food_animate_sea_lion.jpg	1	3	1	non-food_animate_sea_lion	0	H	5	0	143	0		0	0	122.6426942	122.7426668
28680.75	0.0999549	355	satiated	stimuli/foods\carrot.jpg	1	3	1	carrot	1	S	13	0	19	0		0	0	122.7926808	122.8926357
28718.25	0.099985	356	satiated	stimuli/non_foods\non-food_animate_baby_sitting.jpg	1	3	1	non-food_animate_baby_sitting	0	F	3	0	93	0		0	0	122.9426739	123.0426589
28755.75	0.0999813	357	satiated	stimuli/non_foods\non-food_inanimate_socks.jpg	1	3	1	non-food_inanimate_socks	0	B	0	0	211	0		0	0	123.0926774	123.1926587
28793.25	0.0999839	358	satiated	stimuli/foods\pork_and_rice.jpg	1	3	1	pork_and_rice	1	Z	18	0	245	0		0	0	123.2426706	123.3426545
28830.75	0.0999893	359	satiated	stimuli/foods\gnocchi.jpg	1	3	1	gnocchi	1	H	5	0	58	0		0	0	123.3926667	123.492656
28868.25	0.099976	360	satiated	stimuli/non_foods\non-food_inanimate_jeans.jpg	1	3	1	non-food_inanimate_jeans	0	P	11	0	191	0		0	0	123.5426692	123.6426452
28905.75	0.0999872	361	satiated	stimuli/foods\oregano.jpg	1	3	1	oregano	1	J	6	0	231	0		0	0	123.6926633	123.7926505
28943.25	0.0999848	362	satiated	stimuli/foods\nectarine.jpg	1	3	1	nectarine	1	K	7	0	87	0		0	0	123.8426657	123.9426505
28980.75	0.099984	363	satiated	stimuli/non_foods\non-food_inanimate_grass.jpg	1	3	1	non-food_inanimate_grass	0	D	2	0	184	0		0	0	123.9926626	124.0926466
29018.25	0.0999858	364	satiated	stimuli/foods\fruit_salad.jpg	1	3	1	fruit_salad	1	K	7	0	55	0		0	0	124.14266	124.2426458
29055.75	0.0999931	365	satiated	stimuli/foods\spaghetti_with_meat_sauce.jpg	1	3	1	spaghetti_with_meat_sauce	1	C	1	0	267	0		0	0	124.292673	124.3926661
29093.25	0.0999448	366	satiated	stimuli/foods\smoked_ham.jpg	1	3	1	smoked_ham	1	W	16	0	266	0		0	0	124.4426877	124.5426325
29130.75	0.1000044	367	satiated	stimuli/non_foods\non-food_inanimate_watering_can.jpg	1	3	1	non-food_inanimate_watering_can	0	B	0	0	225	0		0	0	124.5926353	124.6926397
29168.25	0.0999705	368	satiated	stimuli/non_foods\non-food_inanimate_soccer_ball.jpg	1	3	1	non-food_inanimate_soccer_ball	0	P	11	0	210	0		0	0	124.7426588	124.8426293
29205.75	0.0999884	369	satiated	stimuli/non_foods\non-food_animate_donkey.jpg	1	3	1	non-food_animate_donkey	0	S	13	0	107	0		0	0	124.8926461	124.9926345
29243.25	0.0999841	370	satiated	stimuli/non_foods\non-food_inanimate_fern.jpg	1	3	1	non-food_inanimate_fern	0	L	8	0	180	0		0	0	125.0426517	125.1426358
29280.75	0.0999823	371	satiated	stimuli/non_foods\non-food_animate_butterfly.jpg	1	3	1	non-food_animate_butterfly	0	T	14	0	96	0		0	0	125.1926495	125.2926318
29318.25	0.1000056	372	satiated	stimuli/non_foods\non-food_inanimate_bucket.jpg	1	3	1	non-food_inanimate_bucket	0	W	16	0	165	0		0	0	125.3426457	125.4426513
29355.75	0.0999827	373	satiated	stimuli/non_foods\non-food_inanimate_nettle.jpg	1	3	1	non-food_inanimate_nettle	0	B	0	0	197	0		0	0	125.492646	125.5926287
29393.25	0.0999836	374	satiated	stimuli/non_foods\non-food_animate_squirrel.jpg	1	3	1	non-food_animate_squirrel	0	T	14	0	150	0		0	0	125.6426441	125.7426277
29430.75	0.0999852	375	satiated	stimuli/non_foods\non-food_inanimate_bamboo.jpg	1	3	1	non-food_inanimate_bamboo	0	R	12	0	159	0		0	0	125.7926424	125.8926276
29468.25	0.0999952	376	satiated	stimuli/foods\potato_and_green_bean_salad.jpg	1	3	1	potato_and_green_bean_salad	1	X	17	0	246	0		0	0	125.9426391	126.0426343
29505.75	0.0999733	377	satiated	stimuli/foods\chocolate_bar.jpg	1	3	1	chocolate_bar	1	C	1	0	26	0		0	0	126.0926506	126.1926239
29543.25	0.0999873	378	satiated	stimuli/foods\asparagus.jpg	1	3	1	asparagus	1	N	10	0	4	0		0	0	126.2426353	126.3426226
29580.75	0.0999625	379	satiated	stimuli/non_foods\non-food_animate_frog.jpg	1	3	1	non-food_animate_frog	0	J	6	0	113	0		0	0	126.3926354	126.4925979
29618.25	0.099975	380	satiated	stimuli/foods\cupcake.jpg	1	3	1	cupcake	1	G	4	0	42	0		0	0	126.5426324	126.6426074
29655.75	0.099987	381	satiated	stimuli/non_foods\non-food_inanimate_padlock.jpg	1	3	1	non-food_inanimate_padlock	0	H	5	0	199	0		0	0	126.6926285	126.7926155
29693.25	0.0999975	382	satiated	stimuli/foods\pea_pod.jpg	1	3	1	pea_pod	1	S	13	0	237	0		0	0	126.8426187	126.9426162
29730.75	0.0999934	383	satiated	stimuli/non_foods\non-food_animate_raccoon.jpg	1	3	1	non-food_animate_raccoon	0	W	16	0	139	0		0	0	126.9926189	127.0926123
29768.25	0.100002	384	satiated	stimuli/foods\cinnamon_sroll.jpg	1	3	1	cinnamon_sroll	1	E	20	1	31	0		0	0	127.1426229	127.2426249
29805.75	0.0999818	385	satiated	stimuli/non_foods\non-food_animate_german_shepherd.jpg	1	3	1	non-food_animate_german_shepherd	0	X	17	0	114	0		0	0	127.292624	127.3926058
29843.25	0.0999872	386	satiated	stimuli/non_foods\non-food_animate_woman.jpg	1	3	1	non-food_animate_woman	0	S	13	0	154	1	a	0.3918141	1	127.4426103	127.5425975
29880.75	0.0999935	387	satiated	stimuli/non_foods\non-food_inanimate_stoplight.jpg	1	3	1	non-food_inanimate_stoplight	0	V	15	0	214	0		0	0	127.5926149	127.6926084
29918.25	0.0999929	388	satiated	stimuli/non_foods\non-food_inanimate_stapler.jpg	1	3	1	non-food_inanimate_stapler	0	T	14	0	213	0		0	0	127.7426208	127.8426137
29955.75	0.0999696	389	satiated	stimuli/non_foods\non-food_animate_hummingbird.jpg	1	3	1	non-food_animate_hummingbird	0	G	4	0	120	0		0	0	127.8926237	127.9925933
29993.25	0.0999901	390	satiated	stimuli/foods\oven-roasted_tomatoes.jpg	1	3	1	oven-roasted_tomatoes	1	T	14	0	232	0		0	0	128.0426059	128.142596
30030.75	0.0999818	391	satiated	stimuli/foods\rockmelon.jpg	1	3	1	rockmelon	1	X	17	0	262	0		0	0	128.1926059	128.2925877
30068.25	0.0999817	392	satiated	stimuli/non_foods\non-food_inanimate_guitar.jpg	1	3	1	non-food_inanimate_guitar	0	K	7	0	185	0		0	0	128.3426035	128.4425852
30105.75	0.099983	393	satiated	stimuli/foods\pancakes.jpg	1	3	1	pancakes	1	J	6	0	234	0		0	0	128.4926008	128.5925838
30143.25	0.0999867	394	satiated	stimuli/non_foods\non-food_inanimate_fire_extinguisher.jpg	1	3	1	non-food_inanimate_fire_extinguisher	0	M	9	0	181	0		0	0	128.6425985	128.7425852
30180.75	0.0999879	395	satiated	stimuli/non_foods\non-food_inanimate_bed.jpg	1	3	1	non-food_inanimate_bed	0	D	2	0	160	0		0	0	128.7926004	128.8925883
30218.25	0.0999793	396	satiated	stimuli/foods\lime.jpg	1	3	1	lime	1	R	12	0	76	0		0	0	128.9425993	129.0425786
30255.75	0.0999851	397	satiated	stimuli/foods\eggplant.jpg	1	3	1	eggplant	1	D	2	0	46	0		0	0	129.0925967	129.1925818
30293.25	0.0999873	398	satiated	stimuli/non_foods\non-food_inanimate_hay.jpg	1	3	1	non-food_inanimate_hay	0	V	15	0	187	0		0	0	129.2425887	129.342576
30330.75	0.0999886	399	satiated	stimuli/foods\broccoli.jpg	1	3	1	broccoli	1	H	5	0	13	0		0	0	129.3925908	129.4925794
30368.25	0.1000045	400	satiated	stimuli/foods\almonds.jpg	1	3	1	almonds	1	X	17	0	0	0		0	0	129.5425952	129.6425997
30405.75	0.100023	401	satiated	stimuli/foods\salmon.jpg	1	3	1	salmon	1	W	16	0	264	0		0	0	129.6925548	129.7925778
30443.25	0.0999851	402	satiated	stimuli/non_foods\non-food_animate_green_bug.jpg	1	3	1	non-food_animate_green_bug	0	G	4	0	118	0		0	0	129.8425949	129.94258
30480.75	0.0999768	403	satiated	stimuli/non_foods\non-food_animate_cat.jpg	1	3	1	non-food_animate_cat	0	U	23	1	98	0		0	0	129.9926035	130.0925803
30518.25	0.0999576	404	satiated	stimuli/foods\coffee_beans.jpg	1	3	1	coffee_beans	1	R	12	0	34	0		0	0	130.1425903	130.2425479
30555.75	0.0999838	405	satiated	stimuli/foods\fried_zucchini.jpg	1	3	1	fried_zucchini	1	P	11	0	51	0		0	0	130.2925922	130.392576
30593.25	0.0999778	406	satiated	stimuli/foods\lentils.jpg	1	3	1	lentils	1	N	10	0	74	1	a	0.4501949	1	130.4425849	130.5425627
30630.75	0.0999877	407	satiated	stimuli/foods\hazelnuts.jpg	1	3	1	hazelnuts	1	X	17	0	65	0		0	0	130.5925769	130.6925646
30668.25	0.0999942	408	satiated	stimuli/foods\chocolate_pudding.jpg	1	3	1	chocolate_pudding	1	H	5	0	29	0		0	0	130.7425678	130.842562
30705.75	0.1000003	409	satiated	stimuli/non_foods\non-food_animate_ant.jpg	1	3	1	non-food_animate_ant	0	N	10	0	91	0		0	0	130.8925678	130.9925681
30743.25	0.0999828	410	satiated	stimuli/non_foods\non-food_inanimate_construction_helment.jpg	1	3	1	non-food_inanimate_construction_helment	0	L	8	0	175	0		0	0	131.0425665	131.1425493
30780.75	0.0999896	411	satiated	stimuli/non_foods\non-food_animate_slug.jpg	1	3	1	non-food_animate_slug	0	M	9	0	148	0		0	0	131.1925725	131.2925621
30818.25	0.0999599	412	satiated	stimuli/foods\lasagna.jpg	1	3	1	lasagna	1	L	8	0	71	0		0	0	131.3425759	131.4425358
30855.75	0.0999517	413	satiated	stimuli/non_foods\non-food_animate_dolphin.jpg	1	3	1	non-food_animate_dolphin	0	N	10	0	106	0		0	0	131.4926101	131.5925618
30893.25	0.0999897	414	satiated	stimuli/non_foods\non-food_animate_skunk.jpg	1	3	1	non-food_animate_skunk	0	B	0	0	147	0		0	0	131.6425672	131.7425569
30930.75	0.0999868	415	satiated	stimuli/foods\rice.jpg	1	3	1	rice	1	F	3	0	257	0		0	0	131.7925688	131.8925556
30968.25	0.0999832	416	satiated	stimuli/foods\spring_onions.jpg	1	3	1	spring_onions	1	X	17	0	269	0		0	0	131.9425714	132.0425546
31005.75	0.0999867	417	satiated	stimuli/foods\cauliflower.jpg	1	3	1	cauliflower	1	J	6	0	20	0		0	0	132.0925649	132.1925516
31043.25	0.0999872	418	satiated	stimuli/foods\baked_cod_with_carrots_and_green_beans.jpg	1	3	1	baked_cod_with_carrots_and_green_beans	1	L	8	0	7	0		0	0	132.2425667	132.3425539
31080.75	0.0999714	419	satiated	stimuli/non_foods\non-food_inanimate_waterlily.jpg	1	3	1	non-food_inanimate_waterlily	0	T	14	0	226	0		0	0	132.3925638	132.4925352
31622.5	0.0999748	420	satiated	stimuli/non_foods\non-food_animate_alligator.jpg	1	4	1	non-food_animate_alligator	0	L	8	0	90	0		0	0	134.5592152	134.65919
31660	0.0999838	421	satiated	stimuli/foods\waffle.jpg	1	4	1	waffle	1	G	4	0	278	0		0	0	134.709204	134.8091878
31697.5	0.0999788	422	satiated	stimuli/foods\capsicum.jpg	1	4	1	capsicum	1	T	14	0	18	0		0	0	134.8592067	134.9591855
31735	0.099986	423	satiated	stimuli/non_foods\non-food_animate_camel.jpg	1	4	1	non-food_animate_camel	0	H	5	0	97	0		0	0	135.0091905	135.1091765
31772.5	0.0999854	424	satiated	stimuli/foods\fennel.jpg	1	4	1	fennel	1	D	2	0	47	0		0	0	135.1591976	135.259183
31810	0.0999834	425	satiated	stimuli/non_foods\non-food_inanimate_alarm_clock.jpg	1	4	1	non-food_inanimate_alarm_clock	0	N	10	0	158	0		0	0	135.3091991	135.4091825
31847.5	0.0999773	426	satiated	stimuli/non_foods\non-food_inanimate_drum_set.jpg	1	4	1	non-food_inanimate_drum_set	0	G	4	0	179	0		0	0	135.4592056	135.5591829
31885	0.0999822	427	satiated	stimuli/non_foods\non-food_animate_peacock.jpg	1	4	1	non-food_animate_peacock	0	J	6	0	134	0		0	0	135.6091954	135.7091776
31922.5	0.0999877	428	satiated	stimuli/non_foods\non-food_inanimate_cupboard.jpg	1	4	1	non-food_inanimate_cupboard	0	G	4	0	177	0		0	0	135.7591865	135.8591742
31960	0.0999752	429	satiated	stimuli/non_foods\non-food_inanimate_cactus_pot_plant.jpg	1	4	1	non-food_inanimate_cactus_pot_plant	0	F	3	0	169	0		0	0	135.9091898	136.009165
31997.5	0.1000029	430	satiated	stimuli/non_foods\non-food_inanimate_tent.jpg	1	4	1	non-food_inanimate_tent	0	S	13	0	219	0		0	0	136.0592028	136.1592057
32035	0.0999834	431	satiated	stimuli/foods\croissant.jpg	1	4	1	croissant	1	C	1	0	40	0		0	0	136.2091876	136.309171
32072.5	0.099981	432	satiated	stimuli/non_foods\non-food_inanimate_sun_flower.jpg	1	4	1	non-food_inanimate_sun_flower	0	K	7	0	216	0		0	0	136.359188	136.459169
32110	0.1000016	433	satiated	stimuli/foods\lemon_meringue_pie.jpg	1	4	1	lemon_meringue_pie	1	D	2	0	73	0		0	0	136.5091649	136.6091665
32147.5	0.1000097	434	satiated	stimuli/foods\mushroom.jpg	1	4	1	mushroom	1	K	7	0	85	0		0	0	136.6591562	136.7591659
32185	0.0999898	435	satiated	stimuli/non_foods\non-food_animate_fox.jpg	1	4	1	non-food_animate_fox	0	B	0	0	112	0		0	0	136.809174	136.9091638
32222.5	0.0999861	436	satiated	stimuli/foods\pepperoni_pizza.jpg	1	4	1	pepperoni_pizza	1	S	13	0	241	0		0	0	136.9591764	137.0591625
32260	0.0999874	437	satiated	stimuli/foods\ice_cream.jpg	1	4	1	ice_cream	1	N	10	0	68	0		0	0	137.1091742	137.2091616
32297.5	0.0999962	438	satiated	stimuli/non_foods\non-food_inanimate_clover.jpg	1	4	1	non-food_inanimate_clover	0	G	4	0	174	0		0	0	137.2591742	137.3591704
32335	0.0999803	439	satiated	stimuli/non_foods\non-food_inanimate_bicycle.jpg	1	4	1	non-food_inanimate_bicycle	0	M	9	0	161	0		0	0	137.4091774	137.5091577
32372.5	0.0999784	440	satiated	stimuli/non_foods\non-food_inanimate_tree.jpg	1	4	1	non-food_inanimate_tree	0	X	17	0	223	0		0	0	137.5591767	137.6591551
32410	0.0999781	441	satiated	stimuli/non_foods\non-food_animate_snail.jpg	1	4	1	non-food_animate_snail	0	P	11	0	149	0		0	0	137.7091677	137.8091458
32447.5	0.0999974	442	satiated	stimuli/non_foods\non-food_animate_porcupine.jpg	1	4	1	non-food_animate_porcupine	0	F	3	0	138	0		0	0	137.8591723	137.9591697
32485	0.0999835	443	satiated	stimuli/foods\pumpkin.jpg	1	4	1	pumpkin	1	M	9	0	250	0		0	0	138.0091668	138.1091503
32522.5	0.0999841	444	satiated	stimuli/non_foods\non-food_animate_baby_crawling.jpg	1	4	1	non-food_animate_baby_crawling	0	C	1	0	92	0		0	0	138.1591635	138.2591476
32560	0.0999793	445	satiated	stimuli/non_foods\non-food_animate_parrot.jpg	1	4	1	non-food_animate_parrot	0	H	5	0	133	0		0	0	138.3091654	138.4091447
32597.5	0.099981	446	satiated	stimuli/non_foods\non-food_inanimate_horn.jpg	1	4	1	non-food_inanimate_horn	0	P	11	0	190	0		0	0	138.4591635	138.5591445
32635	0.099982	447	satiated	stimuli/foods\risotto_with_zucchini.jpg	1	4	1	risotto_with_zucchini	1	D	2	0	260	0		0	0	138.6091594	138.7091414
32672.5	0.0999851	448	satiated	stimuli/foods\taco.jpg	1	4	1	taco	1	W	16	0	274	0		0	0	138.7591581	138.8591432
32710	0.1000037	449	satiated	stimuli/foods\tomato.jpg	1	4	1	tomato	1	C	1	0	276	0		0	0	138.9091574	139.0091611
32747.5	0.0999882	450	satiated	stimuli/foods\red_cabbage.jpg	1	4	1	red_cabbage	1	Z	18	0	256	0		0	0	139.0591526	139.1591408
32785	0.0999901	451	satiated	stimuli/non_foods\non-food_inanimate_ring.jpg	1	4	1	non-food_inanimate_ring	0	L	8	0	203	0		0	0	139.2091455	139.3091356
32822.5	0.0999852	452	satiated	stimuli/non_foods\non-food_animate_killer_whale.jpg	1	4	1	non-food_animate_killer_whale	0	D	2	0	123	0		0	0	139.3591508	139.459136
32860	0.0999951	453	satiated	stimuli/foods\baked_lamb_with_potatoes.jpg	1	4	1	baked_lamb_with_potatoes	1	W	16	0	8	0		0	0	139.5091526	139.6091477
32897.5	0.0999842	454	satiated	stimuli/foods\cooked_prawn.jpg	1	4	1	cooked_prawn	1	L	8	0	36	0		0	0	139.659147	139.7591312
32935	0.0999569	455	satiated	stimuli/foods\dates.jpg	1	4	1	dates	1	T	14	0	43	0		0	0	139.8091641	139.909121
32972.5	0.099986	456	satiated	stimuli/foods\chocolate_chip_cookies.jpg	1	4	1	chocolate_chip_cookies	1	H	5	0	27	0		0	0	139.9591419	140.0591279
33010	0.0999845	457	satiated	stimuli/foods\pasta_carbonara.jpg	1	4	1	pasta_carbonara	1	O	22	1	236	0		0	0	140.1091403	140.2091248
33047.5	0.0999837	458	satiated	stimuli/non_foods\non-food_inanimate_cap.jpg	1	4	1	non-food_inanimate_cap	0	L	8	0	171	0		0	0	140.259141	140.3591247
33085	0.0999878	459	satiated	stimuli/foods\prawn.jpg	1	4	1	prawn	1	R	12	0	249	0		0	0	140.4091367	140.5091245
33122.5	0.099984	460	satiated	stimuli/foods\raw_sausage.jpg	1	4	1	raw_sausage	1	W	16	0	254	1	a	0.5418231	1	140.5591379	140.6591219
33160	0.1000172	461	satiated	stimuli/foods\corncob.jpg	1	4	1	corncob	1	R	12	0	37	0		0	0	140.709135	140.8091522
33197.5	0.099962	462	satiated	stimuli/foods\celery.jpg	1	4	1	celery	1	W	16	0	21	0		0	0	140.8591467	140.9591087
33235	0.099985	463	satiated	stimuli/non_foods\non-food_inanimate_hammer.jpg	1	4	1	non-food_inanimate_hammer	0	F	3	0	186	0		0	0	141.0091242	141.1091092
33272.5	0.0999802	464	satiated	stimuli/non_foods\non-food_animate_young_boy.jpg	1	4	1	non-food_animate_young_boy	0	L	8	0	156	0		0	0	141.1591241	141.2591043
33310	0.1000024	465	satiated	stimuli/foods\oyster.jpg	1	4	1	oyster	1	T	14	0	233	0		0	0	141.3091185	141.4091209
33347.5	0.0999515	466	satiated	stimuli/foods\pear.jpg	1	4	1	pear	1	R	12	0	239	0		0	0	141.4591527	141.5591042
33385	0.0999827	467	satiated	stimuli/non_foods\non-food_animate_penguin.jpg	1	4	1	non-food_animate_penguin	0	S	13	0	135	0		0	0	141.6091171	141.7090998
33422.5	0.0999779	468	satiated	stimuli/foods\savory_pie.jpg	1	4	1	savory_pie	1	C	1	0	265	0		0	0	141.7591156	141.8590935
33460	0.1000016	469	satiated	stimuli/foods\brie.jpg	1	4	1	brie	1	J	6	0	12	0		0	0	141.9091021	142.0091037
33497.5	0.099992	470	satiated	stimuli/foods\grilled_chicken_breast.jpg	1	4	1	grilled_chicken_breast	1	T	14	0	63	0		0	0	142.059115	142.159107
33535	0.0999822	471	satiated	stimuli/non_foods\non-food_animate_monkey.jpg	1	4	1	non-food_animate_monkey	0	W	16	0	130	0		0	0	142.2091112	142.3090934
33572.5	0.0999819	472	satiated	stimuli/foods\fries.jpg	1	4	1	fries	1	Z	18	0	52	0		0	0	142.359109	142.4590909
33610	0.100008	473	satiated	stimuli/foods\cannoli.jpg	1	4	1	cannoli	1	V	15	0	17	0		0	0	142.5091065	142.6091145
33647.5	0.0999852	474	satiated	stimuli/foods\peach.jpg	1	4	1	peach	1	P	11	0	238	0		0	0	142.6591146	142.7590998
33685	0.0999834	475	satiated	stimuli/non_foods\non-food_animate_seal.jpg	1	4	1	non-food_animate_seal	0	H	5	0	146	0		0	0	142.809113	142.9090964
33722.5	0.099971	476	satiated	stimuli/non_foods\non-food_inanimate_rack.jpg	1	4	1	non-food_inanimate_rack	0	Z	18	0	202	0		0	0	142.9591111	143.0590821
33760	0.1000104	477	satiated	stimuli/non_foods\non-food_animate_yellow_bug.jpg	1	4	1	non-food_animate_yellow_bug	0	G	4	0	155	0		0	0	143.1090973	143.2091077
33797.5	0.0999732	478	satiated	stimuli/non_foods\non-food_inanimate_moss.jpg	1	4	1	non-food_inanimate_moss	0	J	6	0	194	0		0	0	143.2591351	143.3591083
33835	0.0999942	479	satiated	stimuli/foods\chestnut.jpg	1	4	1	chestnut	1	W	16	0	24	0		0	0	143.409096	143.5090902
33872.5	0.0999931	480	satiated	stimuli/non_foods\non-food_inanimate_pine_cone.jpg	1	4	1	non-food_inanimate_pine_cone	0	G	4	0	200	0		0	0	143.5590867	143.6590798
33910	0.0999847	481	satiated	stimuli/foods\hamburger.jpg	1	4	1	hamburger	1	M	9	0	64	0		0	0	143.7090922	143.8090769
33947.5	0.0999854	482	satiated	stimuli/non_foods\non-food_inanimate_desk.jpg	1	4	1	non-food_inanimate_desk	0	B	0	0	178	0		0	0	143.85909	143.9590754
33985	0.0999928	483	satiated	stimuli/foods\cinnamon.jpg	1	4	1	cinnamon	1	F	3	0	30	0		0	0	144.0090868	144.1090796
34022.5	0.0999868	484	satiated	stimuli/non_foods\non-food_animate_llama.jpg	1	4	1	non-food_animate_llama	0	H	5	0	127	0		0	0	144.1590886	144.2590754
34060	0.0999795	485	satiated	stimuli/non_foods\non-food_animate_eagle.jpg	1	4	1	non-food_animate_eagle	0	U	23	1	110	0		0	0	144.3090901	144.4090696
34097.5	0.0999948	486	satiated	stimuli/non_foods\non-food_animate_gorilla.jpg	1	4	1	non-food_animate_gorilla	0	X	17	0	116	0		0	0	144.4590801	144.5590749
34135	0.1000035	487	satiated	stimuli/foods\mussels.jpg	1	4	1	mussels	1	M	9	0	86	0		0	0	144.6090702	144.7090737
34172.5	0.0999799	488	satiated	stimuli/non_foods\non-food_animate_rhino.jpg	1	4	1	non-food_animate_rhino	0	W	16	0	141	0		0	0	144.7590884	144.8590683
34210	0.1000152	489	satiated	stimuli/non_foods\non-food_animate_millipede.jpg	1	4	1	non-food_animate_millipede	0	M	9	0	129	1	a	0.5931698	1	144.9090845	145.0090997
34247.5	0.0999387	490	satiated	stimuli/foods\coconut.jpg	1	4	1	coconut	1	G	4	0	33	0		0	0	145.0591301	145.1590688
34285	0.0999931	491	satiated	stimuli/non_foods\non-food_inanimate_toy_airplane.jpg	1	4	1	non-food_inanimate_toy_airplane	0	X	17	0	222	0		0	0	145.2090742	145.3090673
34322.5	0.0999834	492	satiated	stimuli/foods\pineapple.jpg	1	4	1	pineapple	1	T	14	0	243	0		0	0	145.3590833	145.4590667
34360	0.0999876	493	satiated	stimuli/non_foods\non-food_animate_bat.jpg	1	4	1	non-food_animate_bat	0	N	10	0	94	0		0	0	145.5090761	145.6090637
34397.5	0.0999893	494	satiated	stimuli/non_foods\non-food_inanimate_skirt.jpg	1	4	1	non-food_inanimate_skirt	0	H	5	0	209	0		0	0	145.6590743	145.7590636
34435	0.0999803	495	satiated	stimuli/foods\onion.jpg	1	4	1	onion	1	R	12	0	229	0		0	0	145.8090782	145.9090585
34472.5	0.0999593	496	satiated	stimuli/non_foods\non-food_inanimate_protractor.jpg	1	4	1	non-food_inanimate_protractor	0	C	1	0	201	0		0	0	145.9590732	146.0590325
34510	0.0999916	497	satiated	stimuli/foods\salami.jpg	1	4	1	salami	1	V	15	0	263	0		0	0	146.1090651	146.2090567
34547.5	0.1000099	498	satiated	stimuli/foods\spinach.jpg	1	4	1	spinach	1	X	17	0	268	0		0	0	146.2590474	146.3590573
34585	0.0999494	499	satiated	stimuli/foods\artichoke.jpg	1	4	1	artichoke	1	H	5	0	3	0		0	0	146.4090668	146.5090162
34622.5	0.0999809	500	satiated	stimuli/foods\garlic.jpg	1	4	1	garlic	1	K	7	0	56	0		0	0	146.5590705	146.6590514
34660	0.1000256	501	satiated	stimuli/foods\figs.jpg	1	4	1	figs	1	U	23	1	48	0		0	0	146.7090588	146.8090844
34697.5	0.0999581	502	satiated	stimuli/non_foods\non-food_inanimate_tulip.jpg	1	4	1	non-food_inanimate_tulip	0	N	10	0	224	0		0	0	146.8590907	146.9590488
34735	0.1000079	503	satiated	stimuli/foods\stew_with_potatoes_and_carrots.jpg	1	4	1	stew_with_potatoes_and_carrots	1	H	5	0	271	0		0	0	147.0090387	147.1090466
34772.5	0.1000124	504	satiated	stimuli/foods\frankfurter_and_provolone_salad.jpg	1	4	1	frankfurter_and_provolone_salad	1	G	4	0	49	1	a	0.5537394	1	147.1590328	147.2590452
34810	0.0999878	505	satiated	stimuli/non_foods\non-food_inanimate_buds.jpg	1	4	1	non-food_inanimate_buds	0	X	17	0	166	0		0	0	147.3090569	147.4090447
34847.5	0.0999845	506	satiated	stimuli/non_foods\non-food_inanimate_short_sleeved_shirt.jpg	1	4	1	non-food_inanimate_short_sleeved_shirt	0	K	7	0	207	0		0	0	147.4590548	147.5590393
34885	0.099989	507	satiated	stimuli/foods\fried_calamari.jpg	1	4	1	fried_calamari	1	P	11	0	50	0		0	0	147.609053	147.709042
34922.5	0.0999855	508	satiated	stimuli/foods\donut.jpg	1	4	1	donut	1	B	0	0	44	0		0	0	147.759054	147.8590395
34960	0.0999787	509	satiated	stimuli/foods\cucumber.jpg	1	4	1	cucumber	1	F	3	0	41	0		0	0	147.9090562	148.0090349
34997.5	0.0999897	510	satiated	stimuli/non_foods\non-food_animate_deer.jpg	1	4	1	non-food_animate_deer	0	R	12	0	105	0		0	0	148.0590452	148.1590349
35035	0.0999849	511	satiated	stimuli/foods\watermelon.jpg	1	4	1	watermelon	1	N	10	0	279	0		0	0	148.209047	148.3090319
35072.5	0.0999881	512	satiated	stimuli/non_foods\non-food_inanimate_toilet.jpg	1	4	1	non-food_inanimate_toilet	0	Z	18	0	220	0		0	0	148.3590357	148.4590238
35110	0.1000316	513	satiated	stimuli/foods\wafer.jpg	1	4	1	wafer	1	B	0	0	277	0		0	0	148.5090401	148.6090717
35147.5	0.0999718	514	satiated	stimuli/non_foods\non-food_animate_swan.jpg	1	4	1	non-food_animate_swan	0	Z	18	0	152	0		0	0	148.6590549	148.7590267
35185	0.099989	515	satiated	stimuli/foods\roasted_chicken.jpg	1	4	1	roasted_chicken	1	K	7	0	261	0		0	0	148.8090367	148.9090257
35222.5	0.0999837	516	satiated	stimuli/foods\ginger_root.jpg	1	4	1	ginger_root	1	P	11	0	57	0		0	0	148.9590369	149.0590206
35260	0.0999882	517	satiated	stimuli/foods\green_olives.jpg	1	4	1	green_olives	1	N	10	0	62	0		0	0	149.1090348	149.209023
35297.5	0.0999813	518	satiated	stimuli/non_foods\non-food_animate_elephant.jpg	1	4	1	non-food_animate_elephant	0	T	14	0	111	0		0	0	149.259038	149.3590193
35335	0.0999835	519	satiated	stimuli/non_foods\non-food_animate_pigeon.jpg	1	4	1	non-food_animate_pigeon	0	X	17	0	136	0		0	0	149.4090328	149.5090163
35372.5	0.0999852	520	satiated	stimuli/non_foods\non-food_inanimate_wrench.jpg	1	4	1	non-food_inanimate_wrench	0	R	12	0	227	0		0	0	149.559033	149.6590182
35410	0.0999867	521	satiated	stimuli/foods\chocolate_pralines.jpg	1	4	1	chocolate_pralines	1	D	2	0	28	0		0	0	149.7090277	149.8090144
35447.5	0.0999715	522	satiated	stimuli/foods\raisins.jpg	1	4	1	raisins	1	Z	18	0	252	0		0	0	149.8590278	149.9589993
35485	0.0999831	523	satiated	stimuli/non_foods\non-food_inanimate_speakers.jpg	1	4	1	non-food_inanimate_speakers	0	H	5	0	212	0		0	0	150.0090279	150.109011
35522.5	0.0999846	524	satiated	stimuli/non_foods\non-food_inanimate_table.jpg	1	4	1	non-food_inanimate_table	0	J	6	0	217	0		0	0	150.1590253	150.2590099
35560	0.0999647	525	satiated	stimuli/non_foods\non-food_animate_horse.jpg	1	4	1	non-food_animate_horse	0	C	1	0	119	0		0	0	150.3090368	150.4090015
35597.5	0.0999564	526	satiated	stimuli/foods\brownie.jpg	1	4	1	brownie	1	J	6	0	14	0		0	0	150.459051	150.5590074
35635	0.0999901	527	satiated	stimuli/non_foods\non-food_animate_student_female.jpg	1	4	1	non-food_animate_student_female	0	P	11	0	151	0		0	0	150.6090126	150.7090027
35672.5	0.0999658	528	satiated	stimuli/foods\lamb_chops.jpg	1	4	1	lamb_chops	1	T	14	0	70	0		0	0	150.759019	150.8589848
35710	0.0999813	529	satiated	stimuli/foods\grapefruits.jpg	1	4	1	grapefruits	1	B	0	0	59	0		0	0	150.9090158	151.0089971
35747.5	0.0999809	530	satiated	stimuli/non_foods\non-food_animate_bee.jpg	1	4	1	non-food_animate_bee	0	X	17	0	95	0		0	0	151.0590017	151.1589826
35785	0.099977	531	satiated	stimuli/foods\red_beans.jpg	1	4	1	red_beans	1	L	8	0	255	0		0	0	151.2090131	151.3089901
35822.5	0.0999974	532	satiated	stimuli/non_foods\non-food_inanimate_bowling_ball.jpg	1	4	1	non-food_inanimate_bowling_ball	0	R	12	0	162	0		0	0	151.3590031	151.4590005
35860	0.0999676	533	satiated	stimuli/foods\mortadella.jpg	1	4	1	mortadella	1	Z	18	0	83	0		0	0	151.5090123	151.6089799
35897.5	0.1000031	534	satiated	stimuli/non_foods\non-food_animate_young_girl.jpg	1	4	1	non-food_animate_young_girl	0	G	4	0	157	0		0	0	151.6589859	151.758989
35935	0.0999905	535	satiated	stimuli/non_foods\non-food_animate_duck.jpg	1	4	1	non-food_animate_duck	0	I	21	1	109	0		0	0	151.809003	151.9089935
35972.5	0.0999645	536	satiated	stimuli/foods\mandarin.jpg	1	4	1	mandarin	1	G	4	0	79	0		0	0	151.959007	152.0589715
36010	0.0999644	537	satiated	stimuli/non_foods\non-food_animate_kangaroo.jpg	1	4	1	non-food_animate_kangaroo	0	T	14	0	122	0		0	0	152.1090122	152.2089766
36047.5	0.0999657	538	satiated	stimuli/foods\risotto_with_peas_and_asparagus_tips.jpg	1	4	1	risotto_with_peas_and_asparagus_tips	1	F	3	0	259	0		0	0	152.259019	152.3589847
36085	0.0999671	539	satiated	stimuli/foods\apple.jpg	1	4	1	apple	1	H	5	0	1	0		0	0	152.4089987	152.5089658
36122.5	0.0999858	540	satiated	stimuli/foods\cherry.jpg	1	4	1	cherry	1	L	8	0	23	0		0	0	152.5589749	152.6589607
36160	0.0999843	541	satiated	stimuli/foods\hotdog.jpg	1	4	1	hotdog	1	D	2	0	67	0		0	0	152.7089969	152.8089812
36197.5	0.1000097	542	satiated	stimuli/non_foods\non-food_animate_dachshund.jpg	1	4	1	non-food_animate_dachshund	0	F	3	0	104	0		0	0	152.8589688	152.9589785
36235	0.0999873	543	satiated	stimuli/non_foods\non-food_inanimate_gloves.jpg	1	4	1	non-food_inanimate_gloves	0	B	0	0	183	0		0	0	153.0089899	153.1089772
36272.5	0.099985	544	satiated	stimuli/foods\banana.jpg	1	4	1	banana	1	P	11	0	9	0		0	0	153.158979	153.258964
36310	0.0999977	545	satiated	stimuli/foods\orange.jpg	1	4	1	orange	1	Z	18	0	230	0		0	0	153.308977	153.4089747
36347.5	0.0999656	546	satiated	stimuli/foods\papaya.jpg	1	4	1	papaya	1	B	0	0	235	0		0	0	153.4589879	153.5589535
36385	0.0999835	547	satiated	stimuli/foods\steak.jpg	1	4	1	steak	1	M	9	0	270	0		0	0	153.6089879	153.7089714
36422.5	0.1000009	548	satiated	stimuli/non_foods\non-food_inanimate_canoe.jpg	1	4	1	non-food_inanimate_canoe	0	F	3	0	170	0		0	0	153.7589758	153.8589767
36460	0.0999627	549	satiated	stimuli/foods\cabbage.jpg	1	4	1	cabbage	1	J	6	0	16	0		0	0	153.908998	154.0089607
36497.5	0.099987	550	satiated	stimuli/non_foods\non-food_inanimate_skateboard.jpg	1	4	1	non-food_inanimate_skateboard	0	L	8	0	208	0		0	0	154.0589735	154.1589605
36535	0.0999879	551	satiated	stimuli/non_foods\non-food_animate_lizard.jpg	1	4	1	non-food_animate_lizard	0	N	10	0	126	0		0	0	154.208978	154.3089659
36572.5	0.0999849	552	satiated	stimuli/non_foods\non-food_inanimate_leaf.jpg	1	4	1	non-food_inanimate_leaf	0	C	1	0	192	0		0	0	154.3589685	154.4589534
36610	0.099992	553	satiated	stimuli/non_foods\non-food_animate_seahorse.jpg	1	4	1	non-food_animate_seahorse	0	K	7	0	145	0		0	0	154.5089685	154.6089605
36647.5	0.0999833	554	satiated	stimuli/non_foods\non-food_inanimate_orchid.jpg	1	4	1	non-food_inanimate_orchid	0	D	2	0	198	0		0	0	154.6589751	154.7589584
36685	0.0999866	555	satiated	stimuli/foods\kiwi.jpg	1	4	1	kiwi	1	C	1	0	69	0		0	0	154.8089734	154.90896
36722.5	0.0999874	556	satiated	stimuli/non_foods\non-food_inanimate_nailpolish.jpg	1	4	1	non-food_inanimate_nailpolish	0	D	2	0	195	0		0	0	154.9589708	155.0589582
36760	0.0999713	557	satiated	stimuli/foods\toasted_bread_with_tomatoes.jpg	1	4	1	toasted_bread_with_tomatoes	1	H	5	0	275	0		0	0	155.1089718	155.2089431
36797.5	0.09998	558	satiated	stimuli/foods\lollies.jpg	1	4	1	lollies	1	W	16	0	78	0		0	0	155.2589547	155.3589347
36835	0.10001	559	satiated	stimuli/non_foods\non-food_animate_owl.jpg	1	4	1	non-food_animate_owl	0	N	10	0	132	0		0	0	155.4089398	155.5089498
37376.75	0.0999721	560	satiated	stimuli/foods\salami.jpg	1	5	1	salami	1	C	1	0	263	0		0	0	157.5756145	157.6755866
37414	0.0999882	561	satiated	stimuli/non_foods\non-food_inanimate_scissors.jpg	1	5	1	non-food_inanimate_scissors	0	J	6	0	205	0		0	0	157.7256015	157.8255897
37451.5	0.0999793	562	satiated	stimuli/non_foods\non-food_animate_woman.jpg	1	5	1	non-food_animate_woman	0	X	17	0	154	0		0	0	157.8756065	157.9755858
37489	0.0999814	563	satiated	stimuli/non_foods\non-food_inanimate_towel.jpg	1	5	1	non-food_inanimate_towel	0	M	9	0	221	0		0	0	158.0255999	158.1255813
37526.75	0.0999403	564	satiated	stimuli/foods\risotto_with_zucchini.jpg	1	5	1	risotto_with_zucchini	1	L	8	0	260	0		0	0	158.1756444	158.2755847
37564	0.099982	565	satiated	stimuli/foods\pumpkin.jpg	1	5	1	pumpkin	1	C	1	0	250	0		0	0	158.3255975	158.4255795
37601.5	0.0999827	566	satiated	stimuli/foods\fried_calamari.jpg	1	5	1	fried_calamari	1	Z	18	0	50	0		0	0	158.4755946	158.5755773
37639	0.0999794	567	satiated	stimuli/non_foods\non-food_inanimate_soccer_ball.jpg	1	5	1	non-food_inanimate_soccer_ball	0	M	9	0	210	0		0	0	158.6255973	158.7255767
37676.5	0.0999874	568	satiated	stimuli/foods\savory_pie.jpg	1	5	1	savory_pie	1	N	10	0	265	0		0	0	158.7755888	158.8755762
37714	0.0999975	569	satiated	stimuli/non_foods\non-food_animate_baby_sitting.jpg	1	5	1	non-food_animate_baby_sitting	0	P	11	0	93	0		0	0	158.9255883	159.0255858
37751.5	0.0999811	570	satiated	stimuli/non_foods\non-food_animate_fox.jpg	1	5	1	non-food_animate_fox	0	F	3	0	112	0		0	0	159.0755904	159.1755715
37789	0.0999869	571	satiated	stimuli/non_foods\non-food_inanimate_buds.jpg	1	5	1	non-food_inanimate_buds	0	V	15	0	166	0		0	0	159.2255851	159.325572
37826.5	0.0999873	572	satiated	stimuli/non_foods\non-food_animate_donkey.jpg	1	5	1	non-food_animate_donkey	0	T	14	0	107	0		0	0	159.3755815	159.4755688
37864	0.0999853	573	satiated	stimuli/foods\bagel.jpg	1	5	1	bagel	1	N	10	0	6	0		0	0	159.5255822	159.6255675
37901.5	0.0999847	574	satiated	stimuli/foods\figs.jpg	1	5	1	figs	1	K	7	0	48	0		0	0	159.6755809	159.7755656
37939	0.1000065	575	satiated	stimuli/foods\coffee_beans.jpg	1	5	1	coffee_beans	1	C	1	0	34	0		0	0	159.8255821	159.9255886
37976.5	0.0999623	576	satiated	stimuli/foods\raw_ham.jpg	1	5	1	raw_ham	1	V	15	0	253	0		0	0	159.9755981	160.0755604
38014	0.0999888	577	satiated	stimuli/foods\chocolate_chip_cookies.jpg	1	5	1	chocolate_chip_cookies	1	B	0	0	27	0		0	0	160.1255755	160.2255643
38051.5	0.099982	578	satiated	stimuli/foods\minestrone_soup.jpg	1	5	1	minestrone_soup	1	K	7	0	82	0		0	0	160.2755766	160.3755586
38089	0.0999841	579	satiated	stimuli/non_foods\non-food_animate_owl.jpg	1	5	1	non-food_animate_owl	0	M	9	0	132	0		0	0	160.4255726	160.5255567
38126.5	0.0999855	580	satiated	stimuli/foods\apricot.jpg	1	5	1	apricot	1	W	16	0	2	0		0	0	160.5755725	160.675558
38164	0.0999866	581	satiated	stimuli/non_foods\non-food_animate_porcupine.jpg	1	5	1	non-food_animate_porcupine	0	I	21	1	138	0		0	0	160.7255657	160.8255523
38201.5	0.0999804	582	satiated	stimuli/non_foods\non-food_inanimate_alarm_clock.jpg	1	5	1	non-food_inanimate_alarm_clock	0	R	12	0	158	0		0	0	160.8755656	160.975546
38239	0.0999868	583	satiated	stimuli/foods\toasted_bread_with_tomatoes.jpg	1	5	1	toasted_bread_with_tomatoes	1	P	11	0	275	0		0	0	161.0255609	161.1255477
38276.5	0.0999848	584	satiated	stimuli/foods\ginger_root.jpg	1	5	1	ginger_root	1	K	7	0	57	0		0	0	161.1755619	161.2755467
38314	0.0999845	585	satiated	stimuli/non_foods\non-food_animate_sea_turtle.jpg	1	5	1	non-food_animate_sea_turtle	0	T	14	0	144	1	a	0.593219	1	161.3255641	161.4255486
38351.5	0.0999845	586	satiated	stimuli/non_foods\non-food_inanimate_tulip.jpg	1	5	1	non-food_inanimate_tulip	0	N	10	0	224	0		0	0	161.4755599	161.5755444
38389	0.1000072	587	satiated	stimuli/non_foods\non-food_animate_polar_bear.jpg	1	5	1	non-food_animate_polar_bear	0	P	11	0	137	0		0	0	161.6255628	161.72557
38426.5	0.0999734	588	satiated	stimuli/foods\almonds.jpg	1	5	1	almonds	1	L	8	0	0	0		0	0	161.7755593	161.8755327
38464	0.0999898	589	satiated	stimuli/non_foods\non-food_animate_mammoth.jpg	1	5	1	non-food_animate_mammoth	0	H	5	0	128	0		0	0	161.925543	162.0255328
38501.5	0.0999831	590	satiated	stimuli/foods\lentils.jpg	1	5	1	lentils	1	F	3	0	74	0		0	0	162.0755495	162.1755326
38539	0.0999828	591	satiated	stimuli/non_foods\non-food_inanimate_tree.jpg	1	5	1	non-food_inanimate_tree	0	X	17	0	223	0		0	0	162.2255471	162.3255299
38576.5	0.0999815	592	satiated	stimuli/foods\peas.jpg	1	5	1	peas	1	K	7	0	240	0		0	0	162.3755414	162.4755229
38614	0.0999644	593	satiated	stimuli/non_foods\non-food_inanimate_briefcase.jpg	1	5	1	non-food_inanimate_briefcase	0	S	13	0	163	0		0	0	162.5255692	162.6255336
38651.5	0.0999835	594	satiated	stimuli/foods\mandarin.jpg	1	5	1	mandarin	1	V	15	0	79	0		0	0	162.6755469	162.7755304
38689	0.0999682	595	satiated	stimuli/non_foods\non-food_inanimate_toy_airplane.jpg	1	5	1	non-food_inanimate_toy_airplane	0	F	3	0	222	0		0	0	162.8255636	162.9255318
38726.5	0.0999861	596	satiated	stimuli/foods\baked_cod_with_carrots_and_green_beans.jpg	1	5	1	baked_cod_with_carrots_and_green_beans	1	K	7	0	7	0		0	0	162.9755448	163.0755309
38764	0.0999875	597	satiated	stimuli/foods\banana.jpg	1	5	1	banana	1	N	10	0	9	0		0	0	163.1255393	163.2255268
38801.5	0.0999964	598	satiated	stimuli/non_foods\non-food_animate_student_female.jpg	1	5	1	non-food_animate_student_female	0	R	12	0	151	0		0	0	163.2755316	163.375528
38839	0.099962	599	satiated	stimuli/non_foods\non-food_animate_clown.jpg	1	5	1	non-food_animate_clown	0	W	16	0	102	0		0	0	163.4255487	163.5255107
38876.5	0.0999756	600	satiated	stimuli/foods\cannoli.jpg	1	5	1	cannoli	1	V	15	0	17	0		0	0	163.5755472	163.6755228
38914	0.0999849	601	satiated	stimuli/foods\spinach.jpg	1	5	1	spinach	1	T	14	0	268	0		0	0	163.725534	163.8255189
38951.5	0.0999878	602	satiated	stimuli/non_foods\non-food_inanimate_orchid.jpg	1	5	1	non-food_inanimate_orchid	0	S	13	0	198	0		0	0	163.8755306	163.9755184
38989	0.0999864	603	satiated	stimuli/foods\grilled_chicken_breast.jpg	1	5	1	grilled_chicken_breast	1	N	10	0	63	0		0	0	164.0255296	164.125516
39026.5	0.099981	604	satiated	stimuli/foods\gnocchi.jpg	1	5	1	gnocchi	1	W	16	0	58	0		0	0	164.175531	164.275512
39064	0.0999795	605	satiated	stimuli/foods\red_cabbage.jpg	1	5	1	red_cabbage	1	M	9	0	256	0		0	0	164.325534	164.4255135
39101.5	0.0999884	606	satiated	stimuli/foods\beetroots.jpg	1	5	1	beetroots	1	R	12	0	10	0		0	0	164.4755246	164.575513
39139	0.0999818	607	satiated	stimuli/non_foods\non-food_inanimate_hammer.jpg	1	5	1	non-food_inanimate_hammer	0	B	0	0	186	0		0	0	164.6255289	164.7255107
39176.5	0.0999867	608	satiated	stimuli/non_foods\non-food_inanimate_cactus_pot_plant.jpg	1	5	1	non-food_inanimate_cactus_pot_plant	0	V	15	0	169	0		0	0	164.7755218	164.8755085
39214	0.0999874	609	satiated	stimuli/foods\salmon.jpg	1	5	1	salmon	1	D	2	0	264	0		0	0	164.9255175	165.0255049
39251.5	0.1000071	610	satiated	stimuli/foods\green_beans.jpg	1	5	1	green_beans	1	P	11	0	61	0		0	0	165.075492	165.1754991
39289	0.1000211	611	satiated	stimuli/non_foods\non-food_inanimate_broom.jpg	1	5	1	non-food_inanimate_broom	0	C	1	0	164	0		0	0	165.2255029	165.325524
39326.5	0.0999526	612	satiated	stimuli/foods\fruit_flan.jpg	1	5	1	fruit_flan	1	G	4	0	53	0		0	0	165.3755479	165.4755005
39364	0.0999848	613	satiated	stimuli/foods\baked_lamb_with_potatoes.jpg	1	5	1	baked_lamb_with_potatoes	1	S	13	0	8	0		0	0	165.5255136	165.6254984
39401.5	0.0999848	614	satiated	stimuli/non_foods\non-food_inanimate_table.jpg	1	5	1	non-food_inanimate_table	0	N	10	0	217	0		0	0	165.6755131	165.7754979
39439	0.0999867	615	satiated	stimuli/non_foods\non-food_animate_runner.jpg	1	5	1	non-food_animate_runner	0	K	7	0	142	0		0	0	165.8255076	165.9254943
39476.5	0.1000039	616	satiated	stimuli/foods\pea_pod.jpg	1	5	1	pea_pod	1	X	17	0	237	0		0	0	165.9755089	166.0755128
39514	0.0999671	617	satiated	stimuli/non_foods\non-food_animate_camel.jpg	1	5	1	non-food_animate_camel	0	R	12	0	97	0		0	0	166.1255299	166.225497
39551.5	0.099999	618	satiated	stimuli/non_foods\non-food_animate_ladybug.jpg	1	5	1	non-food_animate_ladybug	0	V	15	0	124	0		0	0	166.2755073	166.3755063
39589	0.0999713	619	satiated	stimuli/foods\fennel.jpg	1	5	1	fennel	1	T	14	0	47	0		0	0	166.4255195	166.5254908
39626.5	0.0999799	620	satiated	stimuli/foods\coconut.jpg	1	5	1	coconut	1	M	9	0	33	0		0	0	166.5755056	166.6754855
39664	0.0999825	621	satiated	stimuli/non_foods\non-food_animate_snail.jpg	1	5	1	non-food_animate_snail	0	X	17	0	149	0		0	0	166.7255009	166.8254834
39701.5	0.0999846	622	satiated	stimuli/non_foods\non-food_animate_monkey.jpg	1	5	1	non-food_animate_monkey	0	J	6	0	130	0		0	0	166.8754982	166.9754828
39739	0.0999489	623	satiated	stimuli/foods\ice_cream.jpg	1	5	1	ice_cream	1	C	1	0	68	0		0	0	167.0255295	167.1254784
39776.5	0.0999559	624	satiated	stimuli/non_foods\non-food_inanimate_moss.jpg	1	5	1	non-food_inanimate_moss	0	Z	18	0	194	0		0	0	167.1755248	167.2754807
39814	0.0999813	625	satiated	stimuli/non_foods\non-food_animate_horse.jpg	1	5	1	non-food_animate_horse	0	J	6	0	119	0		0	0	167.3254952	167.4254765
39851.5	0.0999855	626	satiated	stimuli/foods\pasta_carbonara.jpg	1	5	1	pasta_carbonara	1	N	10	0	236	0		0	0	167.4754909	167.5754764
39889	0.0999799	627	satiated	stimuli/foods\oregano.jpg	1	5	1	oregano	1	R	12	0	231	0		0	0	167.6254927	167.7254726
39926.5	0.0999928	628	satiated	stimuli/foods\potatoes.jpg	1	5	1	potatoes	1	L	8	0	248	0		0	0	167.7754798	167.8754726
39964	0.0999867	629	satiated	stimuli/non_foods\non-food_inanimate_leaf.jpg	1	5	1	non-food_inanimate_leaf	0	C	1	0	192	0		0	0	167.9254836	168.0254703
40001.5	0.0999955	630	satiated	stimuli/non_foods\non-food_inanimate_construction_helment.jpg	1	5	1	non-food_inanimate_construction_helment	0	F	3	0	175	0		0	0	168.0754861	168.1754816
40039	0.099985	631	satiated	stimuli/non_foods\non-food_animate_tortoise.jpg	1	5	1	non-food_animate_tortoise	0	D	2	0	153	0		0	0	168.2254833	168.3254683
40076.5	0.0999924	632	satiated	stimuli/non_foods\non-food_inanimate_lighter.jpg	1	5	1	non-food_inanimate_lighter	0	G	4	0	193	0		0	0	168.3754633	168.4754557
40114	0.0999815	633	satiated	stimuli/foods\brie.jpg	1	5	1	brie	1	B	0	0	12	0		0	0	168.5254744	168.6254559
40151.5	0.1000162	634	satiated	stimuli/non_foods\non-food_animate_butterfly.jpg	1	5	1	non-food_animate_butterfly	0	R	12	0	96	0		0	0	168.6754534	168.7754696
40189	0.099962	635	satiated	stimuli/non_foods\non-food_animate_dragonfly.jpg	1	5	1	non-food_animate_dragonfly	0	Z	18	0	108	0		0	0	168.8254998	168.9254618
40226.5	0.0999917	636	satiated	stimuli/foods\chocolate_pudding.jpg	1	5	1	chocolate_pudding	1	X	17	0	29	0		0	0	168.9754564	169.0754481
40264	0.0999952	637	satiated	stimuli/non_foods\non-food_animate_eagle.jpg	1	5	1	non-food_animate_eagle	0	F	3	0	110	0		0	0	169.1254661	169.2254613
40301.5	0.1000014	638	satiated	stimuli/non_foods\non-food_animate_frog.jpg	1	5	1	non-food_animate_frog	0	K	7	0	113	0		0	0	169.2754556	169.375457
40339	0.0999848	639	satiated	stimuli/foods\cupcake.jpg	1	5	1	cupcake	1	M	9	0	42	0		0	0	169.4254709	169.5254557
40376.5	0.0999878	640	satiated	stimuli/foods\lime.jpg	1	5	1	lime	1	S	13	0	76	0		0	0	169.5754585	169.6754463
40414	0.0999858	641	satiated	stimuli/foods\cinnamon.jpg	1	5	1	cinnamon	1	K	7	0	30	0		0	0	169.7254573	169.8254431
40451.5	0.099983	642	satiated	stimuli/foods\mussels.jpg	1	5	1	mussels	1	L	8	0	86	0		0	0	169.8754558	169.9754388
40489	0.0999849	643	satiated	stimuli/non_foods\non-food_inanimate_bicycle.jpg	1	5	1	non-food_inanimate_bicycle	0	J	6	0	161	0		0	0	170.0254558	170.1254407
40526.5	0.0999842	644	satiated	stimuli/foods\cream_donuts.jpg	1	5	1	cream_donuts	1	N	10	0	39	0		0	0	170.1754502	170.2754344
40564	0.0999895	645	satiated	stimuli/foods\artichoke.jpg	1	5	1	artichoke	1	K	7	0	3	0		0	0	170.32545	170.4254395
40601.5	0.1000067	646	satiated	stimuli/non_foods\non-food_animate_gorilla.jpg	1	5	1	non-food_animate_gorilla	0	H	5	0	116	0		0	0	170.4754517	170.5754584
40639	0.0999516	647	satiated	stimuli/foods\pineapple.jpg	1	5	1	pineapple	1	C	1	0	243	0		0	0	170.6254816	170.7254332
40676.5	0.0999825	648	satiated	stimuli/foods\pork_and_rice.jpg	1	5	1	pork_and_rice	1	W	16	0	245	0		0	0	170.7754504	170.8754329
40714	0.0999924	649	satiated	stimuli/non_foods\non-food_inanimate_rack.jpg	1	5	1	non-food_inanimate_rack	0	G	4	0	202	0		0	0	170.9254379	171.0254303
40751.5	0.0999834	650	satiated	stimuli/foods\chestnut.jpg	1	5	1	chestnut	1	Z	18	0	24	0		0	0	171.0754415	171.1754249
40789	0.0999764	651	satiated	stimuli/foods\red_beans.jpg	1	5	1	red_beans	1	G	4	0	255	0		0	0	171.2254422	171.3254186
40826.5	0.100012	652	satiated	stimuli/non_foods\non-food_inanimate_wrench.jpg	1	5	1	non-food_inanimate_wrench	0	R	12	0	227	0		0	0	171.3754197	171.4754317
40864	0.0999859	653	satiated	stimuli/foods\chocolate_pralines.jpg	1	5	1	chocolate_pralines	1	L	8	0	28	0		0	0	171.5254467	171.6254326
40901.5	0.0999628	654	satiated	stimuli/foods\cereal.jpg	1	5	1	cereal	1	M	9	0	22	0		0	0	171.6754639	171.7754267
40939	0.0999875	655	satiated	stimuli/foods\celery.jpg	1	5	1	celery	1	D	2	0	21	0		0	0	171.8254398	171.9254273
40976.5	0.0999873	656	satiated	stimuli/non_foods\non-food_animate_slug.jpg	1	5	1	non-food_animate_slug	0	J	6	0	148	0		0	0	171.9754402	172.0754275
41014	0.0999812	657	satiated	stimuli/non_foods\non-food_animate_elephant.jpg	1	5	1	non-food_animate_elephant	0	L	8	0	111	0		0	0	172.1254394	172.2254206
41051.5	0.1000057	658	satiated	stimuli/foods\orange.jpg	1	5	1	orange	1	P	11	0	230	0		0	0	172.2754354	172.3754411
41089	0.0999868	659	satiated	stimuli/non_foods\non-food_animate_cheetah.jpg	1	5	1	non-food_animate_cheetah	0	V	15	0	100	0		0	0	172.4254343	172.5254211
41126.5	0.1000125	660	satiated	stimuli/non_foods\non-food_animate_seahorse.jpg	1	5	1	non-food_animate_seahorse	0	L	8	0	145	0		0	0	172.5754061	172.6754186
41164	0.099989	661	satiated	stimuli/foods\watermelon.jpg	1	5	1	watermelon	1	S	13	0	279	0		0	0	172.7254297	172.8254187
41201.5	0.0999802	662	satiated	stimuli/non_foods\non-food_inanimate_skirt.jpg	1	5	1	non-food_inanimate_skirt	0	X	17	0	209	0		0	0	172.8754321	172.9754123
41239	0.0999858	663	satiated	stimuli/non_foods\non-food_inanimate_fire_extinguisher.jpg	1	5	1	non-food_inanimate_fire_extinguisher	0	R	12	0	181	0		0	0	173.0254267	173.1254125
41276.5	0.0999861	664	satiated	stimuli/foods\wafer.jpg	1	5	1	wafer	1	D	2	0	277	0		0	0	173.1754269	173.275413
41314	0.0999859	665	satiated	stimuli/foods\fries.jpg	1	5	1	fries	1	V	15	0	52	0		0	0	173.3254215	173.4254074
41351.5	0.0999691	666	satiated	stimuli/non_foods\non-food_inanimate_tent.jpg	1	5	1	non-food_inanimate_tent	0	G	4	0	219	0		0	0	173.4754387	173.5754078
41389	0.0999809	667	satiated	stimuli/non_foods\non-food_animate_rhino.jpg	1	5	1	non-food_animate_rhino	0	X	17	0	141	0		0	0	173.6254209	173.7254018
41426.5	0.0999868	668	satiated	stimuli/non_foods\non-food_inanimate_desk.jpg	1	5	1	non-food_inanimate_desk	0	M	9	0	178	0		0	0	173.7754167	173.8754035
41464	0.0999851	669	satiated	stimuli/non_foods\non-food_animate_alligator.jpg	1	5	1	non-food_animate_alligator	0	D	2	0	90	0		0	0	173.9254166	174.0254017
41501.5	0.0999897	670	satiated	stimuli/foods\cherry.jpg	1	5	1	cherry	1	S	13	0	23	0		0	0	174.0754198	174.1754095
41539	0.0999599	671	satiated	stimuli/foods\green_olives.jpg	1	5	1	green_olives	1	N	10	0	62	0		0	0	174.2254365	174.3253964
41576.5	0.0999859	672	satiated	stimuli/foods\spaghetti_with_meat_sauce.jpg	1	5	1	spaghetti_with_meat_sauce	1	X	17	0	267	0		0	0	174.3754119	174.4753978
41614	0.0999594	673	satiated	stimuli/foods\linguine_with_clams.jpg	1	5	1	linguine_with_clams	1	C	1	0	77	0		0	0	174.5254096	174.625369
41651.5	0.0999887	674	satiated	stimuli/non_foods\non-food_inanimate_horn.jpg	1	5	1	non-food_inanimate_horn	0	E	20	1	190	0		0	0	174.675399	174.7753877
41689	0.0999828	675	satiated	stimuli/non_foods\non-food_inanimate_watering_can.jpg	1	5	1	non-food_inanimate_watering_can	0	W	16	0	225	0		0	0	174.8254092	174.925392
41726.5	0.0999865	676	satiated	stimuli/non_foods\non-food_animate_llama.jpg	1	5	1	non-food_animate_llama	0	S	13	0	127	0		0	0	174.9754049	175.0753914
41764	0.1000117	677	satiated	stimuli/non_foods\non-food_animate_grasshopper.jpg	1	5	1	non-food_animate_grasshopper	0	T	14	0	117	1	a	0.44321	1	175.1253781	175.2253898
41801.5	0.0999823	678	satiated	stimuli/foods\rice.jpg	1	5	1	rice	1	X	17	0	257	0		0	0	175.2754041	175.3753864
41839	0.1000056	679	satiated	stimuli/non_foods\non-food_animate_yellow_bug.jpg	1	5	1	non-food_animate_yellow_bug	0	V	15	0	155	0		0	0	175.4253976	175.5254032
41876.5	0.0999859	680	satiated	stimuli/foods\broccoli.jpg	1	5	1	broccoli	1	W	16	0	13	0		0	0	175.5753969	175.6753828
41914	0.0999892	681	satiated	stimuli/non_foods\non-food_animate_squirrel.jpg	1	5	1	non-food_animate_squirrel	0	R	12	0	150	0		0	0	175.7253933	175.8253825
41951.5	0.1000111	682	satiated	stimuli/non_foods\non-food_animate_Causasian_man.jpg	1	5	1	non-food_animate_Causasian_man	0	D	2	0	89	0		0	0	175.8753967	175.9754078
41989	0.099971	683	satiated	stimuli/non_foods\non-food_inanimate_folding_chair.jpg	1	5	1	non-food_inanimate_folding_chair	0	C	1	0	182	0		0	0	176.0254045	176.1253755
42026.5	0.0999894	684	satiated	stimuli/foods\blackberry.jpg	1	5	1	blackberry	1	X	17	0	11	0		0	0	176.1753888	176.2753782
42064	0.0999855	685	satiated	stimuli/foods\eggplant.jpg	1	5	1	eggplant	1	T	14	0	46	0		0	0	176.3253911	176.4253766
42101.5	0.0999838	686	satiated	stimuli/non_foods\non-food_animate_kangaroo.jpg	1	5	1	non-food_animate_kangaroo	0	J	6	0	122	0		0	0	176.4753866	176.5753704
42139	0.0999854	687	satiated	stimuli/non_foods\non-food_inanimate_skateboard.jpg	1	5	1	non-food_inanimate_skateboard	0	N	10	0	208	0		0	0	176.6253856	176.725371
42176.5	0.0999854	688	satiated	stimuli/non_foods\non-food_animate_young_girl.jpg	1	5	1	non-food_animate_young_girl	0	P	11	0	157	0		0	0	176.7753849	176.8753703
42214	0.0999855	689	satiated	stimuli/non_foods\non-food_animate_giraffe.jpg	1	5	1	non-food_animate_giraffe	0	G	4	0	115	0		0	0	176.9253808	177.0253663
42251.5	0.0999743	690	satiated	stimuli/non_foods\non-food_animate_penguin.jpg	1	5	1	non-food_animate_penguin	0	Z	18	0	135	0		0	0	177.0753906	177.1753649
42289	0.099987	691	satiated	stimuli/non_foods\non-food_animate_raccoon.jpg	1	5	1	non-food_animate_raccoon	0	B	0	0	139	0		0	0	177.2253756	177.3253626
42326.5	0.0999882	692	satiated	stimuli/foods\steak.jpg	1	5	1	steak	1	M	9	0	270	0		0	0	177.3753756	177.4753638
42364	0.0999878	693	satiated	stimuli/foods\cauliflower.jpg	1	5	1	cauliflower	1	N	10	0	20	0		0	0	177.5253789	177.6253667
42401.5	0.0999841	694	satiated	stimuli/non_foods\non-food_animate_caterpillar.jpg	1	5	1	non-food_animate_caterpillar	0	R	12	0	99	0		0	0	177.6753895	177.7753736
42439	0.0999848	695	satiated	stimuli/foods\oyster.jpg	1	5	1	oyster	1	C	1	0	233	0		0	0	177.825355	177.9253398
42476.5	0.0999854	696	satiated	stimuli/foods\museli_bars.jpg	1	5	1	museli_bars	1	B	0	0	84	0		0	0	177.9753689	178.0753543
42514	0.0999818	697	satiated	stimuli/foods\pepperoni_pizza.jpg	1	5	1	pepperoni_pizza	1	H	5	0	241	0		0	0	178.1253694	178.2253512
42551.5	0.099984	698	satiated	stimuli/foods\meatballs.jpg	1	5	1	meatballs	1	C	1	0	81	0		0	0	178.2753698	178.3753538
42589	0.0999857	699	satiated	stimuli/foods\cracker.jpg	1	5	1	cracker	1	M	9	0	38	0		0	0	178.4253647	178.5253504
43093.25	0.0999725	700	satiated	stimuli/foods\asparagus.jpg	1	6	1	asparagus	1	X	17	0	4	0		0	0	180.4420211	180.5419936
43130.75	0.0999859	701	satiated	stimuli/non_foods\non-food_animate_deer.jpg	1	6	1	non-food_animate_deer	0	C	1	0	105	0		0	0	180.5919979	180.6919838
43168.25	0.1000031	702	satiated	stimuli/foods\cabbage.jpg	1	6	1	cabbage	1	G	4	0	16	0		0	0	180.7420152	180.8420183
43205.75	0.1000034	703	satiated	stimuli/foods\croissant.jpg	1	6	1	croissant	1	C	1	0	40	0		0	0	180.8919861	180.9919895
43243.25	0.1000009	704	satiated	stimuli/non_foods\non-food_inanimate_chair.jpg	1	6	1	non-food_inanimate_chair	0	T	14	0	172	0		0	0	181.0419994	181.1420003
43280.75	0.0999378	705	satiated	stimuli/non_foods\non-food_inanimate_chandelier.jpg	1	6	1	non-food_inanimate_chandelier	0	D	2	0	173	0		0	0	181.1920484	181.2919862
43318.25	0.0999794	706	satiated	stimuli/foods\rockmelon.jpg	1	6	1	rockmelon	1	W	16	0	262	0		0	0	181.3420013	181.4419807
43355.75	0.0999816	707	satiated	stimuli/foods\fried_zucchini.jpg	1	6	1	fried_zucchini	1	R	12	0	51	0		0	0	181.4920021	181.5919837
43393.25	0.0999811	708	satiated	stimuli/foods\fruit_pie.jpg	1	6	1	fruit_pie	1	T	14	0	54	0		0	0	181.6419962	181.7419773
43430.75	0.0999799	709	satiated	stimuli/non_foods\non-food_animate_seal.jpg	1	6	1	non-food_animate_seal	0	C	1	0	146	0		0	0	181.7919966	181.8919765
43468.25	0.0999847	710	satiated	stimuli/non_foods\non-food_inanimate_highlighter.jpg	1	6	1	non-food_inanimate_highlighter	0	B	0	0	189	0		0	0	181.9419925	182.0419772
43505.75	0.1000025	711	satiated	stimuli/foods\cooked_ham.jpg	1	6	1	cooked_ham	1	G	4	0	35	0		0	0	182.0919654	182.1919679
43543.25	0.0999816	712	satiated	stimuli/foods\mango.jpg	1	6	1	mango	1	D	2	0	80	0		0	0	182.2419889	182.3419705
43580.75	0.0999778	713	satiated	stimuli/foods\lemon.jpg	1	6	1	lemon	1	K	7	0	72	0		0	0	182.391981	182.4919588
43618.25	0.100004	714	satiated	stimuli/non_foods\non-food_inanimate_bucket.jpg	1	6	1	non-food_inanimate_bucket	0	V	15	0	165	0		0	0	182.5419665	182.6419705
43655.75	0.0999848	715	satiated	stimuli/non_foods\non-food_inanimate_protractor.jpg	1	6	1	non-food_inanimate_protractor	0	N	10	0	201	0		0	0	182.6919849	182.7919697
43693.25	0.0999983	716	satiated	stimuli/non_foods\non-food_inanimate_teddy_bear.jpg	1	6	1	non-food_inanimate_teddy_bear	0	C	1	0	218	0		0	0	182.841988	182.9419863
43730.75	0.099954	717	satiated	stimuli/non_foods\non-food_animate_cat.jpg	1	6	1	non-food_animate_cat	0	A	19	1	98	0		0	0	182.9920044	183.0919584
43768.25	0.0999995	718	satiated	stimuli/non_foods\non-food_inanimate_nailpolish.jpg	1	6	1	non-food_inanimate_nailpolish	0	D	2	0	195	0		0	0	183.1419653	183.2419648
43805.75	0.0999708	719	satiated	stimuli/foods\spring_onions.jpg	1	6	1	spring_onions	1	J	6	0	269	0		0	0	183.2919744	183.3919452
43843.25	0.1000329	720	satiated	stimuli/foods\potato_and_green_bean_salad.jpg	1	6	1	potato_and_green_bean_salad	1	W	16	0	246	1	a	0.4431635	1	183.4419747	183.5420076
43880.75	0.0999836	721	satiated	stimuli/non_foods\non-food_animate_swan.jpg	1	6	1	non-food_animate_swan	0	P	11	0	152	0		0	0	183.591975	183.6919586
43918.25	0.0999826	722	satiated	stimuli/non_foods\non-food_inanimate_bamboo.jpg	1	6	1	non-food_inanimate_bamboo	0	C	1	0	159	0		0	0	183.7419747	183.8419573
43955.75	0.0999834	723	satiated	stimuli/foods\potato_chips.jpg	1	6	1	potato_chips	1	H	5	0	247	0		0	0	183.8919734	183.9919568
43993.25	0.0999753	724	satiated	stimuli/non_foods\non-food_inanimate_padlock.jpg	1	6	1	non-food_inanimate_padlock	0	F	3	0	199	0		0	0	184.0419789	184.1419542
44030.75	0.0999834	725	satiated	stimuli/non_foods\non-food_inanimate_toilet.jpg	1	6	1	non-food_inanimate_toilet	0	B	0	0	220	0		0	0	184.1919672	184.2919506
44068.25	0.0999823	726	satiated	stimuli/non_foods\non-food_animate_sea_lion.jpg	1	6	1	non-food_animate_sea_lion	0	Z	18	0	143	0		0	0	184.3419673	184.4419496
44105.75	0.0999842	727	satiated	stimuli/foods\pancakes.jpg	1	6	1	pancakes	1	W	16	0	234	0		0	0	184.4919646	184.5919488
44143.25	0.1000087	728	satiated	stimuli/non_foods\non-food_inanimate_gloves.jpg	1	6	1	non-food_inanimate_gloves	0	C	1	0	183	0		0	0	184.641969	184.7419777
44180.75	0.0999754	729	satiated	stimuli/foods\grapefruits.jpg	1	6	1	grapefruits	1	F	3	0	59	0		0	0	184.7919714	184.8919468
44218.25	0.0999763	730	satiated	stimuli/foods\garlic.jpg	1	6	1	garlic	1	P	11	0	56	0		0	0	184.9419588	185.0419351
44255.75	0.0999824	731	satiated	stimuli/foods\cooked_prawn.jpg	1	6	1	cooked_prawn	1	X	17	0	36	0		0	0	185.0919592	185.1919416
