onset	duration	eventnumber	hunger_condition	stimfilename	blockno	trialno	is_faststream	stim	food_idx	letter	letter_idx	istarget	image_number	response	keypressed	rt	correct	time_stimon	time_stimoff
6163.75	0.0999740999995993	0	satiated	stimuli/foods\hamburger.jpg	1	1	1	hamburger	1	L	8	0	64	0		0	0	37.6343927999997	37.7343668999993
6201.25	0.100039399999332	1	satiated	stimuli/non_foods\non-food_inanimate_drum_set.jpg	1	1	1	non-food_inanimate_drum_set	0	W	16	0	179	0		0	0	37.7843831999999	37.8844225999992
6238.75	0.0999704000005295	2	satiated	stimuli/foods\brussel_sprouts.jpg	1	1	1	brussel_sprouts	1	Z	18	0	15	0		0	0	37.9343864999992	38.0343568999997
6276.25	0.0999799999999595	3	satiated	stimuli/non_foods\non-food_inanimate_bed.jpg	1	1	1	non-food_inanimate_bed	0	S	13	0	160	0		0	0	38.0843828999996	38.1843628999995
6313.75	0.0999827999994523	4	satiated	stimuli/non_foods\non-food_animate_german_shepherd.jpg	1	1	1	non-food_animate_german_shepherd	0	W	16	0	114	0		0	0	38.2343817999999	38.3343645999994
6351.25	0.0999806999998327	5	satiated	stimuli/non_foods\non-food_inanimate_toilet.jpg	1	1	1	non-food_inanimate_toilet	0	P	11	0	220	0		0	0	38.3843769999994	38.4843576999992
6388.75	0.100013600000239	6	satiated	stimuli/foods\steak.jpg	1	1	1	steak	1	F	3	0	270	0		0	0	38.5343764999998	38.6343901
6426.25	0.0999534999991738	7	satiated	stimuli/non_foods\non-food_inanimate_horn.jpg	1	1	1	non-food_inanimate_horn	0	M	9	0	190	0		0	0	38.6843896	38.7843430999992
6463.75	0.0999987999994119	8	satiated	stimuli/foods\pork_and_rice.jpg	1	1	1	pork_and_rice	1	H	5	0	245	0		0	0	38.8343501999998	38.9343489999992
6501.25	0.09998110000015	9	satiated	stimuli/non_foods\non-food_animate_green_bug.jpg	1	1	1	non-food_animate_green_bug	0	K	7	0	118	0		0	0	38.9843627999999	39.0843439
6538.75	0.100005799999963	10	satiated	stimuli/foods\risotto_with_zucchini.jpg	1	1	1	risotto_with_zucchini	1	W	16	0	260	0		0	0	39.1343486999995	39.2343544999994
6576.25	0.0999905000007857	11	satiated	stimuli/foods\toasted_bread_with_tomatoes.jpg	1	1	1	toasted_bread_with_tomatoes	1	V	15	0	275	0		0	0	39.2843627999991	39.3843532999999
6613.75	0.0999856999997064	12	satiated	stimuli/foods\lamb_chops.jpg	1	1	1	lamb_chops	1	X	17	0	70	0		0	0	39.4343683999996	39.5343540999993
6651.25	0.0997382999994443	13	satiated	stimuli/foods\pepperoni_pizza.jpg	1	1	1	pepperoni_pizza	1	B	0	0	241	0		0	0	39.584613	39.6843512999994
6688.75	0.0999882999994952	14	satiated	stimuli/non_foods\non-food_animate_grasshopper.jpg	1	1	1	non-food_animate_grasshopper	0	J	6	0	117	0		0	0	39.7343634999997	39.8343517999992
6726.25	0.0999841000002561	15	satiated	stimuli/foods\coconut.jpg	1	1	1	coconut	1	G	4	0	33	0		0	0	39.8843672999992	39.9843513999995
6763.75	0.0999965999999404	16	satiated	stimuli/foods\hazelnuts.jpg	1	1	1	hazelnuts	1	I	21	1	65	0		0	0	40.0343588999995	40.1343554999994
6801.25	0.0999824999998964	17	satiated	stimuli/non_foods\non-food_inanimate_waterlily.jpg	1	1	1	non-food_inanimate_waterlily	0	D	2	0	226	0		0	0	40.1843613999999	40.2843438999998
6838.75	0.099986600000193	18	satiated	stimuli/foods\raw_ham.jpg	1	1	1	raw_ham	1	K	7	0	253	0		0	0	40.3343710999998	40.4343577
6876.25	0.0999592000007397	19	satiated	stimuli/foods\oven-roasted_tomatoes.jpg	1	1	1	oven-roasted_tomatoes	1	G	4	0	232	0		0	0	40.4843846999993	40.5843439
6913.75	0.0999838999996427	20	satiated	stimuli/foods\chestnut.jpg	1	1	1	chestnut	1	S	13	0	24	0		0	0	40.6343590999995	40.7343429999992
6951.25	0.0999872000002142	21	satiated	stimuli/non_foods\non-food_inanimate_fern.jpg	1	1	1	non-food_inanimate_fern	0	G	4	0	180	1	a	0.841815400000087	1	40.7843546999993	40.8843418999995
6988.75	0.0999862000007852	22	satiated	stimuli/foods\spaghetti_with_meat_sauce.jpg	1	1	1	spaghetti_with_meat_sauce	1	P	11	0	267	0		0	0	40.9343538999992	41.0343401
7026.25	0.0999836999999388	23	satiated	stimuli/non_foods\non-food_animate_lion.jpg	1	1	1	non-food_animate_lion	0	X	17	0	125	0		0	0	41.0843551999997	41.1843388999996
7063.75	0.099981200000002	24	satiated	stimuli/foods\savory_pie.jpg	1	1	1	savory_pie	1	V	15	0	265	0		0	0	41.2343496999993	41.3343308999993
7101.25	0.10000459999992	25	satiated	stimuli/non_foods\non-food_animate_cheetah.jpg	1	1	1	non-food_animate_cheetah	0	M	9	0	100	0		0	0	41.3843512999993	41.4843558999992
7138.75	0.0999855999998545	26	satiated	stimuli/non_foods\non-food_inanimate_nest.jpg	1	1	1	non-food_inanimate_nest	0	V	15	0	196	0		0	0	41.5343483999995	41.6343339999994
7176.25	0.0999860000001718	27	satiated	stimuli/foods\cooked_prawn.jpg	1	1	1	cooked_prawn	1	Z	18	0	36	0		0	0	41.6843469999994	41.7843329999996
7213.75	0.0999712000002546	28	satiated	stimuli/non_foods\non-food_animate_parrot.jpg	1	1	1	non-food_animate_parrot	0	S	13	0	133	0		0	0	41.8343490999996	41.9343202999999
7251.25	0.099975799999811	29	satiated	stimuli/non_foods\non-food_animate_pigeon.jpg	1	1	1	non-food_animate_pigeon	0	K	7	0	136	0		0	0	41.9843418	42.0843175999998
7288.75	0.0999501999995118	30	satiated	stimuli/non_foods\non-food_inanimate_alarm_clock.jpg	1	1	1	non-food_inanimate_alarm_clock	0	N	10	0	158	0		0	0	42.1343815	42.2343316999995
7326.25	0.0999393000001874	31	satiated	stimuli/foods\baked_lamb_with_potatoes.jpg	1	1	1	baked_lamb_with_potatoes	1	Z	18	0	8	0		0	0	42.2843913999995	42.3843306999997
7363.75	0.0999911999997494	32	satiated	stimuli/non_foods\non-food_animate_squirrel.jpg	1	1	1	non-food_animate_squirrel	0	V	15	0	150	0		0	0	42.4343437999996	42.5343349999994
7401.25	0.0999837999997908	33	satiated	stimuli/non_foods\non-food_animate_eagle.jpg	1	1	1	non-food_animate_eagle	0	C	1	0	110	0		0	0	42.5843429999995	42.6843267999993
7438.75	0.100013500000387	34	satiated	stimuli/non_foods\non-food_animate_woman.jpg	1	1	1	non-food_animate_woman	0	I	21	1	154	0		0	0	42.7343084999993	42.8343219999997
7476.25	0.0999895000004472	35	satiated	stimuli/foods\hotdog.jpg	1	1	1	hotdog	1	M	9	0	67	0		0	0	42.8843377999992	42.9843272999997
7513.75	0.0999855000000025	36	satiated	stimuli/foods\lemon_meringue_pie.jpg	1	1	1	lemon_meringue_pie	1	S	13	0	73	1	a	0.391857300000083	1	43.0343362999993	43.1343217999993
7551.25	0.100002600000153	37	satiated	stimuli/foods\broccoli.jpg	1	1	1	broccoli	1	J	6	0	13	0		0	0	43.1843204999996	43.2843230999997
7588.75	0.0999837999997908	38	satiated	stimuli/foods\raisins.jpg	1	1	1	raisins	1	L	8	0	252	0		0	0	43.3343393999994	43.4343231999992
7626.25	0.0999876000005315	39	satiated	stimuli/foods\radish.jpg	1	1	1	radish	1	G	4	0	251	0		0	0	43.4843341999995	43.5843218
7663.75	0.0999799999999595	40	satiated	stimuli/foods\apple.jpg	1	1	1	apple	1	P	11	0	1	0		0	0	43.6343354999999	43.7343154999999
7701.25	0.0999874999997701	41	satiated	stimuli/non_foods\non-food_inanimate_teddy_bear.jpg	1	1	1	non-food_inanimate_teddy_bear	0	N	10	0	218	0		0	0	43.7843236999997	43.8843111999995
7738.75	0.100007199999709	42	satiated	stimuli/foods\cannoli.jpg	1	1	1	cannoli	1	T	14	0	17	0		0	0	43.9343061	44.0343132999997
7776.25	0.0999941999998555	43	satiated	stimuli/non_foods\non-food_inanimate_tree.jpg	1	1	1	non-food_inanimate_tree	0	B	0	0	223	0		0	0	44.0843199999999	44.1843141999998
7813.75	0.100003399999878	44	satiated	stimuli/foods\linguine_with_clams.jpg	1	1	1	linguine_with_clams	1	V	15	0	77	0		0	0	44.2343117	44.3343150999999
7851.25	0.0999785000003612	45	satiated	stimuli/non_foods\non-food_animate_cow.jpg	1	1	1	non-food_animate_cow	0	T	14	0	103	0		0	0	44.3843279999992	44.4843064999995
7888.75	0.0999851000005947	46	satiated	stimuli/non_foods\non-food_inanimate_skirt.jpg	1	1	1	non-food_inanimate_skirt	0	N	10	0	209	0		0	0	44.5343257999994	44.6343108999999
7926.25	0.099986600000193	47	satiated	stimuli/foods\fruit_pie.jpg	1	1	1	fruit_pie	1	T	14	0	54	0		0	0	44.6843219999992	44.7843085999993
7963.75	0.0999972999998135	48	satiated	stimuli/non_foods\non-food_inanimate_cap.jpg	1	1	1	non-food_inanimate_cap	0	S	13	0	171	0		0	0	44.8343214999995	44.9343187999993
8001.25	0.0999837999997908	49	satiated	stimuli/foods\risotto_with_peas_and_asparagus_tips.jpg	1	1	1	risotto_with_peas_and_asparagus_tips	1	X	17	0	259	0		0	0	44.9843222	45.0843059999997
8038.75	0.0999665999997887	50	satiated	stimuli/non_foods\non-food_inanimate_guitar.jpg	1	1	1	non-food_inanimate_guitar	0	W	16	0	185	0		0	0	45.1343361999998	45.2343027999996
8076.25	0.0999762000001283	51	satiated	stimuli/non_foods\non-food_animate_swan.jpg	1	1	1	non-food_animate_swan	0	B	0	0	152	0		0	0	45.2843274999996	45.3843036999997
8113.75	0.0999901000004684	52	satiated	stimuli/non_foods\non-food_animate_bee.jpg	1	1	1	non-food_animate_bee	0	W	16	0	95	0		0	0	45.4343149999995	45.5343051
8151.25	0.0999964000002365	53	satiated	stimuli/non_foods\non-food_animate_raccoon.jpg	1	1	1	non-food_animate_raccoon	0	P	11	0	139	0		0	0	45.5843096999997	45.6843061
8188.75	0.0999695000000429	54	satiated	stimuli/non_foods\non-food_animate_snail.jpg	1	1	1	non-food_animate_snail	0	S	13	0	149	0		0	0	45.7343155999997	45.8342850999998
8226.25	0.0999480000000403	55	satiated	stimuli/non_foods\non-food_animate_porcupine.jpg	1	1	1	non-food_animate_porcupine	0	T	14	0	138	0		0	0	45.8843500999992	45.9842980999993
8263.75	0.0999745999997685	56	satiated	stimuli/foods\swordfish.jpg	1	1	1	swordfish	1	V	15	0	273	0		0	0	46.0343040999996	46.1342786999994
8301.25	0.100002000000131	57	satiated	stimuli/non_foods\non-food_inanimate_rope.jpg	1	1	1	non-food_inanimate_rope	0	X	17	0	204	0		0	0	46.1842910999994	46.2842930999996
8338.75	0.0999797000004037	58	satiated	stimuli/non_foods\non-food_inanimate_orchid.jpg	1	1	1	non-food_inanimate_orchid	0	S	13	0	198	0		0	0	46.3343068999993	46.4342865999997
8376.25	0.0999917999997706	59	satiated	stimuli/non_foods\non-food_animate_mammoth.jpg	1	1	1	non-food_animate_mammoth	0	V	15	0	128	0		0	0	46.4843040999995	46.5842958999992
8413.75	0.0999915000002147	60	satiated	stimuli/non_foods\non-food_inanimate_folding_chair.jpg	1	1	1	non-food_inanimate_folding_chair	0	P	11	0	182	0		0	0	46.6342938999996	46.7342853999999
8451.25	0.0999826000006578	61	satiated	stimuli/foods\stew_with_potatoes_and_carrots.jpg	1	1	1	stew_with_potatoes_and_carrots	1	W	16	0	271	0		0	0	46.7842962999994	46.8842789
8488.75	0.099993099999665	62	satiated	stimuli/foods\spring_onions.jpg	1	1	1	spring_onions	1	T	14	0	269	0		0	0	46.9342860999996	47.0342791999992
8526.25	0.0999860000001718	63	satiated	stimuli/non_foods\non-food_animate_gorilla.jpg	1	1	1	non-food_animate_gorilla	0	X	17	0	116	0		0	0	47.0843009999999	47.184287
8563.75	0.0999909000001935	64	satiated	stimuli/non_foods\non-food_inanimate_leaf.jpg	1	1	1	non-food_inanimate_leaf	0	T	14	0	192	0		0	0	47.2342999999992	47.3342908999994
8601.25	0.0999818999998752	65	satiated	stimuli/non_foods\non-food_animate_killer_whale.jpg	1	1	1	non-food_animate_killer_whale	0	R	12	0	123	0		0	0	47.3842949999998	47.4842768999997
8638.75	0.100021399999605	66	satiated	stimuli/non_foods\non-food_inanimate_scissors.jpg	1	1	1	non-food_inanimate_scissors	0	V	15	0	205	0		0	0	47.5343003999997	47.6343217999993
8676.25	0.0999868999997489	67	satiated	stimuli/non_foods\non-food_animate_penguin.jpg	1	1	1	non-food_animate_penguin	0	N	10	0	135	0		0	0	47.6842902999997	47.7842771999995
8713.75	0.100027699999373	68	satiated	stimuli/non_foods\non-food_inanimate_wrench.jpg	1	1	1	non-food_inanimate_wrench	0	M	9	0	227	0		0	0	47.8342714999999	47.9342991999993
8751.25	0.0999913000005108	69	satiated	stimuli/foods\cooked_ham.jpg	1	1	1	cooked_ham	1	D	2	0	35	0		0	0	47.9842936999994	48.0842849999999
8788.75	0.0999670000001061	70	satiated	stimuli/non_foods\non-food_animate_caterpillar.jpg	1	1	1	non-food_animate_caterpillar	0	W	16	0	99	0		0	0	48.1343061999996	48.2342731999997
8826.25	0.0999586000007184	71	satiated	stimuli/foods\pear.jpg	1	1	1	pear	1	D	2	0	239	0		0	0	48.2843154999991	48.3842740999999
8863.75	0.0999824000000444	72	satiated	stimuli/foods\potatoes.jpg	1	1	1	potatoes	1	V	15	0	248	0		0	0	48.4342871999997	48.5342695999998
8901.25	0.0999873999999181	73	satiated	stimuli/non_foods\non-food_animate_cat.jpg	1	1	1	non-food_animate_cat	0	G	4	0	98	0		0	0	48.5842800999999	48.6842674999998
8938.75	0.100000699999327	74	satiated	stimuli/non_foods\non-food_animate_deer.jpg	1	1	1	non-food_animate_deer	0	D	2	0	105	0		0	0	48.7342773	48.8342779999994
8976.25	0.100013100000069	75	satiated	stimuli/foods\lettuce.jpg	1	1	1	lettuce	1	H	5	0	75	0		0	0	48.8842631999996	48.9842762999997
9013.75	0.0999851999995371	76	satiated	stimuli/non_foods\non-food_animate_Asian_man.jpg	1	1	1	non-food_animate_Asian_man	0	R	12	0	88	0		0	0	49.0342782999996	49.1342634999992
9051.25	0.0999775000000227	77	satiated	stimuli/foods\mortadella.jpg	1	1	1	mortadella	1	G	4	0	83	0		0	0	49.1842741999999	49.2842516999999
9088.75	0.0999989000001733	78	satiated	stimuli/non_foods\non-food_animate_dolphin.jpg	1	1	1	non-food_animate_dolphin	0	S	13	0	106	0		0	0	49.3342700999992	49.4342689999994
9126.25	0.0999868999997489	79	satiated	stimuli/foods\cinnamon.jpg	1	1	1	cinnamon	1	D	2	0	30	0		0	0	49.4842738999996	49.5842607999994
9163.75	0.0999867000000449	80	satiated	stimuli/foods\beetroots.jpg	1	1	1	beetroots	1	W	16	0	10	0		0	0	49.6342754999996	49.7342621999996
9201.25	0.0999845000005735	81	satiated	stimuli/foods\coffee_beans.jpg	1	1	1	coffee_beans	1	G	4	0	34	0		0	0	49.7842730999992	49.8842575999997
9238.75	0.099998499999856	82	satiated	stimuli/non_foods\non-food_animate_slug.jpg	1	1	1	non-food_animate_slug	0	D	2	0	148	0		0	0	49.9342689999994	50.0342674999993
9276.25	0.0999855999998545	83	satiated	stimuli/non_foods\non-food_inanimate_padlock.jpg	1	1	1	non-food_inanimate_padlock	0	B	0	0	199	0		0	0	50.0842800999999	50.1842656999997
9313.75	0.0999870999994528	84	satiated	stimuli/non_foods\non-food_animate_lizard.jpg	1	1	1	non-food_animate_lizard	0	P	11	0	126	0		0	0	50.2342669999998	50.3342540999993
9351.25	0.0999887999996645	85	satiated	stimuli/non_foods\non-food_animate_millipede.jpg	1	1	1	non-food_animate_millipede	0	L	8	0	129	0		0	0	50.3842672999999	50.4842560999996
9388.75	0.0999905999997281	86	satiated	stimuli/foods\honey.jpg	1	1	1	honey	1	X	17	0	66	0		0	0	50.5342677999997	50.6342583999995
9426.25	0.100022099999478	87	satiated	stimuli/non_foods\non-food_animate_monkey.jpg	1	1	1	non-food_animate_monkey	0	G	4	0	130	1	a	0	0	50.6842649999999	50.7842870999993
9463.75	0.0999739999997473	88	satiated	stimuli/foods\pancakes.jpg	1	1	1	pancakes	1	H	5	0	234	0		0	0	50.8342747999995	50.9342487999993
9501.25	0.100000800000089	89	satiated	stimuli/non_foods\non-food_inanimate_hay.jpg	1	1	1	non-food_inanimate_hay	0	X	17	0	187	0		0	0	50.9842458999992	51.0842466999993
9538.75	0.0999837999997908	90	satiated	stimuli/foods\apricot.jpg	1	1	1	apricot	1	N	10	0	2	0		0	0	51.1342611	51.2342448999998
9576.25	0.0999877000003835	91	satiated	stimuli/non_foods\non-food_inanimate_bicycle.jpg	1	1	1	non-food_inanimate_bicycle	0	W	16	0	161	0		0	0	51.2842557999993	51.3842434999997
9613.75	0.0999873999999181	92	satiated	stimuli/foods\potato_and_green_bean_salad.jpg	1	1	1	potato_and_green_bean_salad	1	B	0	0	246	0		0	0	51.4342603999994	51.5342477999993
9651.25	0.0999748000003819	93	satiated	stimuli/non_foods\non-food_animate_ladybug.jpg	1	1	1	non-food_animate_ladybug	0	F	3	0	124	0		0	0	51.5842687999993	51.6842435999997
9688.75	0.0999868999997489	94	satiated	stimuli/foods\fries.jpg	1	1	1	fries	1	T	14	0	52	0		0	0	51.7342555999994	51.8342424999992
9726.25	0.0999973999996655	95	satiated	stimuli/non_foods\non-food_animate_llama.jpg	1	1	1	non-food_animate_llama	0	F	3	0	127	0		0	0	51.8842525	51.9842498999997
9763.75	0.099978000000192	96	satiated	stimuli/non_foods\non-food_animate_ram.jpg	1	1	1	non-food_animate_ram	0	B	0	0	140	0		0	0	52.0342623999995	52.1342403999997
9801.25	0.0999910999998974	97	satiated	stimuli/foods\brownie.jpg	1	1	1	brownie	1	C	1	0	14	0		0	0	52.1842502	52.2842412999998
9838.75	0.0999964000002365	98	satiated	stimuli/foods\smoked_ham.jpg	1	1	1	smoked_ham	1	S	13	0	266	0		0	0	52.3342509999993	52.4342473999995
9876.25	0.0999729000004663	99	satiated	stimuli/non_foods\non-food_animate_frog.jpg	1	1	1	non-food_animate_frog	0	K	7	0	113	0		0	0	52.4842616999995	52.5842345999999
9913.75	0.0999837999997908	100	satiated	stimuli/non_foods\non-food_inanimate_nailpolish.jpg	1	1	1	non-food_inanimate_nailpolish	0	N	10	0	195	0		0	0	52.6342479999994	52.7342317999992
9951.25	0.0999891999999818	101	satiated	stimuli/non_foods\non-food_inanimate_moss.jpg	1	1	1	non-food_inanimate_moss	0	Z	18	0	194	0		0	0	52.7842476999995	52.8842368999995
9988.75	0.09997039999962	102	satiated	stimuli/foods\fruit_flan.jpg	1	1	1	fruit_flan	1	L	8	0	53	0		0	0	52.9342631	53.0342334999996
10026.25	0.0999894000005952	103	satiated	stimuli/foods\minestrone_soup.jpg	1	1	1	minestrone_soup	1	V	15	0	82	0		0	0	53.0842424999992	53.1842318999998
10063.75	0.100003800000195	104	satiated	stimuli/non_foods\non-food_inanimate_bush.jpg	1	1	1	non-food_inanimate_bush	0	D	2	0	167	0		0	0	53.2342323999992	53.3342361999994
10101.25	0.0999832000006791	105	satiated	stimuli/non_foods\non-food_animate_iguana.jpg	1	1	1	non-food_animate_iguana	0	T	14	0	121	0		0	0	53.3842504999993	53.4842337
10138.75	0.0999821000004886	106	satiated	stimuli/foods\omelette.jpg	1	1	1	omelette	1	X	17	0	228	0		0	0	53.5342477999993	53.6342298999998
10176.25	0.0999852999993891	107	satiated	stimuli/non_foods\non-food_inanimate_toy_airplane.jpg	1	1	1	non-food_inanimate_toy_airplane	0	V	15	0	222	0		0	0	53.6842422999998	53.7842275999992
10213.75	0.0999859000003198	108	satiated	stimuli/non_foods\non-food_animate_hummingbird.jpg	1	1	1	non-food_animate_hummingbird	0	X	17	0	120	0		0	0	53.8342385999995	53.9342244999998
10251.25	0.0999830999999176	109	satiated	stimuli/foods\raw_sausage.jpg	1	1	1	raw_sausage	1	J	6	0	254	0		0	0	53.9842503	54.0842333999999
10288.75	0.0999860999991142	110	satiated	stimuli/non_foods\non-food_inanimate_broom.jpg	1	1	1	non-food_inanimate_broom	0	K	7	0	164	0		0	0	54.1342359	54.2342219999991
10326.25	0.0999854000001505	111	satiated	stimuli/non_foods\non-food_animate_duck.jpg	1	1	1	non-food_animate_duck	0	J	6	0	109	0		0	0	54.2842376999997	54.3842230999999
10363.75	0.100001799999518	112	satiated	stimuli/non_foods\non-food_inanimate_canoe.jpg	1	1	1	non-food_inanimate_canoe	0	R	12	0	170	0		0	0	54.4342250999998	54.5342268999993
10401.25	0.0999792999991769	113	satiated	stimuli/foods\peach.jpg	1	1	1	peach	1	S	13	0	238	0		0	0	54.5842407	54.6842199999992
10438.75	0.0999689000000217	114	satiated	stimuli/foods\donut.jpg	1	1	1	donut	1	W	16	0	44	0		0	0	54.7342603999996	54.8342292999996
10476.25	0.0999858000004679	115	satiated	stimuli/non_foods\non-food_animate_giraffe.jpg	1	1	1	non-food_animate_giraffe	0	Z	18	0	115	0		0	0	54.8842294999995	54.9842153
10513.75	0.0999808000005942	116	satiated	stimuli/foods\pineapple.jpg	1	1	1	pineapple	1	B	0	0	243	0		0	0	55.0342268999993	55.1342076999999
10551.25	0.10001530000045	117	satiated	stimuli/foods\pasta_carbonara.jpg	1	1	1	pasta_carbonara	1	H	5	0	236	0		0	0	55.1842144999991	55.2842297999996
10588.75	0.100006499999836	118	satiated	stimuli/foods\lemon.jpg	1	1	1	lemon	1	F	3	0	72	0		0	0	55.3342152999994	55.4342217999992
10626.25	0.0999900999995589	119	satiated	stimuli/foods\mushroom.jpg	1	1	1	mushroom	1	D	2	0	85	0		0	0	55.4842338999997	55.5842239999993
10663.75	0.0999742000003607	120	satiated	stimuli/foods\red_cabbage.jpg	1	1	1	red_cabbage	1	C	1	0	256	0		0	0	55.6342338999993	55.7342080999997
10701.25	0.0999820000006366	121	satiated	stimuli/foods\cream_donuts.jpg	1	1	1	cream_donuts	1	Z	18	0	39	0		0	0	55.7842232999992	55.8842052999998
10738.75	0.100001099999645	122	satiated	stimuli/non_foods\non-food_animate_dragonfly.jpg	1	1	1	non-food_animate_dragonfly	0	L	8	0	108	0		0	0	55.9342139	56.0342149999997
10776.25	0.0999846999993679	123	satiated	stimuli/foods\dates.jpg	1	1	1	dates	1	C	1	0	43	0		0	0	56.0842272999998	56.1842119999992
10813.75	0.0999730000003183	124	satiated	stimuli/non_foods\non-food_animate_elephant.jpg	1	1	1	non-food_animate_elephant	0	P	11	0	111	0		0	0	56.2342247999995	56.3341977999999
10851.25	0.0999861999998757	125	satiated	stimuli/foods\green_beans.jpg	1	1	1	green_beans	1	H	5	0	61	0		0	0	56.3842280999997	56.4842142999996
10888.75	0.0999903000001723	126	satiated	stimuli/non_foods\non-food_inanimate_stoplight.jpg	1	1	1	non-food_inanimate_stoplight	0	M	9	0	214	0		0	0	56.5342241999997	56.6342144999999
10926.25	0.0999788999997691	127	satiated	stimuli/non_foods\non-food_animate_camel.jpg	1	1	1	non-food_animate_camel	0	V	15	0	97	0		0	0	56.6842253999994	56.7842042999991
10963.75	0.100002899999708	128	satiated	stimuli/foods\avocado.jpg	1	1	1	avocado	1	L	8	0	5	0		0	0	56.8342046999996	56.9342075999994
11001.25	0.100003500000639	129	satiated	stimuli/foods\fennel.jpg	1	1	1	fennel	1	K	7	0	47	0		0	0	56.9841942999992	57.0841977999999
11038.75	0.0999851000005947	130	satiated	stimuli/non_foods\non-food_inanimate_socks.jpg	1	1	1	non-food_inanimate_socks	0	F	3	0	211	0		0	0	57.1342124999992	57.2341975999998
11076.25	0.0999832999996215	131	satiated	stimuli/foods\almonds.jpg	1	1	1	almonds	1	T	14	0	0	0		0	0	57.2842166999999	57.3841999999995
11113.75	0.0999879000000874	132	satiated	stimuli/foods\cereal.jpg	1	1	1	cereal	1	P	11	0	22	0		0	0	57.4342094999993	57.5341973999994
11151.25	0.0999582000004011	133	satiated	stimuli/non_foods\non-food_animate_seahorse.jpg	1	1	1	non-food_animate_seahorse	0	X	17	0	145	0		0	0	57.5842372999996	57.6841955
11188.75	0.0999873999999181	134	satiated	stimuli/non_foods\non-food_inanimate_soccer_ball.jpg	1	1	1	non-food_inanimate_soccer_ball	0	Z	18	0	210	0		0	0	57.7342050999996	57.8341924999995
11226.25	0.0999886999998125	135	satiated	stimuli/foods\roasted_chicken.jpg	1	1	1	roasted_chicken	1	M	9	0	261	0		0	0	57.8842034999998	57.9841921999996
11263.75	0.0999877000003835	136	satiated	stimuli/foods\artichoke.jpg	1	1	1	artichoke	1	B	0	0	3	0		0	0	58.0342022999994	58.1341899999998
11301.25	0.100020400000176	137	satiated	stimuli/non_foods\non-food_animate_Causasian_man.jpg	1	1	1	non-food_animate_Causasian_man	0	W	16	0	89	0		0	0	58.1842063999993	58.2842267999995
11338.75	0.0999960999997711	138	satiated	stimuli/non_foods\non-food_animate_ant.jpg	1	1	1	non-food_animate_ant	0	R	12	0	91	0		0	0	58.3342014	58.4341974999998
11376.25	0.0999903000001723	139	satiated	stimuli/non_foods\non-food_animate_dachshund.jpg	1	1	1	non-food_animate_dachshund	0	T	14	0	104	0		0	0	58.4841970999996	58.5841873999998
11755.25	0.0999796000005517	140	satiated	stimuli/non_foods\non-food_inanimate_short_sleeved_shirt.jpg	1	2	1	non-food_inanimate_short_sleeved_shirt	0	C	1	0	207	0		0	0	60.0008702999994	60.1008499
11792.75	0.0999818000000232	141	satiated	stimuli/non_foods\non-food_inanimate_jeans.jpg	1	2	1	non-food_inanimate_jeans	0	M	9	0	191	0		0	0	60.1508636999997	60.2508454999997
11830.25	0.100003200000174	142	satiated	stimuli/foods\pickles.jpg	1	2	1	pickles	1	B	0	0	242	0		0	0	60.3008419999996	60.4008451999998
11867.75	0.100000199999158	143	satiated	stimuli/foods\egg.jpg	1	2	1	egg	1	T	14	0	45	0		0	0	60.4508446	60.5508447999991
11905.25	0.0999730000003183	144	satiated	stimuli/non_foods\non-food_animate_runner.jpg	1	2	1	non-food_animate_runner	0	W	16	0	142	0		0	0	60.6008686999994	60.7008416999997
11942.75	0.0999855999998545	145	satiated	stimuli/foods\spinach.jpg	1	2	1	spinach	1	M	9	0	268	0		0	0	60.7508572999996	60.8508428999994
11980.25	0.0999830000000657	146	satiated	stimuli/foods\ice_cream.jpg	1	2	1	ice_cream	1	K	7	0	68	0		0	0	60.9008587999997	61.0008417999998
12017.75	0.100071300000309	147	satiated	stimuli/non_foods\non-food_inanimate_gloves.jpg	1	2	1	non-food_inanimate_gloves	0	N	10	0	183	0		0	0	61.0508580999995	61.1509293999998
12055.25	0.0999909000001935	148	satiated	stimuli/non_foods\non-food_inanimate_hammer.jpg	1	2	1	non-food_inanimate_hammer	0	B	0	0	186	0		0	0	61.2008658999994	61.3008567999996
12092.75	0.0999838999996427	149	satiated	stimuli/foods\pumpkin.jpg	1	2	1	pumpkin	1	C	1	0	250	0		0	0	61.3508531999996	61.4508370999993
12130.25	0.0999887999996645	150	satiated	stimuli/non_foods\non-food_inanimate_tulip.jpg	1	2	1	non-food_inanimate_tulip	0	J	6	0	224	0		0	0	61.5008491999997	61.6008379999994
12167.75	0.0999818999998752	151	satiated	stimuli/foods\grapes.jpg	1	2	1	grapes	1	Z	18	0	60	0		0	0	61.6508514999996	61.7508333999995
12205.25	0.0999842999999601	152	satiated	stimuli/foods\salmon.jpg	1	2	1	salmon	1	R	12	0	264	0		0	0	61.8008491999999	61.9008334999999
12242.75	0.0999876000005315	153	satiated	stimuli/non_foods\non-food_inanimate_ring.jpg	1	2	1	non-food_inanimate_ring	0	D	2	0	203	0		0	0	61.9508461999994	62.0508338
12280.25	0.0999855000000025	154	satiated	stimuli/foods\chocolate_chip_cookies.jpg	1	2	1	chocolate_chip_cookies	1	Z	18	0	27	0		0	0	62.1008447999993	62.2008302999993
12317.75	0.100009000000682	155	satiated	stimuli/foods\kiwi.jpg	1	2	1	kiwi	1	F	3	0	69	0		0	0	62.2508408999993	62.3508499
12355.25	0.0999632000002748	156	satiated	stimuli/foods\lollies.jpg	1	2	1	lollies	1	X	17	0	78	0		0	0	62.4008624999997	62.5008257
12392.75	0.0999889000004259	157	satiated	stimuli/non_foods\non-food_inanimate_tent.jpg	1	2	1	non-food_inanimate_tent	0	L	8	0	219	0		0	0	62.5508407999996	62.6508297
12430.25	0.099986600000193	158	satiated	stimuli/foods\rice_cake.jpg	1	2	1	rice_cake	1	N	10	0	258	0		0	0	62.7008412999994	62.8008278999996
12467.75	0.0999880999997913	159	satiated	stimuli/non_foods\non-food_animate_yellow_bug.jpg	1	2	1	non-food_animate_yellow_bug	0	H	5	0	155	0		0	0	62.8508377999997	62.9508258999995
12505.25	0.099984499999664	160	satiated	stimuli/non_foods\non-food_animate_baby_crawling.jpg	1	2	1	non-food_animate_baby_crawling	0	Z	18	0	92	0		0	0	63.0008425999995	63.1008270999992
12542.75	0.0999604999997246	161	satiated	stimuli/foods\clams.jpg	1	2	1	clams	1	C	1	0	32	0		0	0	63.1508550999997	63.2508155999994
12580.25	0.0999821000004886	162	satiated	stimuli/non_foods\non-food_inanimate_bowling_ball.jpg	1	2	1	non-food_inanimate_bowling_ball	0	B	0	0	162	0		0	0	63.3008385999992	63.4008206999997
12617.75	0.0999863000006371	163	satiated	stimuli/foods\oyster.jpg	1	2	1	oyster	1	N	10	0	233	0		0	0	63.4508327999993	63.5508190999999
12655.25	0.0999830000000657	164	satiated	stimuli/foods\grilled_chicken_breast.jpg	1	2	1	grilled_chicken_breast	1	K	7	0	63	0		0	0	63.6008335999995	63.7008165999996
12692.75	0.0999664999999368	165	satiated	stimuli/foods\chocolate_pudding.jpg	1	2	1	chocolate_pudding	1	O	22	1	29	0		0	0	63.7508484999998	63.8508149999998
12730.25	0.0999896999992416	166	satiated	stimuli/non_foods\non-food_animate_clown.jpg	1	2	1	non-food_animate_clown	0	M	9	0	102	0		0	0	63.9008285	64.0008181999992
12767.75	0.0999992000006387	167	satiated	stimuli/non_foods\non-food_inanimate_nettle.jpg	1	2	1	non-food_inanimate_nettle	0	B	0	0	197	0		0	0	64.0508287999992	64.1508279999998
12805.25	0.0999745999997685	168	satiated	stimuli/non_foods\non-food_inanimate_grass.jpg	1	2	1	non-food_inanimate_grass	0	H	5	0	184	1	a	0.541809999999714	1	64.2008373999997	64.3008119999995
12842.75	0.0999871000003623	169	satiated	stimuli/foods\nectarine.jpg	1	2	1	nectarine	1	P	11	0	87	0		0	0	64.3508257999993	64.4508128999996
12880.25	0.0999848999999813	170	satiated	stimuli/foods\chocolate_pralines.jpg	1	2	1	chocolate_pralines	1	H	5	0	28	0		0	0	64.5008255999992	64.6008104999992
12917.75	0.0999900000006164	171	satiated	stimuli/foods\taco.jpg	1	2	1	taco	1	R	12	0	274	0		0	0	64.6508227999993	64.7508127999999
12955.25	0.0999566999998933	172	satiated	stimuli/foods\pea_pod.jpg	1	2	1	pea_pod	1	K	7	0	237	0		0	0	64.8008419999996	64.9007986999995
12992.75	0.0999873000000662	173	satiated	stimuli/foods\fried_calamari.jpg	1	2	1	fried_calamari	1	W	16	0	50	0		0	0	64.9508206999999	65.050808
13030.25	0.0999839000005522	174	satiated	stimuli/non_foods\non-food_inanimate_chair.jpg	1	2	1	non-food_inanimate_chair	0	L	8	0	172	0		0	0	65.1008226999993	65.2008065999999
13067.75	0.0999881000007008	175	satiated	stimuli/non_foods\non-food_inanimate_button.jpg	1	2	1	non-food_inanimate_button	0	S	13	0	168	0		0	0	65.2508163999992	65.3508044999999
13105.25	0.0999878000002354	176	satiated	stimuli/foods\capsicum.jpg	1	2	1	capsicum	1	N	10	0	18	0		0	0	65.4008158999995	65.5008036999998
13142.75	0.0999824999998964	177	satiated	stimuli/non_foods\non-food_inanimate_construction_helment.jpg	1	2	1	non-food_inanimate_construction_helment	0	P	11	0	175	0		0	0	65.5508200999993	65.6508025999992
13180.25	0.0999590999999782	178	satiated	stimuli/foods\cauliflower.jpg	1	2	1	cauliflower	1	S	13	0	20	0		0	0	65.7008154999994	65.8007745999994
13217.75	0.0999871000003623	179	satiated	stimuli/non_foods\non-food_inanimate_pine_cone.jpg	1	2	1	non-food_inanimate_pine_cone	0	X	17	0	200	0		0	0	65.8508078999994	65.9507949999997
13255.25	0.0999894999995377	180	satiated	stimuli/foods\brie.jpg	1	2	1	brie	1	B	0	0	12	0		0	0	66.0008031999996	66.1007926999991
13292.75	0.0999895000004472	181	satiated	stimuli/foods\banana.jpg	1	2	1	banana	1	T	14	0	9	0		0	0	66.1508030999994	66.2507925999998
13330.25	0.099979099999473	182	satiated	stimuli/non_foods\non-food_inanimate_chandelier.jpg	1	2	1	non-food_inanimate_chandelier	0	G	4	0	173	0		0	0	66.3008135999999	66.4007926999993
13367.75	0.100010199999815	183	satiated	stimuli/foods\cupcake.jpg	1	2	1	cupcake	1	K	7	0	42	0		0	0	66.4508025999994	66.5508127999992
13405.25	0.0999557000004643	184	satiated	stimuli/foods\cherry.jpg	1	2	1	cherry	1	R	12	0	23	0		0	0	66.6008398999993	66.7007955999998
13442.75	0.0999864000004891	185	satiated	stimuli/foods\fried_zucchini.jpg	1	2	1	fried_zucchini	1	P	11	0	51	0		0	0	66.7508088999994	66.8507952999998
13480.25	0.0999818000000232	186	satiated	stimuli/foods\green_olives.jpg	1	2	1	green_olives	1	T	14	0	62	0		0	0	66.9008087999991	67.0007905999992
13517.75	0.0999904999998762	187	satiated	stimuli/non_foods\non-food_animate_donkey.jpg	1	2	1	non-food_animate_donkey	0	M	9	0	107	0		0	0	67.0508043	67.1507947999999
13555.25	0.0999874999997701	188	satiated	stimuli/foods\lentils.jpg	1	2	1	lentils	1	V	15	0	74	0		0	0	67.2008034999999	67.3007909999997
13592.75	0.099989899999855	189	satiated	stimuli/non_foods\non-food_inanimate_rack.jpg	1	2	1	non-food_inanimate_rack	0	K	7	0	202	0		0	0	67.3508033999997	67.4507932999995
13630.25	0.100002000000131	190	satiated	stimuli/non_foods\non-food_animate_horse.jpg	1	2	1	non-food_animate_horse	0	H	5	0	119	0		0	0	67.5007858999998	67.6007878999999
13667.75	0.0999869000006584	191	satiated	stimuli/non_foods\non-food_animate_baby_sitting.jpg	1	2	1	non-food_animate_baby_sitting	0	K	7	0	93	0		0	0	67.6507988999992	67.7507857999999
13705.25	0.0999852999993891	192	satiated	stimuli/non_foods\non-food_inanimate_speakers.jpg	1	2	1	non-food_inanimate_speakers	0	X	17	0	212	0		0	0	67.8008012	67.9007864999994
13742.75	0.099984499999664	193	satiated	stimuli/foods\asparagus.jpg	1	2	1	asparagus	1	N	10	0	4	0		0	0	67.9507991999999	68.0507836999996
13780.25	0.0999896000002991	194	satiated	stimuli/non_foods\non-food_inanimate_headphones.jpg	1	2	1	non-food_inanimate_headphones	0	F	3	0	188	0		0	0	68.1007962999993	68.2007858999996
13817.75	0.100010199999815	195	satiated	stimuli/non_foods\non-food_inanimate_skateboard.jpg	1	2	1	non-food_inanimate_skateboard	0	H	5	0	208	0		0	0	68.2507968	68.3508069999998
13855.25	0.0999391000004834	196	satiated	stimuli/foods\lime.jpg	1	2	1	lime	1	V	15	0	76	0		0	0	68.4008405999994	68.5007796999998
13892.75	0.099980000000869	197	satiated	stimuli/non_foods\non-food_inanimate_shell.jpg	1	2	1	non-food_inanimate_shell	0	L	8	0	206	0		0	0	68.5507937999992	68.6507738
13930.25	0.0999967999996443	198	satiated	stimuli/foods\cucumber.jpg	1	2	1	cucumber	1	V	15	0	41	0		0	0	68.7007819	68.8007786999997
13967.75	0.099988700000722	199	satiated	stimuli/foods\meatballs.jpg	1	2	1	meatballs	1	O	22	1	81	0		0	0	68.8507932999992	68.9507819999999
14005.25	0.0999871000003623	200	satiated	stimuli/foods\gnocchi.jpg	1	2	1	gnocchi	1	F	3	0	58	0		0	0	69.0007804999996	69.1007675999999
14042.75	0.0999879000000874	201	satiated	stimuli/non_foods\non-food_animate_rhino.jpg	1	2	1	non-food_animate_rhino	0	B	0	0	141	1	a	0.391818000000058	1	69.1507792999992	69.2507671999992
14080.25	0.09997039999962	202	satiated	stimuli/foods\celery.jpg	1	2	1	celery	1	X	17	0	21	0		0	0	69.3007780999997	69.4007484999993
14117.75	0.0999654999995983	203	satiated	stimuli/foods\mussels.jpg	1	2	1	mussels	1	K	7	0	86	0		0	0	69.4508041999998	69.5507696999994
14155.25	0.0999860000001718	204	satiated	stimuli/foods\potato_chips.jpg	1	2	1	potato_chips	1	X	17	0	247	0		0	0	69.6007845999993	69.7007705999995
14192.75	0.0999859000003198	205	satiated	stimuli/non_foods\non-food_inanimate_clover.jpg	1	2	1	non-food_inanimate_clover	0	W	16	0	174	0		0	0	69.7507846999997	69.8507706
14230.25	0.099992100000236	206	satiated	stimuli/non_foods\non-food_animate_student_female.jpg	1	2	1	non-food_animate_student_female	0	M	9	0	151	0		0	0	69.9007745999997	70.0007667
14267.75	0.0999827999994523	207	satiated	stimuli/non_foods\non-food_animate_fox.jpg	1	2	1	non-food_animate_fox	0	V	15	0	112	0		0	0	70.0507797999999	70.1507625999993
14305.25	0.0999630999995134	208	satiated	stimuli/foods\onion.jpg	1	2	1	onion	1	R	12	0	229	0		0	0	70.2008053	70.3007683999995
14342.75	0.0999826999996003	209	satiated	stimuli/non_foods\non-food_inanimate_protractor.jpg	1	2	1	non-food_inanimate_protractor	0	F	3	0	201	0		0	0	70.3507835999999	70.4507662999995
14380.25	0.0999996999998984	210	satiated	stimuli/foods\chilli.jpg	1	2	1	chilli	1	L	8	0	25	0		0	0	70.5007652999993	70.6007649999992
14417.75	0.0999859000003198	211	satiated	stimuli/foods\carrot.jpg	1	2	1	carrot	1	H	5	0	19	0		0	0	70.6507760999993	70.7507619999997
14455.25	0.0999885000001086	212	satiated	stimuli/non_foods\non-food_inanimate_briefcase.jpg	1	2	1	non-food_inanimate_briefcase	0	R	12	0	163	0		0	0	70.8007729999999	70.9007615
14492.75	0.0999863000006371	213	satiated	stimuli/foods\waffle.jpg	1	2	1	waffle	1	M	9	0	278	0		0	0	70.9507738999991	71.0507601999998
14530.25	0.0999908000003416	214	satiated	stimuli/non_foods\non-food_inanimate_buds.jpg	1	2	1	non-food_inanimate_buds	0	R	12	0	166	0		0	0	71.1007696999995	71.2007604999999
14567.75	0.0999762999999803	215	satiated	stimuli/non_foods\non-food_inanimate_suitcase.jpg	1	2	1	non-food_inanimate_suitcase	0	G	4	0	215	0		0	0	71.2507814999999	71.3507577999999
14605.25	0.0999814999995579	216	satiated	stimuli/non_foods\non-food_animate_young_boy.jpg	1	2	1	non-food_animate_young_boy	0	E	20	1	156	0		0	0	71.4007721999997	71.5007536999992
14642.75	0.0999846999993679	217	satiated	stimuli/foods\watermelon.jpg	1	2	1	watermelon	1	S	13	0	279	0		0	0	71.5507699999998	71.6507546999992
14680.25	0.0999861000000237	218	satiated	stimuli/non_foods\non-food_animate_sea_lion.jpg	1	2	1	non-food_animate_sea_lion	0	H	5	0	143	0		0	0	71.7007698999996	71.8007559999996
14717.75	0.100002099999983	219	satiated	stimuli/non_foods\non-food_inanimate_bamboo.jpg	1	2	1	non-food_inanimate_bamboo	0	D	2	0	159	1	a	0.450172799999564	1	71.8507717999992	71.9507738999991
14755.25	0.0999747999994725	220	satiated	stimuli/non_foods\non-food_animate_tortoise.jpg	1	2	1	non-food_animate_tortoise	0	C	1	0	153	0		0	0	72.0007791999997	72.1007539999991
14792.75	0.0999839999994947	221	satiated	stimuli/foods\ginger_root.jpg	1	2	1	ginger_root	1	M	9	0	57	0		0	0	72.1507652999999	72.2507492999994
14830.25	0.0999900000006164	222	satiated	stimuli/non_foods\non-food_inanimate_table.jpg	1	2	1	non-food_inanimate_table	0	G	4	0	217	0		0	0	72.3007610999994	72.4007511
14867.75	0.099967099999958	223	satiated	stimuli/foods\salami.jpg	1	2	1	salami	1	F	3	0	263	0		0	0	72.4507618999996	72.5507289999996
14905.25	0.100000600000385	224	satiated	stimuli/non_foods\non-food_animate_owl.jpg	1	2	1	non-food_animate_owl	0	S	13	0	132	0		0	0	72.6007470999994	72.7007476999997
14942.75	0.0999861000000237	225	satiated	stimuli/non_foods\non-food_animate_chicken.jpg	1	2	1	non-food_animate_chicken	0	D	2	0	101	0		0	0	72.7507578999994	72.8507439999994
14980.25	0.100026000000071	226	satiated	stimuli/non_foods\non-food_animate_alligator.jpg	1	2	1	non-food_animate_alligator	0	K	7	0	90	0		0	0	72.9007583999992	73.0007843999992
15017.75	0.099972600000001	227	satiated	stimuli/non_foods\non-food_inanimate_cactus_pot_plant.jpg	1	2	1	non-food_inanimate_cactus_pot_plant	0	B	0	0	169	0		0	0	73.0507691999992	73.1507417999992
15055.25	0.0999855000000025	228	satiated	stimuli/non_foods\non-food_animate_butterfly.jpg	1	2	1	non-food_animate_butterfly	0	T	14	0	96	0		0	0	73.2007557999996	73.3007412999996
15092.75	0.0999867999998969	229	satiated	stimuli/foods\baked_cod_with_carrots_and_green_beans.jpg	1	2	1	baked_cod_with_carrots_and_green_beans	1	G	4	0	7	0		0	0	73.3507573999996	73.4507441999995
15130.25	0.0999879000000874	230	satiated	stimuli/foods\rice.jpg	1	2	1	rice	1	C	1	0	257	0		0	0	73.5007520999998	73.6007399999999
15167.75	0.10001100000045	231	satiated	stimuli/foods\corncob.jpg	1	2	1	corncob	1	T	14	0	37	0		0	0	73.6507550999995	73.7507661
15205.25	0.0999543999996604	232	satiated	stimuli/foods\oregano.jpg	1	2	1	oregano	1	D	2	0	231	0		0	0	73.8007828999998	73.9007372999995
15242.75	0.0999899000007645	233	satiated	stimuli/non_foods\non-food_inanimate_fire_extinguisher.jpg	1	2	1	non-food_inanimate_fire_extinguisher	0	G	4	0	181	0		0	0	73.9507467999993	74.0507367
15280.25	0.0999838999996427	234	satiated	stimuli/foods\fruit_salad.jpg	1	2	1	fruit_salad	1	A	19	1	55	0		0	0	74.1007530999996	74.2007369999992
15317.75	0.099988800000574	235	satiated	stimuli/non_foods\non-food_animate_bat.jpg	1	2	1	non-food_animate_bat	0	P	11	0	94	0		0	0	74.2507455999994	74.3507344
15355.25	0.0999855000000025	236	satiated	stimuli/foods\grapefruits.jpg	1	2	1	grapefruits	1	K	7	0	59	0		0	0	74.4007448999992	74.5007303999992
15392.75	0.0999827999994523	237	satiated	stimuli/foods\prawn.jpg	1	2	1	prawn	1	X	17	0	249	1	a	0.541813400000137	1	74.5507459999999	74.6507287999993
15430.25	0.0999847000002774	238	satiated	stimuli/foods\wafer.jpg	1	2	1	wafer	1	F	3	0	277	0		0	0	74.7007416999995	74.8007263999998
15467.75	0.0999656000003597	239	satiated	stimuli/non_foods\non-food_inanimate_couch.jpg	1	2	1	non-food_inanimate_couch	0	V	15	0	176	0		0	0	74.8507649999992	74.9507305999996
15505.25	0.0999719999999797	240	satiated	stimuli/foods\frankfurter_and_provolone_salad.jpg	1	2	1	frankfurter_and_provolone_salad	1	S	13	0	49	0		0	0	75.0007418999994	75.1007138999994
15542.75	0.100008300000809	241	satiated	stimuli/foods\blackberry.jpg	1	2	1	blackberry	1	C	1	0	11	0		0	0	75.1507208999992	75.2507292
15580.25	0.100003999999899	242	satiated	stimuli/foods\bagel.jpg	1	2	1	bagel	1	K	7	0	6	0		0	0	75.3007247999994	75.4007287999993
15617.75	0.0999818000000232	243	satiated	stimuli/foods\peas.jpg	1	2	1	peas	1	H	5	0	240	0		0	0	75.4507436999993	75.5507254999993
15655.25	0.0999733999997261	244	satiated	stimuli/non_foods\non-food_animate_peacock.jpg	1	2	1	non-food_animate_peacock	0	T	14	0	134	0		0	0	75.6007518999995	75.7007252999992
15692.75	0.0999891000001298	245	satiated	stimuli/non_foods\non-food_animate_skunk.jpg	1	2	1	non-food_animate_skunk	0	X	17	0	147	0		0	0	75.7507324999997	75.8507215999998
15730.25	0.0999661999994714	246	satiated	stimuli/foods\croissant.jpg	1	2	1	croissant	1	N	10	0	40	0		0	0	75.9007314999999	76.0006976999994
15767.75	0.0999877000003835	247	satiated	stimuli/foods\rockmelon.jpg	1	2	1	rockmelon	1	D	2	0	262	0		0	0	76.0507254999993	76.1507131999997
15805.25	0.0999852000004466	248	satiated	stimuli/non_foods\non-food_inanimate_highlighter.jpg	1	2	1	non-food_inanimate_highlighter	0	M	9	0	189	0		0	0	76.2007238999995	76.3007090999999
15842.75	0.099991900000532	249	satiated	stimuli/non_foods\non-food_inanimate_towel.jpg	1	2	1	non-food_inanimate_towel	0	J	6	0	221	0		0	0	76.3507256999992	76.4507175999997
15880.25	0.0999879999999393	250	satiated	stimuli/non_foods\non-food_animate_mouse.jpg	1	2	1	non-food_animate_mouse	0	H	5	0	131	0		0	0	76.5007289999994	76.6007169999993
15917.75	0.0999851000005947	251	satiated	stimuli/non_foods\non-food_animate_polar_bear.jpg	1	2	1	non-food_animate_polar_bear	0	S	13	0	137	0		0	0	76.6507416999993	76.7507267999999
15955.25	0.0999902000003203	252	satiated	stimuli/foods\papaya.jpg	1	2	1	papaya	1	M	9	0	235	0		0	0	76.8007173999995	76.9007075999998
15992.75	0.0999813999997059	253	satiated	stimuli/non_foods\non-food_inanimate_desk.jpg	1	2	1	non-food_inanimate_desk	0	K	7	0	178	0		0	0	76.9507194999996	77.0507008999994
16030.25	0.0999957000003633	254	satiated	stimuli/non_foods\non-food_animate_young_girl.jpg	1	2	1	non-food_animate_young_girl	0	S	13	0	157	0		0	0	77.1007149999996	77.2007106999999
16067.75	0.0999571000002106	255	satiated	stimuli/foods\mango.jpg	1	2	1	mango	1	X	17	0	80	0		0	0	77.2507522999995	77.3507093999997
16105.25	0.0999836000000869	256	satiated	stimuli/foods\lasagna.jpg	1	2	1	lasagna	1	R	12	0	71	0		0	0	77.4007242999996	77.5007078999997
16142.75	0.0999868999997489	257	satiated	stimuli/foods\mandarin.jpg	1	2	1	mandarin	1	N	10	0	79	0		0	0	77.5507214999998	77.6507083999995
16180.25	0.0999863000006371	258	satiated	stimuli/non_foods\non-food_inanimate_stapler.jpg	1	2	1	non-food_inanimate_stapler	0	P	11	0	213	0		0	0	77.7007178999993	77.8007041999999
16217.75	0.099991900000532	259	satiated	stimuli/foods\pomegranate.jpg	1	2	1	pomegranate	1	N	10	0	244	0		0	0	77.8507151999993	77.9507070999998
16255.25	0.0999859000003198	260	satiated	stimuli/foods\museli_bars.jpg	1	2	1	museli_bars	1	W	16	0	84	0		0	0	78.0007178999995	78.1007037999998
16292.75	0.0999881999996433	261	satiated	stimuli/foods\strawberry.jpg	1	2	1	strawberry	1	X	17	0	272	0		0	0	78.1507154999999	78.2507036999996
16330.25	0.0999970000002577	262	satiated	stimuli/foods\cinnamon_sroll.jpg	1	2	1	cinnamon_sroll	1	W	16	0	31	0		0	0	78.3007155999994	78.4007125999997
16367.75	0.100003999999899	263	satiated	stimuli/non_foods\non-food_animate_sea_turtle.jpg	1	2	1	non-food_animate_sea_turtle	0	C	1	0	144	0		0	0	78.4507150999998	78.5507190999997
16405.25	0.0999856999997064	264	satiated	stimuli/foods\orange.jpg	1	2	1	orange	1	W	16	0	230	0		0	0	78.6007110999999	78.7006967999996
16442.75	0.0999846999993679	265	satiated	stimuli/non_foods\non-food_animate_kangaroo.jpg	1	2	1	non-food_animate_kangaroo	0	T	14	0	122	0		0	0	78.7507139999998	78.8506986999992
16480.25	0.100032199999987	266	satiated	stimuli/foods\cabbage.jpg	1	2	1	cabbage	1	J	6	0	16	0		0	0	78.9006833999993	79.0007155999992
16517.75	0.0999480999998923	267	satiated	stimuli/foods\red_beans.jpg	1	2	1	red_beans	1	M	9	0	255	0		0	0	79.0507400999995	79.1506881999994
16555.25	0.0999957000003633	268	satiated	stimuli/non_foods\non-food_inanimate_sun_flower.jpg	1	2	1	non-food_inanimate_sun_flower	0	T	14	0	216	0		0	0	79.2006981999994	79.3006938999997
16592.75	0.0999867000000449	269	satiated	stimuli/foods\figs.jpg	1	2	1	figs	1	H	5	0	48	0		0	0	79.3507050999997	79.4506917999997
16630.25	0.0999877000003835	270	satiated	stimuli/non_foods\non-food_animate_seal.jpg	1	2	1	non-food_animate_seal	0	R	12	0	146	0		0	0	79.5007051999992	79.6006928999996
16667.75	0.0999836999999388	271	satiated	stimuli/foods\cracker.jpg	1	2	1	cracker	1	D	2	0	38	0		0	0	79.6507035999994	79.7506872999993
16705.25	0.0999885999999606	272	satiated	stimuli/foods\tomato.jpg	1	2	1	tomato	1	N	10	0	276	0		0	0	79.8007008999994	79.9006894999993
16742.75	0.0999855999998545	273	satiated	stimuli/non_foods\non-food_inanimate_lighter.jpg	1	2	1	non-food_inanimate_lighter	0	D	2	0	193	0		0	0	79.9507033999998	80.0506889999997
16780.25	0.0999826999996003	274	satiated	stimuli/foods\chocolate_bar.jpg	1	2	1	chocolate_bar	1	C	1	0	26	0		0	0	80.1007018	80.2006844999996
16817.75	0.0999804000002769	275	satiated	stimuli/non_foods\non-food_inanimate_cupboard.jpg	1	2	1	non-food_inanimate_cupboard	0	X	17	0	177	0		0	0	80.2506986999997	80.3506791
16855.25	0.100006100000428	276	satiated	stimuli/foods\eggplant.jpg	1	2	1	eggplant	1	P	11	0	46	0		0	0	80.4006771999993	80.5006832999998
16892.75	0.099989800000003	277	satiated	stimuli/non_foods\non-food_inanimate_watering_can.jpg	1	2	1	non-food_inanimate_watering_can	0	R	12	0	225	0		0	0	80.5506937	80.6506835
16930.25	0.100015499999245	278	satiated	stimuli/foods\garlic.jpg	1	2	1	garlic	1	P	11	0	56	0		0	0	80.7006971999999	80.8007126999992
16967.75	0.0999512999997023	279	satiated	stimuli/non_foods\non-food_inanimate_bucket.jpg	1	2	1	non-food_inanimate_bucket	0	F	3	0	165	0		0	0	80.8507430999998	80.9506943999995
17872	0.0999768000001495	280	satiated	stimuli/non_foods\non-food_animate_peacock.jpg	1	3	1	non-food_animate_peacock	0	J	6	0	134	0		0	0	84.4673401999999	84.567317
17909.5	0.0999852000004466	281	satiated	stimuli/foods\potatoes.jpg	1	3	1	potatoes	1	X	17	0	248	0		0	0	84.6173315999995	84.7173167999999
17947	0.100010299999667	282	satiated	stimuli/non_foods\non-food_animate_ladybug.jpg	1	3	1	non-food_animate_ladybug	0	L	8	0	124	0		0	0	84.7673349999995	84.8673452999992
17984.5	0.0999364999997852	283	satiated	stimuli/foods\cinnamon.jpg	1	3	1	cinnamon	1	D	2	0	30	0		0	0	84.9173762999999	85.0173127999997
18022	0.0999749000002339	284	satiated	stimuli/non_foods\non-food_inanimate_nettle.jpg	1	3	1	non-food_inanimate_nettle	0	J	6	0	197	0		0	0	85.0673291999992	85.1673040999995
18059.5	0.0999919999994745	285	satiated	stimuli/non_foods\non-food_animate_student_female.jpg	1	3	1	non-food_animate_student_female	0	B	0	0	151	0		0	0	85.2173224999997	85.3173144999992
18097	0.0999554999998509	286	satiated	stimuli/non_foods\non-food_inanimate_shell.jpg	1	3	1	non-food_inanimate_shell	0	M	9	0	206	0		0	0	85.3673288	85.4672842999998
18134.5	0.0999904000000242	287	satiated	stimuli/non_foods\non-food_animate_hummingbird.jpg	1	3	1	non-food_animate_hummingbird	0	R	12	0	120	0		0	0	85.5173225999997	85.6173129999997
18172	0.0999830000000657	288	satiated	stimuli/non_foods\non-food_inanimate_nest.jpg	1	3	1	non-food_inanimate_nest	0	M	9	0	196	0		0	0	85.6673251999991	85.7673081999992
18209.5	0.0999867000000449	289	satiated	stimuli/non_foods\non-food_inanimate_protractor.jpg	1	3	1	non-food_inanimate_protractor	0	L	8	0	201	0		0	0	85.8173191999995	85.9173058999995
18247	0.0999631999993653	290	satiated	stimuli/foods\brie.jpg	1	3	1	brie	1	P	11	0	12	0		0	0	85.9673425999999	86.0673057999993
18284.5	0.10000459999992	291	satiated	stimuli/non_foods\non-food_inanimate_fern.jpg	1	3	1	non-food_inanimate_fern	0	X	17	0	180	0		0	0	86.1173181999993	86.2173227999992
18322	0.0999974999995175	292	satiated	stimuli/foods\fruit_flan.jpg	1	3	1	fruit_flan	1	C	1	0	53	0		0	0	86.2673083999998	86.3673058999993
18359.5	0.099984499999664	293	satiated	stimuli/non_foods\non-food_inanimate_highlighter.jpg	1	3	1	non-food_inanimate_highlighter	0	H	5	0	189	0		0	0	86.4173174999996	86.5173019999993
18397	0.100017700000535	294	satiated	stimuli/non_foods\non-food_inanimate_horn.jpg	1	3	1	non-food_inanimate_horn	0	D	2	0	190	0		0	0	86.5673161999994	86.6673338999999
18434.5	0.0999658999999156	295	satiated	stimuli/foods\cupcake.jpg	1	3	1	cupcake	1	J	6	0	42	0		0	0	86.7173370999999	86.8173029999998
18472	0.0999860000001718	296	satiated	stimuli/foods\salmon.jpg	1	3	1	salmon	1	B	0	0	264	0		0	0	86.8673151999992	86.9673011999994
18509.5	0.0999889000004259	297	satiated	stimuli/non_foods\non-food_animate_sea_turtle.jpg	1	3	1	non-food_animate_sea_turtle	0	V	15	0	144	0		0	0	87.0173097999996	87.1172987
18547	0.0999684999997044	298	satiated	stimuli/non_foods\non-food_animate_grasshopper.jpg	1	3	1	non-food_animate_grasshopper	0	P	11	0	117	0		0	0	87.1673142	87.2672826999997
18584.5	0.0999858999994103	299	satiated	stimuli/foods\mussels.jpg	1	3	1	mussels	1	U	23	1	86	0		0	0	87.3173072999998	87.4172931999992
18622	0.0999871000003623	300	satiated	stimuli/foods\tomato.jpg	1	3	1	tomato	1	R	12	0	276	0		0	0	87.4673079999993	87.5672950999997
18659.5	0.0999831999997696	301	satiated	stimuli/foods\cherry.jpg	1	3	1	cherry	1	C	1	0	23	0		0	0	87.6173080999997	87.7172912999995
18697	0.0999739999997473	302	satiated	stimuli/foods\rockmelon.jpg	1	3	1	rockmelon	1	N	10	0	262	1	a	0.541840699999739	1	87.7673207999997	87.8672947999994
18734.5	0.0999864000004891	303	satiated	stimuli/foods\artichoke.jpg	1	3	1	artichoke	1	H	5	0	3	0		0	0	87.9173048999992	88.0172912999997
18772	0.0999851999995371	304	satiated	stimuli/non_foods\non-food_inanimate_jeans.jpg	1	3	1	non-food_inanimate_jeans	0	N	10	0	191	0		0	0	88.0673036999997	88.1672888999992
18809.5	0.0999890000002779	305	satiated	stimuli/foods\peach.jpg	1	3	1	peach	1	V	15	0	238	0		0	0	88.2173006999992	88.3172896999995
18847	0.0999891999999818	306	satiated	stimuli/foods\watermelon.jpg	1	3	1	watermelon	1	B	0	0	279	0		0	0	88.3673058999993	88.4672950999993
18884.5	0.09997039999962	307	satiated	stimuli/foods\pancakes.jpg	1	3	1	pancakes	1	J	6	0	234	0		0	0	88.5173169	88.6172872999996
18922	0.0999862999997276	308	satiated	stimuli/non_foods\non-food_animate_llama.jpg	1	3	1	non-food_animate_llama	0	K	7	0	127	0		0	0	88.6672990999996	88.7672853999993
18959.5	0.0999839000005522	309	satiated	stimuli/non_foods\non-food_inanimate_skirt.jpg	1	3	1	non-food_inanimate_skirt	0	G	4	0	209	0		0	0	88.8172989999994	88.9172828999999
18997	0.0999899999997069	310	satiated	stimuli/foods\prawn.jpg	1	3	1	prawn	1	X	17	0	249	0		0	0	88.9672936999996	89.0672836999993
19034.5	0.0999860999991142	311	satiated	stimuli/non_foods\non-food_inanimate_suitcase.jpg	1	3	1	non-food_inanimate_suitcase	0	Z	18	0	215	0		0	0	89.1172956	89.2172816999991
19072	0.0999847000002774	312	satiated	stimuli/non_foods\non-food_animate_seal.jpg	1	3	1	non-food_animate_seal	0	C	1	0	146	0		0	0	89.2672938999995	89.3672785999997
19109.5	0.099988700000722	313	satiated	stimuli/non_foods\non-food_inanimate_soccer_ball.jpg	1	3	1	non-food_inanimate_soccer_ball	0	Z	18	0	210	0		0	0	89.4172913999992	89.5172800999999
19147	0.0999804000002769	314	satiated	stimuli/foods\chocolate_pudding.jpg	1	3	1	chocolate_pudding	1	P	11	0	29	0		0	0	89.5672974999998	89.6672779
19184.5	0.0999855000000025	315	satiated	stimuli/non_foods\non-food_animate_dachshund.jpg	1	3	1	non-food_animate_dachshund	0	R	12	0	104	0		0	0	89.7172892999997	89.8172747999997
19222	0.0999889000004259	316	satiated	stimuli/foods\pasta_carbonara.jpg	1	3	1	pasta_carbonara	1	F	3	0	236	0		0	0	89.8672879999995	89.9672768999999
19259.5	0.0999872999991567	317	satiated	stimuli/non_foods\non-food_inanimate_hay.jpg	1	3	1	non-food_inanimate_hay	0	Z	18	0	187	0		0	0	90.0172917	90.1172789999991
19297	0.100002000000131	318	satiated	stimuli/foods\chocolate_pralines.jpg	1	3	1	chocolate_pralines	1	P	11	0	28	0		0	0	90.1672917999995	90.2672937999996
19334.5	0.0999486000000616	319	satiated	stimuli/foods\cannoli.jpg	1	3	1	cannoli	1	X	17	0	17	0		0	0	90.3173208999997	90.4172694999997
19372	0.0999896000002991	320	satiated	stimuli/foods\dates.jpg	1	3	1	dates	1	G	4	0	43	0		0	0	90.4672812999997	90.5672709
19409.5	0.0999863999995796	321	satiated	stimuli/non_foods\non-food_inanimate_rope.jpg	1	3	1	non-food_inanimate_rope	0	V	15	0	204	0		0	0	90.6172823999996	90.7172687999991
19447	0.0999809000004461	322	satiated	stimuli/foods\orange.jpg	1	3	1	orange	1	L	8	0	230	0		0	0	90.7672827999995	90.8672637
19484.5	0.0999871000003623	323	satiated	stimuli/foods\raisins.jpg	1	3	1	raisins	1	H	5	0	252	0		0	0	90.9172796999992	91.0172667999996
19522	0.099990899999284	324	satiated	stimuli/foods\mandarin.jpg	1	3	1	mandarin	1	J	6	0	79	0		0	0	91.0672777	91.1672685999993
19559.5	0.0999828999993042	325	satiated	stimuli/foods\strawberry.jpg	1	3	1	strawberry	1	G	4	0	272	0		0	0	91.2172799999998	91.3172628999992
19597	0.0999895000004472	326	satiated	stimuli/foods\pear.jpg	1	3	1	pear	1	H	5	0	239	0		0	0	91.3672768999995	91.4672664
19634.5	0.0999887999996645	327	satiated	stimuli/non_foods\non-food_animate_skunk.jpg	1	3	1	non-food_animate_skunk	0	N	10	0	147	0		0	0	91.5172739999998	91.6172627999995
19672	0.0999863999995796	328	satiated	stimuli/foods\roasted_chicken.jpg	1	3	1	roasted_chicken	1	D	2	0	261	0		0	0	91.6672736999999	91.7672600999995
19709.5	0.100002799999857	329	satiated	stimuli/foods\steak.jpg	1	3	1	steak	1	L	8	0	270	0		0	0	91.8172729999997	91.9172757999995
19747	0.0999750000000859	330	satiated	stimuli/non_foods\non-food_inanimate_grass.jpg	1	3	1	non-food_inanimate_grass	0	B	0	0	184	0		0	0	91.9672838999995	92.0672588999996
19784.5	0.0999666999996407	331	satiated	stimuli/foods\eggplant.jpg	1	3	1	eggplant	1	W	16	0	46	0		0	0	92.1172889999998	92.2172556999994
19822	0.0999848999999813	332	satiated	stimuli/non_foods\non-food_inanimate_watering_can.jpg	1	3	1	non-food_inanimate_watering_can	0	N	10	0	225	0		0	0	92.2672708	92.3672557
19859.5	0.0999864000004891	333	satiated	stimuli/non_foods\non-food_inanimate_waterlily.jpg	1	3	1	non-food_inanimate_waterlily	0	M	9	0	226	0		0	0	92.4172654999993	92.5172518999998
19897	0.0999871000003623	334	satiated	stimuli/foods\lettuce.jpg	1	3	1	lettuce	1	T	14	0	75	0		0	0	92.5672646999992	92.6672517999996
19934.5	0.0999864000004891	335	satiated	stimuli/non_foods\non-food_inanimate_teddy_bear.jpg	1	3	1	non-food_inanimate_teddy_bear	0	V	15	0	218	0		0	0	92.7172648999995	92.8172513
19972	0.0999903000001723	336	satiated	stimuli/foods\clams.jpg	1	3	1	clams	1	X	17	0	32	0		0	0	92.8672633999995	92.9672536999997
20009.5	0.0999996999998984	337	satiated	stimuli/foods\pepperoni_pizza.jpg	1	3	1	pepperoni_pizza	1	V	15	0	241	0		0	0	93.017261	93.1172606999999
20047	0.0999721999996837	338	satiated	stimuli/foods\ice_cream.jpg	1	3	1	ice_cream	1	P	11	0	68	0		0	0	93.1672745999995	93.2672467999992
20084.5	0.0999922000000879	339	satiated	stimuli/non_foods\non-food_animate_mammoth.jpg	1	3	1	non-food_animate_mammoth	0	B	0	0	128	0		0	0	93.3172526999997	93.4172448999998
20122	0.0999860000001718	340	satiated	stimuli/foods\taco.jpg	1	3	1	taco	1	P	11	0	274	0		0	0	93.4672600999993	93.5672460999995
20159.5	0.100001699999666	341	satiated	stimuli/non_foods\non-food_animate_swan.jpg	1	3	1	non-food_animate_swan	0	M	9	0	152	0		0	0	93.6172569999999	93.7172586999995
20197	0.0999674999993658	342	satiated	stimuli/non_foods\non-food_animate_Causasian_man.jpg	1	3	1	non-food_animate_Causasian_man	0	G	4	0	89	0		0	0	93.7672763999999	93.8672438999993
20234.5	0.0999858000004679	343	satiated	stimuli/foods\pineapple.jpg	1	3	1	pineapple	1	N	10	0	243	0		0	0	93.9172569999992	94.0172427999996
20272	0.0999868999997489	344	satiated	stimuli/non_foods\non-food_animate_parrot.jpg	1	3	1	non-food_animate_parrot	0	S	13	0	133	0		0	0	94.0672539999996	94.1672408999993
20309.5	0.0999886999998125	345	satiated	stimuli/foods\salami.jpg	1	3	1	salami	1	M	9	0	263	0		0	0	94.2172538999994	94.3172425999992
20347	0.0999828999993042	346	satiated	stimuli/non_foods\non-food_inanimate_folding_chair.jpg	1	3	1	non-food_inanimate_folding_chair	0	T	14	0	182	0		0	0	94.3672569999999	94.4672398999992
20384.5	0.0999874999997701	347	satiated	stimuli/non_foods\non-food_inanimate_leaf.jpg	1	3	1	non-food_inanimate_leaf	0	U	23	1	192	0		0	0	94.5172494999997	94.6172369999995
20422	0.0999842999999601	348	satiated	stimuli/foods\fruit_pie.jpg	1	3	1	fruit_pie	1	T	14	0	54	0		0	0	94.6672516999997	94.7672359999997
20459.5	0.0999938000004477	349	satiated	stimuli/non_foods\non-food_animate_killer_whale.jpg	1	3	1	non-food_animate_killer_whale	0	P	11	0	123	1	a	0.391820099999677	1	94.8172496999996	94.9172435
20497	0.0999893999996857	350	satiated	stimuli/foods\cauliflower.jpg	1	3	1	cauliflower	1	X	17	0	20	0		0	0	94.9672473999999	95.0672367999996
20534.5	0.0999851000005947	351	satiated	stimuli/foods\stew_with_potatoes_and_carrots.jpg	1	3	1	stew_with_potatoes_and_carrots	1	G	4	0	271	0		0	0	95.1172486999994	95.2172338
20572	0.0999901999994108	352	satiated	stimuli/non_foods\non-food_inanimate_bowling_ball.jpg	1	3	1	non-food_inanimate_bowling_ball	0	Z	18	0	162	0		0	0	95.267245	95.3672351999994
20609.5	0.100024400000621	353	satiated	stimuli/foods\honey.jpg	1	3	1	honey	1	X	17	0	66	0		0	0	95.4172268999992	95.5172512999998
20647	0.099949899999956	354	satiated	stimuli/non_foods\non-food_inanimate_towel.jpg	1	3	1	non-food_inanimate_towel	0	B	0	0	221	0		0	0	95.5672744999993	95.6672243999992
20684.5	0.100009800000407	355	satiated	stimuli/foods\mortadella.jpg	1	3	1	mortadella	1	M	9	0	83	0		0	0	95.7172335999994	95.8172433999998
20722	0.0999831999997696	356	satiated	stimuli/non_foods\non-food_animate_clown.jpg	1	3	1	non-food_animate_clown	0	V	15	0	102	0		0	0	95.8672366999999	95.9672198999997
20759.5	0.0999857000006159	357	satiated	stimuli/foods\ginger_root.jpg	1	3	1	ginger_root	1	X	17	0	57	0		0	0	96.0172306999993	96.1172164
20797	0.0999774000001707	358	satiated	stimuli/non_foods\non-food_inanimate_buds.jpg	1	3	1	non-food_inanimate_buds	0	Z	18	0	166	0		0	0	96.1672320999996	96.2672094999998
20834.5	0.100004699999772	359	satiated	stimuli/foods\kiwi.jpg	1	3	1	kiwi	1	B	0	0	69	0		0	0	96.3172169999998	96.4172216999996
20872	0.0999887999996645	360	satiated	stimuli/non_foods\non-food_animate_frog.jpg	1	3	1	non-food_animate_frog	0	L	8	0	113	0		0	0	96.4672338	96.5672225999997
20909.5	0.0999917999997706	361	satiated	stimuli/foods\croissant.jpg	1	3	1	croissant	1	W	16	0	40	0		0	0	96.6172342999998	96.7172260999996
20947	0.0999716999995144	362	satiated	stimuli/non_foods\non-food_inanimate_alarm_clock.jpg	1	3	1	non-food_inanimate_alarm_clock	0	G	4	0	158	0		0	0	96.7672328999997	96.8672045999992
20984.5	0.100007400000322	363	satiated	stimuli/non_foods\non-food_animate_elephant.jpg	1	3	1	non-food_animate_elephant	0	T	14	0	111	0		0	0	96.9172139999991	97.0172213999995
21022	0.0999874999997701	364	satiated	stimuli/non_foods\non-food_animate_millipede.jpg	1	3	1	non-food_animate_millipede	0	X	17	0	129	0		0	0	97.0672233999994	97.1672108999992
21059.5	0.100002700000005	365	satiated	stimuli/non_foods\non-food_animate_dragonfly.jpg	1	3	1	non-food_animate_dragonfly	0	R	12	0	108	0		0	0	97.2172199999995	97.3172226999995
21097	0.0999619999993229	366	satiated	stimuli/foods\egg.jpg	1	3	1	egg	1	H	5	0	45	0		0	0	97.3672551999998	97.4672171999991
21134.5	0.0999861999998757	367	satiated	stimuli/non_foods\non-food_inanimate_headphones.jpg	1	3	1	non-food_inanimate_headphones	0	R	12	0	188	0		0	0	97.5172182999995	97.6172044999994
21172	0.099988700000722	368	satiated	stimuli/non_foods\non-food_animate_owl.jpg	1	3	1	non-food_animate_owl	0	K	7	0	132	0		0	0	97.6672188999992	97.7672075999999
21209.5	0.0999883999993472	369	satiated	stimuli/non_foods\non-food_inanimate_short_sleeved_shirt.jpg	1	3	1	non-food_inanimate_short_sleeved_shirt	0	B	0	0	207	0		0	0	97.8172187999999	97.9172071999992
21247	0.0999879000000874	370	satiated	stimuli/foods\baked_lamb_with_potatoes.jpg	1	3	1	baked_lamb_with_potatoes	1	Z	18	0	8	0		0	0	97.9672151999994	98.0672030999995
21284.5	0.0999890999992203	371	satiated	stimuli/foods\fried_calamari.jpg	1	3	1	fried_calamari	1	T	14	0	50	0		0	0	98.1172108999999	98.2171999999991
21322	0.100000699999327	372	satiated	stimuli/non_foods\non-food_animate_alligator.jpg	1	3	1	non-food_animate_alligator	0	L	8	0	90	0		0	0	98.2672063999998	98.3672070999992
21359.5	0.100033300000177	373	satiated	stimuli/non_foods\non-food_animate_caterpillar.jpg	1	3	1	non-food_animate_caterpillar	0	V	15	0	99	0		0	0	98.4172418999997	98.5172751999999
21397	0.0999736000003395	374	satiated	stimuli/foods\cream_donuts.jpg	1	3	1	cream_donuts	1	C	1	0	39	0		0	0	98.5672234999993	98.6671970999996
21434.5	0.0999864000004891	375	satiated	stimuli/foods\cucumber.jpg	1	3	1	cucumber	1	K	7	0	41	0		0	0	98.7172058999995	98.8171923
21472	0.0999977999999828	376	satiated	stimuli/non_foods\non-food_inanimate_tulip.jpg	1	3	1	non-food_inanimate_tulip	0	T	14	0	224	0		0	0	98.8672091999997	98.9672069999997
21509.5	0.0999799000001076	377	satiated	stimuli/foods\figs.jpg	1	3	1	figs	1	P	11	0	48	0		0	0	99.0172402999997	99.1172201999998
21547	0.0999643000004653	378	satiated	stimuli/foods\spaghetti_with_meat_sauce.jpg	1	3	1	spaghetti_with_meat_sauce	1	R	12	0	267	0		0	0	99.1672389999994	99.2672032999999
21584.5	0.0999831999997696	379	satiated	stimuli/foods\lentils.jpg	1	3	1	lentils	1	J	6	0	74	0		0	0	99.3172184999994	99.4172016999992
21622	0.0999872000002142	380	satiated	stimuli/foods\potato_chips.jpg	1	3	1	potato_chips	1	P	11	0	247	0		0	0	99.4672124999997	99.5671996999999
21659.5	0.100007199999709	381	satiated	stimuli/non_foods\non-food_animate_porcupine.jpg	1	3	1	non-food_animate_porcupine	0	T	14	0	138	0		0	0	99.6172116999996	99.7172188999994
21697	0.099988800000574	382	satiated	stimuli/non_foods\non-food_animate_seahorse.jpg	1	3	1	non-food_animate_seahorse	0	H	5	0	145	0		0	0	99.7672115999994	99.8672004
21734.5	0.0999855999998545	383	satiated	stimuli/non_foods\non-food_inanimate_button.jpg	1	3	1	non-food_inanimate_button	0	J	6	0	168	0		0	0	99.9172091	100.0171947
21772	0.0999879999999393	384	satiated	stimuli/foods\hamburger.jpg	1	3	1	hamburger	1	C	1	0	64	0		0	0	100.067210499999	100.167198499999
21809.5	0.0999732999998741	385	satiated	stimuli/non_foods\non-food_inanimate_bush.jpg	1	3	1	non-food_inanimate_bush	0	J	6	0	167	0		0	0	100.2172205	100.3171938
21847	0.0999867000000449	386	satiated	stimuli/non_foods\non-food_inanimate_lighter.jpg	1	3	1	non-food_inanimate_lighter	0	V	15	0	193	0		0	0	100.367206899999	100.4671936
21884.5	0.0999852999993891	387	satiated	stimuli/non_foods\non-food_inanimate_speakers.jpg	1	3	1	non-food_inanimate_speakers	0	G	4	0	212	0		0	0	100.5172064	100.617191699999
21922	0.0999859999992623	388	satiated	stimuli/non_foods\non-food_inanimate_broom.jpg	1	3	1	non-food_inanimate_broom	0	S	13	0	164	0		0	0	100.6672061	100.767192099999
21959.5	0.0999624000005497	389	satiated	stimuli/non_foods\non-food_inanimate_orchid.jpg	1	3	1	non-food_inanimate_orchid	0	L	8	0	198	0		0	0	100.817209399999	100.9171718
21997	0.0999706000002334	390	satiated	stimuli/foods\cooked_prawn.jpg	1	3	1	cooked_prawn	1	K	7	0	36	0		0	0	100.967216999999	101.0671876
22034.5	0.0999872000002142	391	satiated	stimuli/foods\chestnut.jpg	1	3	1	chestnut	1	T	14	0	24	0		0	0	101.117198999999	101.2171862
22072	0.0999883000004047	392	satiated	stimuli/non_foods\non-food_inanimate_tent.jpg	1	3	1	non-food_inanimate_tent	0	V	15	0	219	0		0	0	101.267195599999	101.3671839
22109.5	0.0999808999995366	393	satiated	stimuli/non_foods\non-food_inanimate_pine_cone.jpg	1	3	1	non-food_inanimate_pine_cone	0	P	11	0	200	0		0	0	101.4172	101.517180899999
22147	0.0999845999995159	394	satiated	stimuli/non_foods\non-food_inanimate_wrench.jpg	1	3	1	non-food_inanimate_wrench	0	C	1	0	227	0		0	0	101.567195	101.667179599999
22184.5	0.099988800000574	395	satiated	stimuli/non_foods\non-food_animate_deer.jpg	1	3	1	non-food_animate_deer	0	G	4	0	105	0		0	0	101.717194899999	101.8171837
22222	0.0999867999998969	396	satiated	stimuli/non_foods\non-food_animate_bee.jpg	1	3	1	non-food_animate_bee	0	L	8	0	95	0		0	0	101.8671918	101.9671786
22259.5	0.099986600000193	397	satiated	stimuli/foods\brussel_sprouts.jpg	1	3	1	brussel_sprouts	1	G	4	0	15	0		0	0	102.0171911	102.1171777
22297	0.0999880999997913	398	satiated	stimuli/non_foods\non-food_inanimate_canoe.jpg	1	3	1	non-food_inanimate_canoe	0	T	14	0	170	0		0	0	102.1671909	102.267178999999
22334.5	0.0999887999996645	399	satiated	stimuli/non_foods\non-food_animate_donkey.jpg	1	3	1	non-food_animate_donkey	0	S	13	0	107	0		0	0	102.317187	102.417175799999
22372	0.0999818000000232	400	satiated	stimuli/non_foods\non-food_inanimate_stoplight.jpg	1	3	1	non-food_inanimate_stoplight	0	G	4	0	214	0		0	0	102.4671902	102.567172
22409.5	0.0999971999999616	401	satiated	stimuli/non_foods\non-food_animate_yellow_bug.jpg	1	3	1	non-food_animate_yellow_bug	0	J	6	0	155	0		0	0	102.6171937	102.7171909
22447	0.0999510000001465	402	satiated	stimuli/non_foods\non-food_inanimate_ring.jpg	1	3	1	non-food_inanimate_ring	0	V	15	0	203	0		0	0	102.767223	102.867174
22484.5	0.0999880999997913	403	satiated	stimuli/non_foods\non-food_animate_baby_crawling.jpg	1	3	1	non-food_animate_baby_crawling	0	F	3	0	92	0		0	0	102.9171847	103.0171728
22522	0.100007000000005	404	satiated	stimuli/non_foods\non-food_animate_snail.jpg	1	3	1	non-food_animate_snail	0	G	4	0	149	0		0	0	103.0671871	103.1671941
22559.5	0.0999802999995154	405	satiated	stimuli/non_foods\non-food_inanimate_chair.jpg	1	3	1	non-food_inanimate_chair	0	S	13	0	172	0		0	0	103.2171824	103.317162699999
22597	0.0999831999997696	406	satiated	stimuli/foods\pea_pod.jpg	1	3	1	pea_pod	1	J	6	0	237	0		0	0	103.3671753	103.4671585
22634.5	0.100002099999983	407	satiated	stimuli/non_foods\non-food_animate_tortoise.jpg	1	3	1	non-food_animate_tortoise	0	T	14	0	153	0		0	0	103.517167399999	103.617169499999
22672	0.0999877000003835	408	satiated	stimuli/non_foods\non-food_inanimate_hammer.jpg	1	3	1	non-food_inanimate_hammer	0	W	16	0	186	0		0	0	103.6671707	103.7671584
22709.5	0.0999701999999161	409	satiated	stimuli/non_foods\non-food_animate_ant.jpg	1	3	1	non-food_animate_ant	0	H	5	0	91	0		0	0	103.817185299999	103.917155499999
22747	0.0999804999992193	410	satiated	stimuli/non_foods\non-food_animate_raccoon.jpg	1	3	1	non-food_animate_raccoon	0	R	12	0	139	0		0	0	103.9671681	104.067148599999
22784.5	0.100007699999878	411	satiated	stimuli/non_foods\non-food_animate_lizard.jpg	1	3	1	non-food_animate_lizard	0	H	5	0	126	0		0	0	104.117154199999	104.217161899999
22822	0.0999915000002147	412	satiated	stimuli/foods\fruit_salad.jpg	1	3	1	fruit_salad	1	K	7	0	55	0		0	0	104.267176699999	104.367168199999
22859.5	0.0999873999999181	413	satiated	stimuli/foods\avocado.jpg	1	3	1	avocado	1	Z	18	0	5	0		0	0	104.417184999999	104.517172399999
22897	0.100004500000068	414	satiated	stimuli/non_foods\non-food_inanimate_sun_flower.jpg	1	3	1	non-food_inanimate_sun_flower	0	X	17	0	216	0		0	0	104.567146799999	104.667151299999
22934.5	0.0999996000000465	415	satiated	stimuli/non_foods\non-food_inanimate_bucket.jpg	1	3	1	non-food_inanimate_bucket	0	H	5	0	165	0		0	0	104.717161699999	104.817161299999
22972	0.100014499999816	416	satiated	stimuli/foods\nectarine.jpg	1	3	1	nectarine	1	B	0	0	87	0		0	0	104.8671495	104.967164
23009.5	0.0999859000003198	417	satiated	stimuli/non_foods\non-food_inanimate_construction_helment.jpg	1	3	1	non-food_inanimate_construction_helment	0	F	3	0	175	0		0	0	105.017169899999	105.1171558
23047	0.0999797999993461	418	satiated	stimuli/non_foods\non-food_inanimate_toilet.jpg	1	3	1	non-food_inanimate_toilet	0	L	8	0	220	0		0	0	105.167168	105.267147799999
23084.5	0.099986500000341	419	satiated	stimuli/non_foods\non-food_animate_fox.jpg	1	3	1	non-food_animate_fox	0	R	12	0	112	0		0	0	105.3171661	105.4171526
23459.5	0.0999587999995128	420	satiated	stimuli/non_foods\non-food_animate_giraffe.jpg	1	4	1	non-food_animate_giraffe	0	X	17	0	115	0		0	0	106.8171826	106.917141399999
23497	0.0999830999999176	421	satiated	stimuli/foods\beetroots.jpg	1	4	1	beetroots	1	D	2	0	10	0		0	0	106.967154399999	107.067137499999
23534.5	0.0999855000000025	422	satiated	stimuli/foods\lasagna.jpg	1	4	1	lasagna	1	V	15	0	71	0		0	0	107.1171564	107.2171419
23572	0.099984399999812	423	satiated	stimuli/foods\spring_onions.jpg	1	4	1	spring_onions	1	X	17	0	269	0		0	0	107.2671507	107.367135099999
23609.5	0.0999882000005528	424	satiated	stimuli/foods\pumpkin.jpg	1	4	1	pumpkin	1	V	15	0	250	0		0	0	107.417149899999	107.5171381
23647	0.0999695000000429	425	satiated	stimuli/non_foods\non-food_animate_german_shepherd.jpg	1	4	1	non-food_animate_german_shepherd	0	K	7	0	114	0		0	0	107.567160099999	107.667129599999
23684.5	0.099978000000192	426	satiated	stimuli/foods\linguine_with_clams.jpg	1	4	1	linguine_with_clams	1	N	10	0	77	0		0	0	107.717149599999	107.817127599999
23722	0.0999668999993446	427	satiated	stimuli/non_foods\non-food_animate_ram.jpg	1	4	1	non-food_animate_ram	0	K	7	0	140	0		0	0	107.8671661	107.967132999999
23759.5	0.0999831999997696	428	satiated	stimuli/non_foods\non-food_animate_chicken.jpg	1	4	1	non-food_animate_chicken	0	B	0	0	101	0		0	0	108.0171475	108.1171307
23797	0.0999853000002986	429	satiated	stimuli/foods\coconut.jpg	1	4	1	coconut	1	N	10	0	33	0		0	0	108.167143899999	108.2671292
23834.5	0.099990899999284	430	satiated	stimuli/non_foods\non-food_animate_polar_bear.jpg	1	4	1	non-food_animate_polar_bear	0	T	14	0	137	0		0	0	108.3171462	108.417137099999
23872	0.099978000000192	431	satiated	stimuli/foods\donut.jpg	1	4	1	donut	1	V	15	0	44	0		0	0	108.467166199999	108.567144199999
23909.5	0.0999707000000853	432	satiated	stimuli/foods\hazelnuts.jpg	1	4	1	hazelnuts	1	U	23	1	65	0		0	0	108.617162099999	108.717132799999
23947	0.0999839999994947	433	satiated	stimuli/foods\pomegranate.jpg	1	4	1	pomegranate	1	W	16	0	244	0		0	0	108.7671412	108.867125199999
23984.5	0.0999824000000444	434	satiated	stimuli/foods\coffee_beans.jpg	1	4	1	coffee_beans	1	R	12	0	34	0		0	0	108.9171269	109.0171093
24022	0.100012900000365	435	satiated	stimuli/non_foods\non-food_inanimate_tree.jpg	1	4	1	non-food_inanimate_tree	0	T	14	0	223	1	a	0.541772700000365	1	109.0671127	109.1671256
24059.5	0.10000779999973	436	satiated	stimuli/non_foods\non-food_animate_bat.jpg	1	4	1	non-food_animate_bat	0	C	1	0	94	0		0	0	109.2171042	109.317112
24097	0.0999916000000667	437	satiated	stimuli/non_foods\non-food_inanimate_guitar.jpg	1	4	1	non-food_inanimate_guitar	0	W	16	0	185	0		0	0	109.3671299	109.4671215
24134.5	0.0999872000002142	438	satiated	stimuli/non_foods\non-food_animate_cheetah.jpg	1	4	1	non-food_animate_cheetah	0	B	0	0	100	0		0	0	109.517131799999	109.617119
24172	0.0999895000004472	439	satiated	stimuli/non_foods\non-food_inanimate_gloves.jpg	1	4	1	non-food_inanimate_gloves	0	R	12	0	183	0		0	0	109.667130399999	109.7671199
24209.5	0.0999870999994528	440	satiated	stimuli/foods\cooked_ham.jpg	1	4	1	cooked_ham	1	W	16	0	35	0		0	0	109.8171321	109.917119199999
24247	0.0999871999993047	441	satiated	stimuli/foods\baked_cod_with_carrots_and_green_beans.jpg	1	4	1	baked_cod_with_carrots_and_green_beans	1	S	13	0	7	0		0	0	109.9671288	110.067115999999
24284.5	0.0999946000001728	442	satiated	stimuli/foods\red_beans.jpg	1	4	1	red_beans	1	B	0	0	255	0		0	0	110.117126499999	110.2171211
24322	0.0999404000003778	443	satiated	stimuli/non_foods\non-food_animate_young_boy.jpg	1	4	1	non-food_animate_young_boy	0	C	1	0	156	0		0	0	110.267171699999	110.3671121
24359.5	0.0999732999998741	444	satiated	stimuli/foods\minestrone_soup.jpg	1	4	1	minestrone_soup	1	B	0	0	82	0		0	0	110.417137599999	110.517110899999
24397	0.0999967999996443	445	satiated	stimuli/foods\carrot.jpg	1	4	1	carrot	1	X	17	0	19	0		0	0	110.567113999999	110.667110799999
24434.5	0.0999803999993674	446	satiated	stimuli/foods\green_beans.jpg	1	4	1	green_beans	1	W	16	0	61	0		0	0	110.7171221	110.817102499999
24472	0.0999804000002769	447	satiated	stimuli/non_foods\non-food_animate_green_bug.jpg	1	4	1	non-food_animate_green_bug	0	P	11	0	118	0		0	0	110.867114299999	110.9670947
24509.5	0.100004800000534	448	satiated	stimuli/foods\lollies.jpg	1	4	1	lollies	1	T	14	0	78	0		0	0	111.017102999999	111.1171078
24547	0.0999861999998757	449	satiated	stimuli/non_foods\non-food_inanimate_nailpolish.jpg	1	4	1	non-food_inanimate_nailpolish	0	V	15	0	195	0		0	0	111.1671197	111.267105899999
24584.5	0.0999879999999393	450	satiated	stimuli/foods\museli_bars.jpg	1	4	1	museli_bars	1	P	11	0	84	0		0	0	111.317117099999	111.417105099999
24622	0.0999700000002122	451	satiated	stimuli/foods\cracker.jpg	1	4	1	cracker	1	N	10	0	38	0		0	0	111.467119899999	111.5670899
24659.5	0.0999916000000667	452	satiated	stimuli/foods\chocolate_bar.jpg	1	4	1	chocolate_bar	1	H	5	0	26	0		0	0	111.617114	111.7171056
24697	0.0999867000000449	453	satiated	stimuli/foods\gnocchi.jpg	1	4	1	gnocchi	1	V	15	0	58	0		0	0	111.767118199999	111.8671049
24734.5	0.0999874999997701	454	satiated	stimuli/foods\brownie.jpg	1	4	1	brownie	1	H	5	0	14	0		0	0	111.9171141	112.017101599999
24772	0.0999449999999342	455	satiated	stimuli/non_foods\non-food_animate_woman.jpg	1	4	1	non-food_animate_woman	0	M	9	0	154	0		0	0	112.0671635	112.1671085
24809.5	0.100003200000174	456	satiated	stimuli/non_foods\non-food_inanimate_cactus_pot_plant.jpg	1	4	1	non-food_inanimate_cactus_pot_plant	0	P	11	0	169	0		0	0	112.217097199999	112.3171004
24847	0.099983400000383	457	satiated	stimuli/foods\red_cabbage.jpg	1	4	1	red_cabbage	1	N	10	0	256	0		0	0	112.367114899999	112.4670983
24884.5	0.0999847000002774	458	satiated	stimuli/foods\lamb_chops.jpg	1	4	1	lamb_chops	1	W	16	0	70	0		0	0	112.5171039	112.6170886
24922	0.0999863999995796	459	satiated	stimuli/non_foods\non-food_inanimate_table.jpg	1	4	1	non-food_inanimate_table	0	F	3	0	217	0		0	0	112.6670998	112.7670862
24959.5	0.0999983000001521	460	satiated	stimuli/non_foods\non-food_inanimate_rack.jpg	1	4	1	non-food_inanimate_rack	0	H	5	0	202	0		0	0	112.817096299999	112.917094599999
24997	0.0999859999992623	461	satiated	stimuli/non_foods\non-food_inanimate_cap.jpg	1	4	1	non-food_inanimate_cap	0	D	2	0	171	0		0	0	112.9671085	113.067094499999
25034.5	0.0999816000003193	462	satiated	stimuli/non_foods\non-food_animate_horse.jpg	1	4	1	non-food_animate_horse	0	K	7	0	119	0		0	0	113.117108799999	113.2170904
25072	0.099987599999622	463	satiated	stimuli/foods\grilled_chicken_breast.jpg	1	4	1	grilled_chicken_breast	1	N	10	0	63	0		0	0	113.2671057	113.367093299999
25109.5	0.0999840000004042	464	satiated	stimuli/non_foods\non-food_animate_camel.jpg	1	4	1	non-food_animate_camel	0	J	6	0	97	0		0	0	113.417105	113.517089
25147	0.0999831999997696	465	satiated	stimuli/non_foods\non-food_animate_gorilla.jpg	1	4	1	non-food_animate_gorilla	0	V	15	0	116	0		0	0	113.5670967	113.667079899999
25184.5	0.100015500000154	466	satiated	stimuli/non_foods\non-food_inanimate_moss.jpg	1	4	1	non-food_inanimate_moss	0	B	0	0	194	0		0	0	113.717091099999	113.8171066
25222	0.0999635000007402	467	satiated	stimuli/foods\grapes.jpg	1	4	1	grapes	1	C	1	0	60	0		0	0	113.867113699999	113.9670772
25259.5	0.0999922000000879	468	satiated	stimuli/non_foods\non-food_animate_sea_lion.jpg	1	4	1	non-food_animate_sea_lion	0	L	8	0	143	0		0	0	114.0170855	114.1170777
25297	0.099987599999622	469	satiated	stimuli/foods\cabbage.jpg	1	4	1	cabbage	1	D	2	0	16	0		0	0	114.1670981	114.267085699999
25334.5	0.0999868999997489	470	satiated	stimuli/non_foods\non-food_animate_penguin.jpg	1	4	1	non-food_animate_penguin	0	V	15	0	135	0		0	0	114.3170934	114.4170803
25372	0.100002799999857	471	satiated	stimuli/foods\broccoli.jpg	1	4	1	broccoli	1	Z	18	0	13	0		0	0	114.4670963	114.5670991
25409.5	0.0999867000000449	472	satiated	stimuli/non_foods\non-food_inanimate_drum_set.jpg	1	4	1	non-food_inanimate_drum_set	0	K	7	0	179	0		0	0	114.6170813	114.717068
25447	0.0999978999998348	473	satiated	stimuli/foods\mushroom.jpg	1	4	1	mushroom	1	H	5	0	85	0		0	0	114.767083899999	114.867081799999
25484.5	0.0999779999992825	474	satiated	stimuli/foods\waffle.jpg	1	4	1	waffle	1	R	12	0	278	0		0	0	114.9171164	115.017094399999
25522	0.0999848999999813	475	satiated	stimuli/foods\grapefruits.jpg	1	4	1	grapefruits	1	L	8	0	59	0		0	0	115.0670923	115.1670772
25559.5	0.0999877000003835	476	satiated	stimuli/non_foods\non-food_animate_cat.jpg	1	4	1	non-food_animate_cat	0	Z	18	0	98	0		0	0	115.217089899999	115.3170776
25597	0.099960600000486	477	satiated	stimuli/foods\lemon_meringue_pie.jpg	1	4	1	lemon_meringue_pie	1	S	13	0	73	0		0	0	115.3671135	115.4670741
25634.5	0.099981200000002	478	satiated	stimuli/foods\almonds.jpg	1	4	1	almonds	1	D	2	0	0	0		0	0	115.5170933	115.6170745
25672	0.100010900000598	479	satiated	stimuli/foods\rice_cake.jpg	1	4	1	rice_cake	1	T	14	0	258	0		0	0	115.667070799999	115.7670817
25709.5	0.100002600000153	480	satiated	stimuli/non_foods\non-food_animate_pigeon.jpg	1	4	1	non-food_animate_pigeon	0	B	0	0	136	0		0	0	115.817066199999	115.917068799999
25747	0.0999721999996837	481	satiated	stimuli/non_foods\non-food_animate_young_girl.jpg	1	4	1	non-food_animate_young_girl	0	V	15	0	157	0		0	0	115.9670833	116.0670555
25784.5	0.100002000000131	482	satiated	stimuli/foods\omelette.jpg	1	4	1	omelette	1	N	10	0	228	0		0	0	116.117064999999	116.217067
25822	0.0999841999991986	483	satiated	stimuli/foods\oregano.jpg	1	4	1	oregano	1	S	13	0	231	0		0	0	116.267081	116.367065199999
25859.5	0.0999854000001505	484	satiated	stimuli/non_foods\non-food_inanimate_chandelier.jpg	1	4	1	non-food_inanimate_chandelier	0	Z	18	0	173	0		0	0	116.417079299999	116.5170647
25897	0.0999749000002339	485	satiated	stimuli/foods\smoked_ham.jpg	1	4	1	smoked_ham	1	H	5	0	266	0		0	0	116.567088	116.6670629
25934.5	0.0999996999998984	486	satiated	stimuli/non_foods\non-food_inanimate_clover.jpg	1	4	1	non-food_inanimate_clover	0	L	8	0	174	0		0	0	116.717092999999	116.817092699999
25972	0.0999848999999813	487	satiated	stimuli/non_foods\non-food_inanimate_bicycle.jpg	1	4	1	non-food_inanimate_bicycle	0	F	3	0	161	0		0	0	116.8670788	116.9670637
26009.5	0.0999867999998969	488	satiated	stimuli/foods\meatballs.jpg	1	4	1	meatballs	1	W	16	0	81	0		0	0	117.0170767	117.1170635
26047	0.0999769000000015	489	satiated	stimuli/foods\asparagus.jpg	1	4	1	asparagus	1	D	2	0	4	0		0	0	117.1670729	117.2670498
26084.5	0.0999689000000217	490	satiated	stimuli/foods\apple.jpg	1	4	1	apple	1	N	10	0	1	0		0	0	117.317090799999	117.417059699999
26122	0.0999639999999999	491	satiated	stimuli/foods\cereal.jpg	1	4	1	cereal	1	L	8	0	22	0		0	0	117.4670796	117.5670436
26159.5	0.0999810000002981	492	satiated	stimuli/foods\risotto_with_zucchini.jpg	1	4	1	risotto_with_zucchini	1	H	5	0	260	0		0	0	117.6170772	117.7170582
26197	0.0999927000002572	493	satiated	stimuli/foods\lime.jpg	1	4	1	lime	1	R	12	0	76	0		0	0	117.767062499999	117.867055199999
26234.5	0.0999873999999181	494	satiated	stimuli/non_foods\non-food_animate_monkey.jpg	1	4	1	non-food_animate_monkey	0	D	2	0	130	0		0	0	117.917067599999	118.017054999999
26272	0.0999879999999393	495	satiated	stimuli/foods\corncob.jpg	1	4	1	corncob	1	T	14	0	37	0		0	0	118.067069199999	118.167057199999
26309.5	0.0999873999999181	496	satiated	stimuli/non_foods\non-food_animate_eagle.jpg	1	4	1	non-food_animate_eagle	0	H	5	0	110	0		0	0	118.2170615	118.317048899999
26347	0.0999961000006806	497	satiated	stimuli/non_foods\non-food_animate_slug.jpg	1	4	1	non-food_animate_slug	0	C	1	0	148	0		0	0	118.367064499999	118.4670606
26384.5	0.0999842999999601	498	satiated	stimuli/non_foods\non-food_animate_baby_sitting.jpg	1	4	1	non-food_animate_baby_sitting	0	T	14	0	93	0		0	0	118.517064299999	118.617048599999
26422	0.0999822000003405	499	satiated	stimuli/foods\fennel.jpg	1	4	1	fennel	1	S	13	0	47	0		0	0	118.6670619	118.7670441
26459.5	0.099986600000193	500	satiated	stimuli/foods\mango.jpg	1	4	1	mango	1	D	2	0	80	0		0	0	118.817062599999	118.917049199999
26497	0.0999899000007645	501	satiated	stimuli/foods\rice.jpg	1	4	1	rice	1	C	1	0	257	0		0	0	118.967057999999	119.0670479
26534.5	0.0999931000005745	502	satiated	stimuli/foods\spinach.jpg	1	4	1	spinach	1	T	14	0	268	0		0	0	119.117067599999	119.2170607
26572	0.099963900000148	503	satiated	stimuli/foods\wafer.jpg	1	4	1	wafer	1	J	6	0	277	0		0	0	119.267078	119.3670419
26609.5	0.0999871000003623	504	satiated	stimuli/foods\celery.jpg	1	4	1	celery	1	M	9	0	21	0		0	0	119.4170528	119.5170399
26647	0.0999998999996023	505	satiated	stimuli/non_foods\non-food_inanimate_bed.jpg	1	4	1	non-food_inanimate_bed	0	L	8	0	160	0		0	0	119.5670438	119.667043699999
26684.5	0.099986600000193	506	satiated	stimuli/foods\blackberry.jpg	1	4	1	blackberry	1	D	2	0	11	0		0	0	119.7170522	119.8170388
26722	0.0999764999996842	507	satiated	stimuli/foods\pork_and_rice.jpg	1	4	1	pork_and_rice	1	P	11	0	245	0		0	0	119.867061299999	119.967037799999
26759.5	0.0999885999999606	508	satiated	stimuli/foods\radish.jpg	1	4	1	radish	1	G	4	0	251	0		0	0	120.0170516	120.1170402
26797	0.0999847000002774	509	satiated	stimuli/non_foods\non-food_animate_dolphin.jpg	1	4	1	non-food_animate_dolphin	0	C	1	0	106	0		0	0	120.167052299999	120.267037
26834.5	0.0999775999998747	510	satiated	stimuli/foods\apricot.jpg	1	4	1	apricot	1	J	6	0	2	0		0	0	120.3170605	120.417038099999
26872	0.0999888999995164	511	satiated	stimuli/foods\capsicum.jpg	1	4	1	capsicum	1	S	13	0	18	0		0	0	120.4670336	120.567022499999
26909.5	0.0999869000006584	512	satiated	stimuli/non_foods\non-food_animate_lion.jpg	1	4	1	non-food_animate_lion	0	N	10	0	125	0		0	0	120.617044799999	120.7170317
26947	0.0999972999998135	513	satiated	stimuli/non_foods\non-food_inanimate_desk.jpg	1	4	1	non-food_inanimate_desk	0	F	3	0	178	0		0	0	120.7670466	120.8670439
26984.5	0.0999591999998302	514	satiated	stimuli/foods\raw_sausage.jpg	1	4	1	raw_sausage	1	V	15	0	254	0		0	0	120.917069499999	121.017028699999
27022	0.0999753000005512	515	satiated	stimuli/foods\peas.jpg	1	4	1	peas	1	B	0	0	240	0		0	0	121.067057099999	121.1670324
27059.5	0.0999734999995781	516	satiated	stimuli/non_foods\non-food_animate_Asian_man.jpg	1	4	1	non-food_animate_Asian_man	0	W	16	0	88	0		0	0	121.2170416	121.317015099999
27097	0.100005599999349	517	satiated	stimuli/non_foods\non-food_animate_squirrel.jpg	1	4	1	non-food_animate_squirrel	0	C	1	0	150	0		0	0	121.3670199	121.467025499999
27134.5	0.0999841000002561	518	satiated	stimuli/non_foods\non-food_animate_runner.jpg	1	4	1	non-food_animate_runner	0	T	14	0	142	0		0	0	121.51704	121.6170241
27172	0.0999863000006371	519	satiated	stimuli/foods\frankfurter_and_provolone_salad.jpg	1	4	1	frankfurter_and_provolone_salad	1	L	8	0	49	0		0	0	121.667038899999	121.7670252
27209.5	0.0999841000002561	520	satiated	stimuli/non_foods\non-food_animate_kangaroo.jpg	1	4	1	non-food_animate_kangaroo	0	P	11	0	122	0		0	0	121.817035499999	121.9170196
27247	0.0999830000000657	521	satiated	stimuli/foods\banana.jpg	1	4	1	banana	1	F	3	0	9	0		0	0	121.9670373	122.0670203
27284.5	0.0999895000004472	522	satiated	stimuli/non_foods\non-food_inanimate_briefcase.jpg	1	4	1	non-food_inanimate_briefcase	0	W	16	0	163	0		0	0	122.117031299999	122.2170208
27322	0.0999903000001723	523	satiated	stimuli/foods\onion.jpg	1	4	1	onion	1	N	10	0	229	0		0	0	122.267030499999	122.367020799999
27359.5	0.0999836999999388	524	satiated	stimuli/non_foods\non-food_inanimate_bamboo.jpg	1	4	1	non-food_inanimate_bamboo	0	U	23	1	159	0		0	0	122.4170337	122.5170174
27397	0.10001100000045	525	satiated	stimuli/foods\garlic.jpg	1	4	1	garlic	1	Z	18	0	56	0		0	0	122.567008399999	122.6670194
27434.5	0.0999454000002515	526	satiated	stimuli/non_foods\non-food_animate_iguana.jpg	1	4	1	non-food_animate_iguana	0	H	5	0	121	1	a	0.391857800000253	1	122.7170689	122.8170143
27472	0.0999848999999813	527	satiated	stimuli/non_foods\non-food_animate_cow.jpg	1	4	1	non-food_animate_cow	0	T	14	0	103	0		0	0	122.8670268	122.9670117
27509.5	0.0999797999993461	528	satiated	stimuli/foods\papaya.jpg	1	4	1	papaya	1	X	17	0	235	0		0	0	123.0170338	123.117013599999
27547	0.0999869999996008	529	satiated	stimuli/foods\oyster.jpg	1	4	1	oyster	1	D	2	0	233	0		0	0	123.1670279	123.2670149
27584.5	0.0999853999992411	530	satiated	stimuli/non_foods\non-food_inanimate_socks.jpg	1	4	1	non-food_inanimate_socks	0	L	8	0	211	0		0	0	123.3170234	123.417008799999
27622	0.0999797000004037	531	satiated	stimuli/non_foods\non-food_animate_duck.jpg	1	4	1	non-food_animate_duck	0	P	11	0	109	0		0	0	123.467019999999	123.5669997
27659.5	0.0999863000006371	532	satiated	stimuli/foods\savory_pie.jpg	1	4	1	savory_pie	1	Z	18	0	265	0		0	0	123.617022799999	123.7170091
27697	0.0999924999996438	533	satiated	stimuli/non_foods\non-food_inanimate_stapler.jpg	1	4	1	non-food_inanimate_stapler	0	W	16	0	213	0		0	0	123.767059199999	123.867051699999
27734.5	0.0999858999994103	534	satiated	stimuli/foods\hotdog.jpg	1	4	1	hotdog	1	G	4	0	67	0		0	0	123.9170225	124.017008399999
27772	0.099987699999474	535	satiated	stimuli/non_foods\non-food_inanimate_cupboard.jpg	1	4	1	non-food_inanimate_cupboard	0	L	8	0	177	0		0	0	124.0670192	124.167006899999
27809.5	0.0999890999992203	536	satiated	stimuli/foods\bagel.jpg	1	4	1	bagel	1	M	9	0	6	0		0	0	124.2170176	124.317006699999
27847	0.100001699999666	537	satiated	stimuli/foods\fried_zucchini.jpg	1	4	1	fried_zucchini	1	H	5	0	51	0		0	0	124.3670113	124.467012999999
27884.5	0.0999770999997054	538	satiated	stimuli/foods\cinnamon_sroll.jpg	1	4	1	cinnamon_sroll	1	R	12	0	31	0		0	0	124.5170154	124.616992499999
27922	0.0999803000004249	539	satiated	stimuli/non_foods\non-food_inanimate_padlock.jpg	1	4	1	non-food_inanimate_padlock	0	P	11	0	199	0		0	0	124.667014899999	124.7669952
27959.5	0.0999873000000662	540	satiated	stimuli/foods\toasted_bread_with_tomatoes.jpg	1	4	1	toasted_bread_with_tomatoes	1	X	17	0	275	0		0	0	124.817004099999	124.916991399999
27997	0.0999815000004673	541	satiated	stimuli/foods\swordfish.jpg	1	4	1	swordfish	1	S	13	0	273	0		0	0	124.9670056	125.0669871
28034.5	0.0999854000001505	542	satiated	stimuli/non_foods\non-food_inanimate_scissors.jpg	1	4	1	non-food_inanimate_scissors	0	P	11	0	205	0		0	0	125.1170113	125.2169967
28072	0.099987599999622	543	satiated	stimuli/non_foods\non-food_animate_butterfly.jpg	1	4	1	non-food_animate_butterfly	0	T	14	0	96	0		0	0	125.2670099	125.366997499999
28109.5	0.0999886999998125	544	satiated	stimuli/foods\fries.jpg	1	4	1	fries	1	M	9	0	52	0		0	0	125.417007	125.5169957
28147	0.0999632000002748	545	satiated	stimuli/non_foods\non-food_inanimate_couch.jpg	1	4	1	non-food_inanimate_couch	0	R	12	0	176	0		0	0	125.5670297	125.6669929
28184.5	0.0999857999995584	546	satiated	stimuli/foods\oven-roasted_tomatoes.jpg	1	4	1	oven-roasted_tomatoes	1	B	0	0	232	0		0	0	125.7170049	125.816990699999
28222	0.0999860000001718	547	satiated	stimuli/foods\risotto_with_peas_and_asparagus_tips.jpg	1	4	1	risotto_with_peas_and_asparagus_tips	1	S	13	0	259	0		0	0	125.867004899999	125.966990899999
28259.5	0.099984499999664	548	satiated	stimuli/foods\lemon.jpg	1	4	1	lemon	1	H	5	0	72	0		0	0	126.0170036	126.1169881
28297	0.0998942000005627	549	satiated	stimuli/foods\pickles.jpg	1	4	1	pickles	1	Z	18	0	242	0		0	0	126.167121099999	126.2670153
28334.5	0.0999468999998498	550	satiated	stimuli/foods\potato_and_green_bean_salad.jpg	1	4	1	potato_and_green_bean_salad	1	J	6	0	246	0		0	0	126.317042199999	126.416989099999
28372	0.0999581000005492	551	satiated	stimuli/non_foods\non-food_inanimate_fire_extinguisher.jpg	1	4	1	non-food_inanimate_fire_extinguisher	0	Z	18	0	181	0		0	0	126.466998999999	126.5669571
28409.5	0.0999885000001086	552	satiated	stimuli/non_foods\non-food_inanimate_skateboard.jpg	1	4	1	non-food_inanimate_skateboard	0	N	10	0	208	0		0	0	126.6169967	126.7169852
28447	0.0999815000004673	553	satiated	stimuli/non_foods\non-food_animate_rhino.jpg	1	4	1	non-food_animate_rhino	0	T	14	0	141	0		0	0	126.767000299999	126.8669818
28484.5	0.0999706000002334	554	satiated	stimuli/foods\green_olives.jpg	1	4	1	green_olives	1	L	8	0	62	0		0	0	126.916995699999	127.0169663
28522	0.0999710000005507	555	satiated	stimuli/non_foods\non-food_animate_mouse.jpg	1	4	1	non-food_animate_mouse	0	R	12	0	131	0		0	0	127.066995599999	127.1669666
28559.5	0.0999867999998969	556	satiated	stimuli/non_foods\non-food_inanimate_toy_airplane.jpg	1	4	1	non-food_inanimate_toy_airplane	0	N	10	0	222	0		0	0	127.2169942	127.316981
28597	0.0999838999996427	557	satiated	stimuli/foods\chilli.jpg	1	4	1	chilli	1	M	9	0	25	0		0	0	127.366996	127.466979899999
28634.5	0.0999840000004042	558	satiated	stimuli/foods\chocolate_chip_cookies.jpg	1	4	1	chocolate_chip_cookies	1	L	8	0	27	0		0	0	127.5169928	127.6169768
28672	0.0999818000000232	559	satiated	stimuli/foods\raw_ham.jpg	1	4	1	raw_ham	1	S	13	0	253	0		0	0	127.6669936	127.7669754
29859.5	0.0999713999999585	560	satiated	stimuli/foods\blackberry.jpg	1	5	1	blackberry	1	X	17	0	11	0		0	0	132.416968199999	132.516939599999
29897	0.0999842999999601	561	satiated	stimuli/foods\eggplant.jpg	1	5	1	eggplant	1	C	1	0	46	0		0	0	132.5669542	132.6669385
29934.5	0.0999632000002748	562	satiated	stimuli/non_foods\non-food_inanimate_horn.jpg	1	5	1	non-food_inanimate_horn	0	J	6	0	190	0		0	0	132.7169551	132.8169183
29972	0.0999664999999368	563	satiated	stimuli/non_foods\non-food_inanimate_cactus_pot_plant.jpg	1	5	1	non-food_inanimate_cactus_pot_plant	0	G	4	0	169	0		0	0	132.866966099999	132.966932599999
30009.5	0.0999883999993472	564	satiated	stimuli/non_foods\non-food_inanimate_short_sleeved_shirt.jpg	1	5	1	non-food_inanimate_short_sleeved_shirt	0	H	5	0	207	0		0	0	133.0169477	133.116936099999
30047	0.0999897000001511	565	satiated	stimuli/foods\broccoli.jpg	1	5	1	broccoli	1	L	8	0	13	0		0	0	133.166949199999	133.266938899999
30084.5	0.09997359999943	566	satiated	stimuli/non_foods\non-food_inanimate_cupboard.jpg	1	5	1	non-food_inanimate_cupboard	0	N	10	0	177	0		0	0	133.3169479	133.416921499999
30122	0.0999877000003835	567	satiated	stimuli/non_foods\non-food_animate_gorilla.jpg	1	5	1	non-food_animate_gorilla	0	P	11	0	116	0		0	0	133.466974999999	133.5669627
30159.5	0.100005799999963	568	satiated	stimuli/non_foods\non-food_inanimate_briefcase.jpg	1	5	1	non-food_inanimate_briefcase	0	Z	18	0	163	0		0	0	133.6169249	133.716930699999
30197	0.0999837999997908	569	satiated	stimuli/non_foods\non-food_animate_dachshund.jpg	1	5	1	non-food_animate_dachshund	0	P	11	0	104	0		0	0	133.7669447	133.8669285
30234.5	0.0999847000002774	570	satiated	stimuli/non_foods\non-food_inanimate_couch.jpg	1	5	1	non-food_inanimate_couch	0	N	10	0	176	0		0	0	133.916944099999	134.0169288
30272	0.0999829000002137	571	satiated	stimuli/foods\mushroom.jpg	1	5	1	mushroom	1	Z	18	0	85	0		0	0	134.0669395	134.1669224
30309.5	0.0999882999994952	572	satiated	stimuli/foods\chestnut.jpg	1	5	1	chestnut	1	N	10	0	24	0		0	0	134.2169397	134.316927999999
30347	0.099986600000193	573	satiated	stimuli/foods\ginger_root.jpg	1	5	1	ginger_root	1	P	11	0	57	0		0	0	134.3669358	134.4669224
30384.5	0.100010000000111	574	satiated	stimuli/non_foods\non-food_inanimate_highlighter.jpg	1	5	1	non-food_inanimate_highlighter	0	N	10	0	189	0		0	0	134.516935899999	134.616945899999
30422	0.0999635999996826	575	satiated	stimuli/foods\steak.jpg	1	5	1	steak	1	L	8	0	270	0		0	0	134.666958199999	134.766921799999
30459.5	0.0999828000003617	576	satiated	stimuli/foods\cauliflower.jpg	1	5	1	cauliflower	1	M	9	0	20	0		0	0	134.816935899999	134.9169187
30497	0.0999838999996427	577	satiated	stimuli/non_foods\non-food_animate_deer.jpg	1	5	1	non-food_animate_deer	0	Z	18	0	105	0		0	0	134.9669347	135.0669186
30534.5	0.0999925999994957	578	satiated	stimuli/non_foods\non-food_animate_Asian_man.jpg	1	5	1	non-food_animate_Asian_man	0	R	12	0	88	0		0	0	135.1169313	135.2169239
30572	0.0999906999995801	579	satiated	stimuli/non_foods\non-food_inanimate_folding_chair.jpg	1	5	1	non-food_inanimate_folding_chair	0	D	2	0	182	0		0	0	135.2669399	135.366930599999
30609.5	0.0999784999994517	580	satiated	stimuli/non_foods\non-food_inanimate_bamboo.jpg	1	5	1	non-food_inanimate_bamboo	0	C	1	0	159	0		0	0	135.4169481	135.516926599999
30647	0.099983300000531	581	satiated	stimuli/non_foods\non-food_inanimate_bowling_ball.jpg	1	5	1	non-food_inanimate_bowling_ball	0	R	12	0	162	0		0	0	135.566929199999	135.6669125
30684.5	0.0999854000001505	582	satiated	stimuli/foods\chocolate_bar.jpg	1	5	1	chocolate_bar	1	H	5	0	26	0		0	0	135.7169281	135.8169135
30722	0.0999853000002986	583	satiated	stimuli/foods\brownie.jpg	1	5	1	brownie	1	P	11	0	14	0		0	0	135.8669273	135.9669126
30759.5	0.0999854000001505	584	satiated	stimuli/foods\banana.jpg	1	5	1	banana	1	S	13	0	9	0		0	0	136.0169251	136.1169105
30797	0.0999861000000237	585	satiated	stimuli/non_foods\non-food_inanimate_fire_extinguisher.jpg	1	5	1	non-food_inanimate_fire_extinguisher	0	H	5	0	181	0		0	0	136.166922599999	136.266908699999
30834.5	0.0999967000007018	586	satiated	stimuli/non_foods\non-food_animate_porcupine.jpg	1	5	1	non-food_animate_porcupine	0	J	6	0	138	0		0	0	136.316924399999	136.4169211
30872	0.0999652999998943	587	satiated	stimuli/non_foods\non-food_animate_lion.jpg	1	5	1	non-food_animate_lion	0	D	2	0	125	0		0	0	136.4669423	136.566907599999
30909.5	0.0999868999997489	588	satiated	stimuli/non_foods\non-food_animate_snail.jpg	1	5	1	non-food_animate_snail	0	C	1	0	149	0		0	0	136.616918799999	136.716905699999
30947	0.0999860000001718	589	satiated	stimuli/foods\raw_ham.jpg	1	5	1	raw_ham	1	M	9	0	253	0		0	0	136.7669196	136.8669056
30984.5	0.0999907999994321	590	satiated	stimuli/non_foods\non-food_animate_baby_crawling.jpg	1	5	1	non-food_animate_baby_crawling	0	X	17	0	92	0		0	0	136.916915	137.016905799999
31022	0.0999908000003416	591	satiated	stimuli/non_foods\non-food_animate_parrot.jpg	1	5	1	non-food_animate_parrot	0	F	3	0	133	0		0	0	137.066911899999	137.1669027
31059.5	0.0999825999997483	592	satiated	stimuli/foods\pumpkin.jpg	1	5	1	pumpkin	1	M	9	0	250	0		0	0	137.2169169	137.3168995
31097	0.0999861000000237	593	satiated	stimuli/foods\brie.jpg	1	5	1	brie	1	P	11	0	12	0		0	0	137.366913899999	137.466899999999
31134.5	0.0999830000000657	594	satiated	stimuli/non_foods\non-food_animate_tortoise.jpg	1	5	1	non-food_animate_tortoise	0	X	17	0	153	0		0	0	137.516914299999	137.616897299999
31172	0.099986500000341	595	satiated	stimuli/foods\lime.jpg	1	5	1	lime	1	W	16	0	76	0		0	0	137.666910999999	137.7668975
31209.5	0.0999872999991567	596	satiated	stimuli/foods\coconut.jpg	1	5	1	coconut	1	B	0	0	33	0		0	0	137.8169103	137.916897599999
31247	0.0999867000000449	597	satiated	stimuli/non_foods\non-food_inanimate_guitar.jpg	1	5	1	non-food_inanimate_guitar	0	L	8	0	185	0		0	0	137.966907	138.0668937
31284.5	0.0999895000004472	598	satiated	stimuli/foods\gnocchi.jpg	1	5	1	gnocchi	1	G	4	0	58	0		0	0	138.116905299999	138.2168948
31322	0.0999847999992198	599	satiated	stimuli/foods\cinnamon_sroll.jpg	1	5	1	cinnamon_sroll	1	R	12	0	31	0		0	0	138.2669071	138.366891899999
31359.5	0.0999836000000869	600	satiated	stimuli/foods\cabbage.jpg	1	5	1	cabbage	1	J	6	0	16	0		0	0	138.416905999999	138.5168896
31397	0.0999885999999606	601	satiated	stimuli/foods\baked_cod_with_carrots_and_green_beans.jpg	1	5	1	baked_cod_with_carrots_and_green_beans	1	G	4	0	7	0		0	0	138.566902099999	138.666890699999
31434.5	0.0999992000006387	602	satiated	stimuli/non_foods\non-food_inanimate_nailpolish.jpg	1	5	1	non-food_inanimate_nailpolish	0	M	9	0	195	0		0	0	138.716904399999	138.8169036
31472	0.0999415000005683	603	satiated	stimuli/non_foods\non-food_animate_peacock.jpg	1	5	1	non-food_animate_peacock	0	T	14	0	134	0		0	0	138.866945199999	138.9668867
31509.5	0.0999857999995584	604	satiated	stimuli/foods\lollies.jpg	1	5	1	lollies	1	B	0	0	78	0		0	0	139.0169012	139.116886999999
31547	0.0999884000002567	605	satiated	stimuli/foods\spinach.jpg	1	5	1	spinach	1	V	15	0	268	0		0	0	139.1668991	139.2668875
31584.5	0.0999858000004679	606	satiated	stimuli/foods\cherry.jpg	1	5	1	cherry	1	N	10	0	23	0		0	0	139.316897299999	139.4168831
31622	0.0999841000002561	607	satiated	stimuli/non_foods\non-food_animate_baby_sitting.jpg	1	5	1	non-food_animate_baby_sitting	0	C	1	0	93	0		0	0	139.466898299999	139.566882399999
31659.5	0.0999862999997276	608	satiated	stimuli/foods\hamburger.jpg	1	5	1	hamburger	1	J	6	0	64	0		0	0	139.6168941	139.716880399999
31697	0.0999836000000869	609	satiated	stimuli/foods\avocado.jpg	1	5	1	avocado	1	W	16	0	5	0		0	0	139.7668968	139.8668804
31734.5	0.0999857999995584	610	satiated	stimuli/foods\fennel.jpg	1	5	1	fennel	1	B	0	0	47	0		0	0	139.9168941	140.016879899999
31772	0.0999867000000449	611	satiated	stimuli/foods\rice_cake.jpg	1	5	1	rice_cake	1	R	12	0	258	0		0	0	140.066892	140.1668787
31809.5	0.099989800000003	612	satiated	stimuli/non_foods\non-food_inanimate_pine_cone.jpg	1	5	1	non-food_inanimate_pine_cone	0	H	5	0	200	0		0	0	140.216889099999	140.316878899999
31847	0.0999861999998757	613	satiated	stimuli/non_foods\non-food_animate_green_bug.jpg	1	5	1	non-food_animate_green_bug	0	W	16	0	118	0		0	0	140.366889299999	140.466875499999
31884.5	0.100024999999732	614	satiated	stimuli/foods\donut.jpg	1	5	1	donut	1	L	8	0	44	0		0	0	140.5168869	140.6169119
31922	0.0999312999992981	615	satiated	stimuli/non_foods\non-food_inanimate_construction_helment.jpg	1	5	1	non-food_inanimate_construction_helment	0	B	0	0	175	0		0	0	140.6669401	140.766871399999
31959.5	0.0999845999995159	616	satiated	stimuli/non_foods\non-food_animate_seal.jpg	1	5	1	non-food_animate_seal	0	H	5	0	146	0		0	0	140.816887	140.916871599999
31997	0.0999885999999606	617	satiated	stimuli/non_foods\non-food_animate_bee.jpg	1	5	1	non-food_animate_bee	0	S	13	0	95	0		0	0	140.9668832	141.0668718
32034.5	0.0999853999992411	618	satiated	stimuli/foods\nectarine.jpg	1	5	1	nectarine	1	F	3	0	87	0		0	0	141.116884	141.216869399999
32072	0.0999888999995164	619	satiated	stimuli/foods\onion.jpg	1	5	1	onion	1	N	10	0	229	0		0	0	141.266882	141.366870899999
32109.5	0.0999845999995159	620	satiated	stimuli/foods\lamb_chops.jpg	1	5	1	lamb_chops	1	R	12	0	70	0		0	0	141.4168829	141.5168675
32147	0.0999855000000025	621	satiated	stimuli/non_foods\non-food_inanimate_buds.jpg	1	5	1	non-food_inanimate_buds	0	G	4	0	166	0		0	0	141.566879999999	141.666865499999
32184.5	0.0999680999993871	622	satiated	stimuli/non_foods\non-food_animate_giraffe.jpg	1	5	1	non-food_animate_giraffe	0	B	0	0	115	0		0	0	141.7168961	141.816864199999
32222	0.0999836000000869	623	satiated	stimuli/foods\rockmelon.jpg	1	5	1	rockmelon	1	N	10	0	262	0		0	0	141.866877699999	141.966861299999
32259.5	0.0999885000001086	624	satiated	stimuli/foods\cinnamon.jpg	1	5	1	cinnamon	1	M	9	0	30	0		0	0	142.0168741	142.1168626
32297	0.0999904999998762	625	satiated	stimuli/foods\fruit_flan.jpg	1	5	1	fruit_flan	1	Z	18	0	53	0		0	0	142.1668792	142.2668697
32334.5	0.0999914000003628	626	satiated	stimuli/foods\fruit_salad.jpg	1	5	1	fruit_salad	1	M	9	0	55	0		0	0	142.316878099999	142.4168695
32372	0.0999637999993865	627	satiated	stimuli/non_foods\non-food_inanimate_moss.jpg	1	5	1	non-food_inanimate_moss	0	Z	18	0	194	0		0	0	142.4668961	142.566859899999
32409.5	0.0999846999993679	628	satiated	stimuli/foods\lasagna.jpg	1	5	1	lasagna	1	J	6	0	71	0		0	0	142.6168737	142.716858399999
32447	0.0999855999998545	629	satiated	stimuli/foods\strawberry.jpg	1	5	1	strawberry	1	G	4	0	272	0		0	0	142.7668692	142.8668548
32484.5	0.0999876000005315	630	satiated	stimuli/non_foods\non-food_animate_young_boy.jpg	1	5	1	non-food_animate_young_boy	0	J	6	0	156	0		0	0	142.916870999999	143.0168586
32522	0.0999863999995796	631	satiated	stimuli/non_foods\non-food_animate_alligator.jpg	1	5	1	non-food_animate_alligator	0	Z	18	0	90	0		0	0	143.0668661	143.1668525
32559.5	0.0999856999997064	632	satiated	stimuli/non_foods\non-food_animate_dragonfly.jpg	1	5	1	non-food_animate_dragonfly	0	J	6	0	108	0		0	0	143.216869	143.3168547
32597	0.0999627000001055	633	satiated	stimuli/non_foods\non-food_inanimate_stoplight.jpg	1	5	1	non-food_inanimate_stoplight	0	A	19	1	214	0		0	0	143.366867199999	143.4668299
32634.5	0.0999980999995387	634	satiated	stimuli/non_foods\non-food_inanimate_wrench.jpg	1	5	1	non-food_inanimate_wrench	0	P	11	0	227	0		0	0	143.5168408	143.616838899999
32672	0.099961799999619	635	satiated	stimuli/non_foods\non-food_animate_ram.jpg	1	5	1	non-food_animate_ram	0	D	2	0	140	0		0	0	143.6668817	143.7668435
32709.25	0.0999870000005103	636	satiated	stimuli/foods\pea_pod.jpg	1	5	1	pea_pod	1	G	4	0	237	1	a	0.443128200000501	1	143.816852499999	143.9168395
32746.75	0.0999908000003416	637	satiated	stimuli/foods\risotto_with_zucchini.jpg	1	5	1	risotto_with_zucchini	1	J	6	0	260	0		0	0	143.966852699999	144.0668435
32784.5	0.099978999999621	638	satiated	stimuli/non_foods\non-food_animate_cheetah.jpg	1	5	1	non-food_animate_cheetah	0	G	4	0	100	0		0	0	144.1168683	144.216847299999
32822	0.0999690999997256	639	satiated	stimuli/non_foods\non-food_animate_camel.jpg	1	5	1	non-food_animate_camel	0	M	9	0	97	0		0	0	144.2668764	144.3668455
32859.5	0.0999805999999808	640	satiated	stimuli/foods\cooked_prawn.jpg	1	5	1	cooked_prawn	1	X	17	0	36	0		0	0	144.416858899999	144.516839499999
32897	0.099983400000383	641	satiated	stimuli/non_foods\non-food_inanimate_protractor.jpg	1	5	1	non-food_inanimate_protractor	0	R	12	0	201	0		0	0	144.566861599999	144.666845
32934.5	0.0999864000004891	642	satiated	stimuli/non_foods\non-food_inanimate_sun_flower.jpg	1	5	1	non-food_inanimate_sun_flower	0	G	4	0	216	0		0	0	144.716855199999	144.8168416
32972	0.0999830999999176	643	satiated	stimuli/non_foods\non-food_inanimate_orchid.jpg	1	5	1	non-food_inanimate_orchid	0	V	15	0	198	0		0	0	144.866858699999	144.966841799999
33009.5	0.0999853000002986	644	satiated	stimuli/non_foods\non-food_animate_woman.jpg	1	5	1	non-food_animate_woman	0	X	17	0	154	0		0	0	145.016854	145.1168393
33046.75	0.0999726999998529	645	satiated	stimuli/non_foods\non-food_inanimate_socks.jpg	1	5	1	non-food_inanimate_socks	0	P	11	0	211	0		0	0	145.166852599999	145.266825299999
33084.5	0.0999849999998332	646	satiated	stimuli/foods\lentils.jpg	1	5	1	lentils	1	W	16	0	74	0		0	0	145.3168528	145.416837799999
33121.75	0.0999860000001718	647	satiated	stimuli/non_foods\non-food_inanimate_skirt.jpg	1	5	1	non-food_inanimate_skirt	0	K	7	0	209	0		0	0	145.4668514	145.5668374
33159.25	0.0999867000000449	648	satiated	stimuli/foods\pork_and_rice.jpg	1	5	1	pork_and_rice	1	P	11	0	245	0		0	0	145.6168492	145.7168359
33196.75	0.0999851999995371	649	satiated	stimuli/non_foods\non-food_animate_polar_bear.jpg	1	5	1	non-food_animate_polar_bear	0	N	10	0	137	0		0	0	145.7668482	145.866833399999
33234.5	0.10000349999973	650	satiated	stimuli/foods\taco.jpg	1	5	1	taco	1	V	15	0	274	0		0	0	145.9168517	146.0168552
33272	0.0999567000008028	651	satiated	stimuli/non_foods\non-food_inanimate_grass.jpg	1	5	1	non-food_inanimate_grass	0	N	10	0	184	0		0	0	146.066877099999	146.1668338
