onset	duration	eventnumber	hunger_condition	stimfilename	blockno	trialno	is_faststream	stim	food_idx	letter	letter_idx	istarget	image_number	response	keypressed	rt	correct	time_stimon	time_stimoff
30442.25	0.0999672	0	hunger	stimuli/non_foods\non-food_animate_frog.jpg	1	1	1	non-food_animate_frog	0	K	7	0	113	0	NaN	0	0	126.6287603	126.7287275
30479.75	0.0999667	1	hunger	stimuli/non_foods\non-food_inanimate_construction_helment.jpg	1	1	1	non-food_inanimate_construction_helment	0	W	16	0	175	0	NaN	0	0	126.7787463	126.878713
30517.25	0.0999831	2	hunger	stimuli/non_foods\non-food_animate_killer_whale.jpg	1	1	1	non-food_animate_killer_whale	0	J	6	0	123	0	NaN	0	0	126.9287488	127.0287319
30554.75	0.0999764	3	hunger	stimuli/foods\fruit_pie.jpg	1	1	1	fruit_pie	1	K	7	0	54	0	NaN	0	0	127.0787388	127.1787152
30592.25	0.0999872	4	hunger	stimuli/foods\coffee_beans.jpg	1	1	1	coffee_beans	1	R	12	0	34	0	NaN	0	0	127.2287365	127.3287237
30629.75	0.0999889	5	hunger	stimuli/non_foods\non-food_inanimate_stoplight.jpg	1	1	1	non-food_inanimate_stoplight	0	K	7	0	214	0	NaN	0	0	127.3787319	127.4787208
30667.25	0.0999647	6	hunger	stimuli/foods\apricot.jpg	1	1	1	apricot	1	H	5	0	2	0	NaN	0	0	127.528753	127.6287177
30704.75	0.0999786	7	hunger	stimuli/non_foods\non-food_animate_german_shepherd.jpg	1	1	1	non-food_animate_german_shepherd	0	X	17	0	114	0	NaN	0	0	127.6787419	127.7787205
30742.25	0.0999857	8	hunger	stimuli/non_foods\non-food_animate_polar_bear.jpg	1	1	1	non-food_animate_polar_bear	0	R	12	0	137	0	NaN	0	0	127.8287317	127.9287174
30779.75	0.0999478	9	hunger	stimuli/non_foods\non-food_inanimate_hammer.jpg	1	1	1	non-food_inanimate_hammer	0	Z	18	0	186	0	NaN	0	0	127.978769	128.0787168
30817.25	0.099988	10	hunger	stimuli/non_foods\non-food_inanimate_canoe.jpg	1	1	1	non-food_inanimate_canoe	0	S	13	0	170	0	NaN	0	0	128.1287264	128.2287144
30854.75	0.0999807	11	hunger	stimuli/foods\papaya.jpg	1	1	1	papaya	1	H	5	0	235	0	NaN	0	0	128.2787297	128.3787104
30892.25	0.0999854	12	hunger	stimuli/foods\cannoli.jpg	1	1	1	cannoli	1	N	10	0	17	0	NaN	0	0	128.4287302	128.5287156
30930	0.0997577	13	hunger	stimuli/foods\lemon.jpg	1	1	1	lemon	1	V	15	0	72	0	NaN	0	0	128.5789542	128.6787119
30967.25	0.0999873	14	hunger	stimuli/non_foods\non-food_animate_pigeon.jpg	1	1	1	non-food_animate_pigeon	0	P	11	0	136	0	NaN	0	0	128.7287189	128.8287062
31004.75	0.1000011	15	hunger	stimuli/foods\egg.jpg	1	1	1	egg	1	C	1	0	45	0	NaN	0	0	128.8787102	128.9787113
31042.25	0.0999921	16	hunger	stimuli/foods\fries.jpg	1	1	1	fries	1	F	3	0	52	0	NaN	0	0	129.0287235	129.1287156
31079.75	0.0999855	17	hunger	stimuli/foods\mango.jpg	1	1	1	mango	1	Z	18	0	80	0	NaN	0	0	129.178726	129.2787115
31117.25	0.0999617	18	hunger	stimuli/foods\eggplant.jpg	1	1	1	eggplant	1	T	14	0	46	0	NaN	0	0	129.3287458	129.4287075
31154.75	0.0999764	19	hunger	stimuli/foods\pumpkin.jpg	1	1	1	pumpkin	1	W	16	0	250	0	NaN	0	0	129.4787197	129.5786961
31192.25	0.0999563	20	hunger	stimuli/non_foods\non-food_inanimate_protractor.jpg	1	1	1	non-food_inanimate_protractor	0	B	0	0	201	0	NaN	0	0	129.6287229	129.7286792
31229.75	0.0999881	21	hunger	stimuli/foods\hotdog.jpg	1	1	1	hotdog	1	J	6	0	67	0	NaN	0	0	129.7787145	129.8787026
31267.25	0.0999823	22	hunger	stimuli/non_foods\non-food_animate_owl.jpg	1	1	1	non-food_animate_owl	0	M	9	0	132	0	NaN	0	0	129.9287139	130.0286962
31304.75	0.0999995	23	hunger	stimuli/non_foods\non-food_inanimate_moss.jpg	1	1	1	non-food_inanimate_moss	0	X	17	0	194	0	NaN	0	0	130.0786938	130.1786933
31342.25	0.0999727	24	hunger	stimuli/non_foods\non-food_animate_elephant.jpg	1	1	1	non-food_animate_elephant	0	S	13	0	111	0	NaN	0	0	130.2287037	130.3286764
31379.75	0.0999906	25	hunger	stimuli/non_foods\non-food_inanimate_suitcase.jpg	1	1	1	non-food_inanimate_suitcase	0	W	16	0	215	0	NaN	0	0	130.3787104	130.478701
31417.25	0.0999957	26	hunger	stimuli/foods\prawn.jpg	1	1	1	prawn	1	K	7	0	249	0	NaN	0	0	130.5287006	130.6286963
31454.75	0.0999859	27	hunger	stimuli/non_foods\non-food_inanimate_bowling_ball.jpg	1	1	1	non-food_inanimate_bowling_ball	0	S	13	0	162	0	NaN	0	0	130.6787085	130.7786944
31492.25	0.0999805	28	hunger	stimuli/non_foods\non-food_animate_baby_sitting.jpg	1	1	1	non-food_animate_baby_sitting	0	X	17	0	93	0	NaN	0	0	130.8287095	130.92869
31529.75	0.0999954	29	hunger	stimuli/non_foods\non-food_animate_clown.jpg	1	1	1	non-food_animate_clown	0	V	15	0	102	0	NaN	0	0	130.9786983	131.0786937
31567.25	0.0999653	30	hunger	stimuli/non_foods\non-food_inanimate_leaf.jpg	1	1	1	non-food_inanimate_leaf	0	P	11	0	192	0	NaN	0	0	131.1287277	131.228693
31604.75	0.0999745	31	hunger	stimuli/foods\oyster.jpg	1	1	1	oyster	1	S	13	0	233	0	NaN	0	0	131.2787062	131.3786807
31642.25	0.0999806	32	hunger	stimuli/non_foods\non-food_animate_millipede.jpg	1	1	1	non-food_animate_millipede	0	W	16	0	129	0	NaN	0	0	131.4287059	131.5286865
31679.75	0.0999913	33	hunger	stimuli/foods\lemon_meringue_pie.jpg	1	1	1	lemon_meringue_pie	1	H	5	0	73	0	NaN	0	0	131.5786964	131.6786877
31717.25	0.0999825	34	hunger	stimuli/foods\rice.jpg	1	1	1	rice	1	F	3	0	257	0	NaN	0	0	131.728704	131.8286865
31754.75	0.0999843	35	hunger	stimuli/foods\red_cabbage.jpg	1	1	1	red_cabbage	1	T	14	0	256	0	NaN	0	0	131.8787008	131.9786851
31792.25	0.0999762	36	hunger	stimuli/non_foods\non-food_inanimate_guitar.jpg	1	1	1	non-food_inanimate_guitar	0	N	10	0	185	0	NaN	0	0	132.0287009	132.1286771
31829.75	0.1000197	37	hunger	stimuli/foods\orange.jpg	1	1	1	orange	1	G	4	0	230	0	NaN	0	0	132.1786756	132.2786953
31867.25	0.099988	38	hunger	stimuli/non_foods\non-food_animate_deer.jpg	1	1	1	non-food_animate_deer	0	P	11	0	105	0	NaN	0	0	132.3287032	132.4286912
31904.75	0.0999893	39	hunger	stimuli/foods\tomato.jpg	1	1	1	tomato	1	F	3	0	276	0	NaN	0	0	132.4786949	132.5786842
31942.25	0.0999887	40	hunger	stimuli/non_foods\non-food_inanimate_skirt.jpg	1	1	1	non-food_inanimate_skirt	0	R	12	0	209	0	NaN	0	0	132.6286842	132.7286729
31979.75	0.0999949	41	hunger	stimuli/non_foods\non-food_animate_penguin.jpg	1	1	1	non-food_animate_penguin	0	X	17	0	135	0	NaN	0	0	132.7786858	132.8786807
32017.25	0.0999904	42	hunger	stimuli/foods\swordfish.jpg	1	1	1	swordfish	1	G	4	0	273	0	NaN	0	0	132.9286843	133.0286747
32054.75	0.0999981	43	hunger	stimuli/foods\fruit_salad.jpg	1	1	1	fruit_salad	1	N	10	0	55	0	NaN	0	0	133.0786795	133.1786776
32092.25	0.0999844	44	hunger	stimuli/non_foods\non-food_inanimate_table.jpg	1	1	1	non-food_inanimate_table	0	W	16	0	217	0	NaN	0	0	133.2286908	133.3286752
32129.75	0.0999873	45	hunger	stimuli/foods\celery.jpg	1	1	1	celery	1	Z	18	0	21	0	NaN	0	0	133.3786862	133.4786735
32167.25	0.0999734	46	hunger	stimuli/foods\watermelon.jpg	1	1	1	watermelon	1	G	4	0	279	0	NaN	0	0	133.5286896	133.628663
32204.75	0.0999865	47	hunger	stimuli/non_foods\non-food_animate_hummingbird.jpg	1	1	1	non-food_animate_hummingbird	0	V	15	0	120	0	NaN	0	0	133.678686	133.7786725
32242.25	0.0999843	48	hunger	stimuli/foods\brussel_sprouts.jpg	1	1	1	brussel_sprouts	1	P	11	0	15	0	NaN	0	0	133.8286843	133.9286686
32279.75	0.099953	49	hunger	stimuli/non_foods\non-food_animate_sea_turtle.jpg	1	1	1	non-food_animate_sea_turtle	0	W	16	0	144	0	NaN	0	0	133.9787137	134.0786667
32317.25	0.0999892	50	hunger	stimuli/foods\coconut.jpg	1	1	1	coconut	1	C	1	0	33	0	NaN	0	0	134.128678	134.2286672
32354.75	0.0999837	51	hunger	stimuli/foods\pomegranate.jpg	1	1	1	pomegranate	1	R	12	0	244	0	NaN	0	0	134.2786804	134.3786641
32392.25	0.0999818	52	hunger	stimuli/foods\spaghetti_with_meat_sauce.jpg	1	1	1	spaghetti_with_meat_sauce	1	J	6	0	267	0	NaN	0	0	134.4286766	134.5286584
32429.75	0.0999891	53	hunger	stimuli/foods\cucumber.jpg	1	1	1	cucumber	1	D	2	0	41	0	NaN	0	0	134.5786779	134.678667
32467.25	0.0999358	54	hunger	stimuli/foods\fried_calamari.jpg	1	1	1	fried_calamari	1	Z	18	0	50	0	NaN	0	0	134.7287246	134.8286604
32504.75	0.0999765	55	hunger	stimuli/foods\chocolate_chip_cookies.jpg	1	1	1	chocolate_chip_cookies	1	M	9	0	27	0	NaN	0	0	134.8786744	134.9786509
32542.25	0.0999912	56	hunger	stimuli/non_foods\non-food_animate_butterfly.jpg	1	1	1	non-food_animate_butterfly	0	N	10	0	96	0	NaN	0	0	135.0286718	135.128663
32579.75	0.0999844	57	hunger	stimuli/non_foods\non-food_animate_seal.jpg	1	1	1	non-food_animate_seal	0	Z	18	0	146	0	NaN	0	0	135.1786644	135.2786488
32617.25	0.0999741	58	hunger	stimuli/foods\honey.jpg	1	1	1	honey	1	N	10	0	66	0	NaN	0	0	135.3286618	135.4286359
32654.75	0.0999768	59	hunger	stimuli/foods\cooked_ham.jpg	1	1	1	cooked_ham	1	T	14	0	35	0	NaN	0	0	135.4786718	135.5786486
32692.25	0.0999835	60	hunger	stimuli/non_foods\non-food_animate_fox.jpg	1	1	1	non-food_animate_fox	0	M	9	0	112	0	NaN	0	0	135.6286709	135.7286544
32729.75	0.0999726	61	hunger	stimuli/non_foods\non-food_animate_tortoise.jpg	1	1	1	non-food_animate_tortoise	0	B	0	0	153	0	NaN	0	0	135.7786821	135.8786547
32767.25	0.0999921	62	hunger	stimuli/foods\risotto_with_zucchini.jpg	1	1	1	risotto_with_zucchini	1	T	14	0	260	0	NaN	0	0	135.928655	136.0286471
32804.75	0.0999872	63	hunger	stimuli/foods\mortadella.jpg	1	1	1	mortadella	1	Z	18	0	83	0	NaN	0	0	136.0786627	136.1786499
32842.25	0.0999865	64	hunger	stimuli/foods\toasted_bread_with_tomatoes.jpg	1	1	1	toasted_bread_with_tomatoes	1	P	11	0	275	0	NaN	0	0	136.2286648	136.3286513
32879.75	0.0999819	65	hunger	stimuli/non_foods\non-food_animate_bat.jpg	1	1	1	non-food_animate_bat	0	T	14	0	94	0	NaN	0	0	136.3786572	136.4786391
32917.25	0.0999721	66	hunger	stimuli/non_foods\non-food_inanimate_bed.jpg	1	1	1	non-food_inanimate_bed	0	W	16	0	160	0	NaN	0	0	136.528655	136.6286271
32954.75	0.0999731	67	hunger	stimuli/non_foods\non-food_inanimate_speakers.jpg	1	1	1	non-food_inanimate_speakers	0	P	11	0	212	0	NaN	0	0	136.6786516	136.7786247
32992.25	0.0999958	68	hunger	stimuli/foods\cracker.jpg	1	1	1	cracker	1	H	5	0	38	0	NaN	0	0	136.8286496	136.9286454
33029.75	0.0999831	69	hunger	stimuli/foods\smoked_ham.jpg	1	1	1	smoked_ham	1	L	8	0	266	0	NaN	0	0	136.9786638	137.0786469
33067.25	0.0999841	70	hunger	stimuli/foods\waffle.jpg	1	1	1	waffle	1	N	10	0	278	0	NaN	0	0	137.1286582	137.2286423
33104.75	0.0999871	71	hunger	stimuli/foods\kiwi.jpg	1	1	1	kiwi	1	J	6	0	69	0	NaN	0	0	137.2786527	137.3786398
33142.25	0.0999819	72	hunger	stimuli/non_foods\non-food_inanimate_socks.jpg	1	1	1	non-food_inanimate_socks	0	I	21	1	211	0	NaN	0	0	137.4286577	137.5286396
33179.75	0.0999609	73	hunger	stimuli/non_foods\non-food_animate_seahorse.jpg	1	1	1	non-food_animate_seahorse	0	F	3	0	145	0	NaN	0	0	137.5786755	137.6786364
33217.25	0.1000005	74	hunger	stimuli/non_foods\non-food_animate_skunk.jpg	1	1	1	non-food_animate_skunk	0	P	11	0	147	0	NaN	0	0	137.7286502	137.8286507
33254.75	0.0999745	75	hunger	stimuli/non_foods\non-food_inanimate_orchid.jpg	1	1	1	non-food_inanimate_orchid	0	Z	18	0	198	0	NaN	0	0	137.8786542	137.9786287
33292.25	0.0999994	76	hunger	stimuli/foods\corncob.jpg	1	1	1	corncob	1	H	5	0	37	0	NaN	0	0	138.0286514	138.1286508
33329.75	0.0999545	77	hunger	stimuli/foods\pasta_carbonara.jpg	1	1	1	pasta_carbonara	1	P	11	0	236	0	NaN	0	0	138.1786745	138.278629
33367.25	0.0999863	78	hunger	stimuli/foods\ginger_root.jpg	1	1	1	ginger_root	1	W	16	0	57	0	NaN	0	0	138.3286375	138.4286238
33404.75	0.0999974	79	hunger	stimuli/foods\potato_chips.jpg	1	1	1	potato_chips	1	H	5	0	247	0	NaN	0	0	138.4786372	138.5786346
33442.25	0.0999906	80	hunger	stimuli/non_foods\non-food_animate_ram.jpg	1	1	1	non-food_animate_ram	0	Z	18	0	140	0	NaN	0	0	138.628637	138.7286276
33479.75	0.0999835	81	hunger	stimuli/non_foods\non-food_animate_horse.jpg	1	1	1	non-food_animate_horse	0	R	12	0	119	0	NaN	0	0	138.7786454	138.8786289
33517.25	0.0999849	82	hunger	stimuli/foods\green_olives.jpg	1	1	1	green_olives	1	V	15	0	62	0	NaN	0	0	138.9286425	139.0286274
33554.75	0.0999879	83	hunger	stimuli/non_foods\non-food_animate_raccoon.jpg	1	1	1	non-food_animate_raccoon	0	J	6	0	139	0	NaN	0	0	139.0786384	139.1786263
33592.25	0.0999892	84	hunger	stimuli/non_foods\non-food_animate_porcupine.jpg	1	1	1	non-food_animate_porcupine	0	T	14	0	138	0	NaN	0	0	139.2286374	139.3286266
33629.75	0.0999677	85	hunger	stimuli/non_foods\non-food_inanimate_folding_chair.jpg	1	1	1	non-food_inanimate_folding_chair	0	Z	18	0	182	0	NaN	0	0	139.3786513	139.478619
33667.25	0.1000066	86	hunger	stimuli/foods\raw_sausage.jpg	1	1	1	raw_sausage	1	P	11	0	254	0	NaN	0	0	139.5286101	139.6286167
33704.75	0.0999918	87	hunger	stimuli/non_foods\non-food_animate_sea_lion.jpg	1	1	1	non-food_animate_sea_lion	0	F	3	0	143	0	NaN	0	0	139.6786277	139.7786195
33742.25	0.0999871	88	hunger	stimuli/foods\pepperoni_pizza.jpg	1	1	1	pepperoni_pizza	1	C	1	0	241	0	NaN	0	0	139.8286301	139.9286172
33779.75	0.0999782	89	hunger	stimuli/non_foods\non-food_animate_slug.jpg	1	1	1	non-food_animate_slug	0	W	16	0	148	0	NaN	0	0	139.9786436	140.0786218
33817.25	0.0999692	90	hunger	stimuli/non_foods\non-food_animate_green_bug.jpg	1	1	1	non-food_animate_green_bug	0	J	6	0	118	0	NaN	0	0	140.1286452	140.2286144
33854.75	0.0999863	91	hunger	stimuli/foods\clams.jpg	1	1	1	clams	1	H	5	0	32	0	NaN	0	0	140.2786313	140.3786176
33892.25	0.0999868	92	hunger	stimuli/foods\chilli.jpg	1	1	1	chilli	1	X	17	0	25	0	NaN	0	0	140.4286283	140.5286151
33929.75	0.0999765	93	hunger	stimuli/non_foods\non-food_inanimate_chandelier.jpg	1	1	1	non-food_inanimate_chandelier	0	H	5	0	173	0	NaN	0	0	140.5786277	140.6786042
33967.25	0.0999878	94	hunger	stimuli/foods\artichoke.jpg	1	1	1	artichoke	1	F	3	0	3	0	NaN	0	0	140.7286244	140.8286122
34004.75	0.0999783	95	hunger	stimuli/non_foods\non-food_inanimate_couch.jpg	1	1	1	non-food_inanimate_couch	0	U	23	1	176	0	NaN	0	0	140.8786264	140.9786047
34042.25	0.1000069	96	hunger	stimuli/foods\rice_cake.jpg	1	1	1	rice_cake	1	Z	18	0	258	0	NaN	0	0	141.0286231	141.12863
34079.75	0.0999893	97	hunger	stimuli/non_foods\non-food_animate_cat.jpg	1	1	1	non-food_animate_cat	0	X	17	0	98	0	NaN	0	0	141.1786237	141.278613
34117.25	0.0999601	98	hunger	stimuli/non_foods\non-food_animate_chicken.jpg	1	1	1	non-food_animate_chicken	0	F	3	0	101	0	NaN	0	0	141.3286217	141.4285818
34154.75	0.0999889	99	hunger	stimuli/foods\strawberry.jpg	1	1	1	strawberry	1	S	13	0	272	0	NaN	0	0	141.4786176	141.5786065
34192.25	0.0999895	100	hunger	stimuli/non_foods\non-food_animate_monkey.jpg	1	1	1	non-food_animate_monkey	0	Z	18	0	130	0	NaN	0	0	141.6286154	141.7286049
34229.75	0.0999812	101	hunger	stimuli/foods\grapefruits.jpg	1	1	1	grapefruits	1	W	16	0	59	0	NaN	0	0	141.7786205	141.8786017
34267.25	0.0999868	102	hunger	stimuli/non_foods\non-food_animate_bee.jpg	1	1	1	non-food_animate_bee	0	N	10	0	95	0	NaN	0	0	141.9286185	142.0286053
34304.75	0.0999875	103	hunger	stimuli/non_foods\non-food_animate_llama.jpg	1	1	1	non-food_animate_llama	0	S	13	0	127	0	NaN	0	0	142.0786139	142.1786014
34342.25	0.0999889	104	hunger	stimuli/non_foods\non-food_inanimate_horn.jpg	1	1	1	non-food_inanimate_horn	0	L	8	0	190	0	NaN	0	0	142.2286123	142.3286012
34379.75	0.099986	105	hunger	stimuli/non_foods\non-food_animate_mouse.jpg	1	1	1	non-food_animate_mouse	0	D	2	0	131	0	NaN	0	0	142.3786115	142.4785975
34417.25	0.0999817	106	hunger	stimuli/foods\croissant.jpg	1	1	1	croissant	1	W	16	0	40	0	NaN	0	0	142.5286137	142.6285954
34454.75	0.0999888	107	hunger	stimuli/foods\linguine_with_clams.jpg	1	1	1	linguine_with_clams	1	L	8	0	77	0	NaN	0	0	142.6786093	142.7785981
34492.25	0.0999949	108	hunger	stimuli/non_foods\non-food_animate_dachshund.jpg	1	1	1	non-food_animate_dachshund	0	P	11	0	104	0	NaN	0	0	142.8286093	142.9286042
34529.75	0.1000046	109	hunger	stimuli/foods\hamburger.jpg	1	1	1	hamburger	1	K	7	0	64	0	NaN	0	0	142.9786085	143.0786131
34567.25	0.0999864	110	hunger	stimuli/non_foods\non-food_inanimate_rope.jpg	1	1	1	non-food_inanimate_rope	0	M	9	0	204	0	NaN	0	0	143.1285987	143.2285851
34604.75	0.0999898	111	hunger	stimuli/foods\hazelnuts.jpg	1	1	1	hazelnuts	1	F	3	0	65	0	NaN	0	0	143.2786019	143.3785917
34642.25	0.0999893	112	hunger	stimuli/non_foods\non-food_inanimate_towel.jpg	1	1	1	non-food_inanimate_towel	0	K	7	0	221	0	NaN	0	0	143.4285954	143.5285847
34679.75	0.0999845	113	hunger	stimuli/foods\potatoes.jpg	1	1	1	potatoes	1	F	3	0	248	0	NaN	0	0	143.5786042	143.6785887
34717.25	0.0999826	114	hunger	stimuli/foods\stew_with_potatoes_and_carrots.jpg	1	1	1	stew_with_potatoes_and_carrots	1	W	16	0	271	0	NaN	0	0	143.7285961	143.8285787
34754.75	0.099966	115	hunger	stimuli/foods\taco.jpg	1	1	1	taco	1	P	11	0	274	0	NaN	0	0	143.8785957	143.9785617
34792.25	0.0999831	116	hunger	stimuli/foods\cooked_prawn.jpg	1	1	1	cooked_prawn	1	T	14	0	36	0	NaN	0	0	144.0286009	144.128584
34829.75	0.0999851	117	hunger	stimuli/non_foods\non-food_animate_lizard.jpg	1	1	1	non-food_animate_lizard	0	G	4	0	126	0	NaN	0	0	144.1785987	144.2785838
34867.25	0.0999819	118	hunger	stimuli/non_foods\non-food_animate_baby_crawling.jpg	1	1	1	non-food_animate_baby_crawling	0	M	9	0	92	0	NaN	0	0	144.3285997	144.4285816
34904.75	0.099983	119	hunger	stimuli/foods\apple.jpg	1	1	1	apple	1	R	12	0	1	0	NaN	0	0	144.4785962	144.5785792
34942.25	0.0999769	120	hunger	stimuli/non_foods\non-food_inanimate_hay.jpg	1	1	1	non-food_inanimate_hay	0	H	5	0	187	0	NaN	0	0	144.6285957	144.7285726
34979.75	0.0999861	121	hunger	stimuli/non_foods\non-food_animate_iguana.jpg	1	1	1	non-food_animate_iguana	0	M	9	0	121	0	NaN	0	0	144.7785935	144.8785796
35017.25	0.0999876	122	hunger	stimuli/foods\minestrone_soup.jpg	1	1	1	minestrone_soup	1	X	17	0	82	0	NaN	0	0	144.92859	145.0285776
35054.75	0.0999673	123	hunger	stimuli/non_foods\non-food_animate_grasshopper.jpg	1	1	1	non-food_animate_grasshopper	0	J	6	0	117	0	NaN	0	0	145.0786027	145.17857
35092.25	0.0999922	124	hunger	stimuli/foods\carrot.jpg	1	1	1	carrot	1	L	8	0	19	0	NaN	0	0	145.2285827	145.3285749
35129.75	0.0999709	125	hunger	stimuli/non_foods\non-food_inanimate_rack.jpg	1	1	1	non-food_inanimate_rack	0	K	7	0	202	0	NaN	0	0	145.378593	145.4785639
35167.25	0.0999908	126	hunger	stimuli/non_foods\non-food_animate_dragonfly.jpg	1	1	1	non-food_animate_dragonfly	0	M	9	0	108	0	NaN	0	0	145.5285867	145.6285775
35204.75	0.0999731	127	hunger	stimuli/non_foods\non-food_inanimate_nettle.jpg	1	1	1	non-food_inanimate_nettle	0	R	12	0	197	0	NaN	0	0	145.6785921	145.7785652
35242.25	0.0999846	128	hunger	stimuli/foods\fruit_flan.jpg	1	1	1	fruit_flan	1	N	10	0	53	0	NaN	0	0	145.8285785	145.9285631
35279.75	0.0999826	129	hunger	stimuli/non_foods\non-food_inanimate_tulip.jpg	1	1	1	non-food_inanimate_tulip	0	F	3	0	224	0	NaN	0	0	145.9785774	146.07856
35317.25	0.0999876	130	hunger	stimuli/non_foods\non-food_animate_alligator.jpg	1	1	1	non-food_animate_alligator	0	G	4	0	90	0	NaN	0	0	146.1285803	146.2285679
35354.75	0.0999835	131	hunger	stimuli/foods\chocolate_pralines.jpg	1	1	1	chocolate_pralines	1	H	5	0	28	0	NaN	0	0	146.2785821	146.3785656
35392.25	0.0999606	132	hunger	stimuli/foods\mandarin.jpg	1	1	1	mandarin	1	D	2	0	79	0	NaN	0	0	146.4285917	146.5285523
35429.75	0.0999867	133	hunger	stimuli/non_foods\non-food_inanimate_cactus_pot_plant.jpg	1	1	1	non-food_inanimate_cactus_pot_plant	0	L	8	0	169	0	NaN	0	0	146.5785813	146.678568
35467.25	0.0999764	134	hunger	stimuli/non_foods\non-food_animate_young_girl.jpg	1	1	1	non-food_animate_young_girl	0	V	15	0	157	0	NaN	0	0	146.7285788	146.8285552
35504.75	0.0999901	135	hunger	stimuli/foods\pickles.jpg	1	1	1	pickles	1	N	10	0	242	0	NaN	0	0	146.8785672	146.9785573
35542.25	0.0999844	136	hunger	stimuli/foods\frankfurter_and_provolone_salad.jpg	1	1	1	frankfurter_and_provolone_salad	1	F	3	0	49	0	NaN	0	0	147.0285804	147.1285648
35579.75	0.0999961	137	hunger	stimuli/foods\capsicum.jpg	1	1	1	capsicum	1	P	11	0	18	0	NaN	0	0	147.1785626	147.2785587
35617.25	0.0999869	138	hunger	stimuli/non_foods\non-food_inanimate_alarm_clock.jpg	1	1	1	non-food_inanimate_alarm_clock	0	G	4	0	158	0	NaN	0	0	147.3285723	147.4285592
35654.75	0.0999797	139	hunger	stimuli/non_foods\non-food_inanimate_sun_flower.jpg	1	1	1	non-food_inanimate_sun_flower	0	J	6	0	216	0	NaN	0	0	147.4785756	147.5785553
36284	0.0999497	140	hunger	stimuli/non_foods\non-food_animate_yellow_bug.jpg	1	2	1	non-food_animate_yellow_bug	0	G	4	0	155	0	NaN	0	0	149.9952522	150.0952019
36321.5	0.0999688	141	hunger	stimuli/non_foods\non-food_animate_camel.jpg	1	2	1	non-food_animate_camel	0	R	12	0	97	0	NaN	0	0	150.1452307	150.2451995
36359	0.0999819	142	hunger	stimuli/foods\red_beans.jpg	1	2	1	red_beans	1	V	15	0	255	0	NaN	0	0	150.2952173	150.3951992
36396.5	0.0999836	143	hunger	stimuli/foods\brie.jpg	1	2	1	brie	1	S	13	0	12	0	NaN	0	0	150.4452148	150.5451984
36434	0.0999816	144	hunger	stimuli/non_foods\non-food_inanimate_broom.jpg	1	2	1	non-food_inanimate_broom	0	X	17	0	164	0	NaN	0	0	150.5952131	150.6951947
36471.5	0.0999865	145	hunger	stimuli/foods\grapes.jpg	1	2	1	grapes	1	S	13	0	60	0	NaN	0	0	150.7452109	150.8451974
36509	0.099982	146	hunger	stimuli/non_foods\non-food_inanimate_buds.jpg	1	2	1	non-food_inanimate_buds	0	T	14	0	166	0	NaN	0	0	150.8952118	150.9951938
36546.5	0.0999951	147	hunger	stimuli/non_foods\non-food_inanimate_nest.jpg	1	2	1	non-food_inanimate_nest	0	L	8	0	196	0	NaN	0	0	151.0452112	151.1452063
36584	0.099984	148	hunger	stimuli/non_foods\non-food_inanimate_gloves.jpg	1	2	1	non-food_inanimate_gloves	0	N	10	0	183	0	NaN	0	0	151.1952088	151.2951928
36621.5	0.0999827	149	hunger	stimuli/non_foods\non-food_inanimate_desk.jpg	1	2	1	non-food_inanimate_desk	0	Z	18	0	178	0	NaN	0	0	151.3452068	151.4451895
36659	0.0999981	150	hunger	stimuli/foods\avocado.jpg	1	2	1	avocado	1	L	8	0	5	0	NaN	0	0	151.4951945	151.5951926
36696.5	0.0999899	151	hunger	stimuli/non_foods\non-food_inanimate_bamboo.jpg	1	2	1	non-food_inanimate_bamboo	0	S	13	0	159	0	NaN	0	0	151.6452047	151.7451946
36734	0.0999545	152	hunger	stimuli/foods\cream_donuts.jpg	1	2	1	cream_donuts	1	G	4	0	39	0	NaN	0	0	151.7952331	151.8951876
36771.5	0.0999811	153	hunger	stimuli/foods\beetroots.jpg	1	2	1	beetroots	1	C	1	0	10	0	NaN	0	0	151.9452039	152.045185
36809	0.0999769	154	hunger	stimuli/foods\salmon.jpg	1	2	1	salmon	1	D	2	0	264	0	NaN	0	0	152.0951988	152.1951757
36846.5	0.0999858	155	hunger	stimuli/non_foods\non-food_animate_ladybug.jpg	1	2	1	non-food_animate_ladybug	0	J	6	0	124	0	NaN	0	0	152.2451977	152.3451835
36884	0.0999819	156	hunger	stimuli/non_foods\non-food_animate_parrot.jpg	1	2	1	non-food_animate_parrot	0	I	21	1	133	0	NaN	0	0	152.395191	152.4951729
36921.5	0.0999851	157	hunger	stimuli/non_foods\non-food_animate_lion.jpg	1	2	1	non-food_animate_lion	0	B	0	0	125	0	NaN	0	0	152.5451985	152.6451836
36959	0.0999791	158	hunger	stimuli/non_foods\non-food_animate_swan.jpg	1	2	1	non-food_animate_swan	0	K	7	0	152	0	NaN	0	0	152.6951948	152.7951739
36996.5	0.0999878	159	hunger	stimuli/non_foods\non-food_inanimate_chair.jpg	1	2	1	non-food_inanimate_chair	0	G	4	0	172	0	NaN	0	0	152.8451924	152.9451802
37034	0.0999841	160	hunger	stimuli/non_foods\non-food_inanimate_bush.jpg	1	2	1	non-food_inanimate_bush	0	X	17	0	167	0	NaN	0	0	152.9951948	153.0951789
37071.5	0.099985	161	hunger	stimuli/non_foods\non-food_inanimate_drum_set.jpg	1	2	1	non-food_inanimate_drum_set	0	J	6	0	179	0	NaN	0	0	153.1451918	153.2451768
37109	0.0999827	162	hunger	stimuli/foods\raw_ham.jpg	1	2	1	raw_ham	1	R	12	0	253	0	NaN	0	0	153.2951915	153.3951742
37146.5	0.0999978	163	hunger	stimuli/foods\gnocchi.jpg	1	2	1	gnocchi	1	L	8	0	58	0	NaN	0	0	153.4451878	153.5451856
37184	0.0999494	164	hunger	stimuli/foods\raisins.jpg	1	2	1	raisins	1	C	1	0	252	0	NaN	0	0	153.5952169	153.6951663
37221.5	0.0999823	165	hunger	stimuli/foods\potato_and_green_bean_salad.jpg	1	2	1	potato_and_green_bean_salad	1	Z	18	0	246	0	NaN	0	0	153.7451849	153.8451672
37259	0.0999905	166	hunger	stimuli/foods\oven-roasted_tomatoes.jpg	1	2	1	oven-roasted_tomatoes	1	P	11	0	232	0	NaN	0	0	153.8951835	153.995174
37296.5	0.0999905	167	hunger	stimuli/non_foods\non-food_animate_mammoth.jpg	1	2	1	non-food_animate_mammoth	0	J	6	0	128	0	NaN	0	0	154.045181	154.1451715
37334	0.0999875	168	hunger	stimuli/foods\oregano.jpg	1	2	1	oregano	1	F	3	0	231	0	NaN	0	0	154.1951811	154.2951686
37371.5	0.0999855	169	hunger	stimuli/non_foods\non-food_animate_Causasian_man.jpg	1	2	1	non-food_animate_Causasian_man	0	J	6	0	89	0	NaN	0	0	154.3451816	154.4451671
37409	0.0999852	170	hunger	stimuli/foods\peach.jpg	1	2	1	peach	1	K	7	0	238	0	NaN	0	0	154.49518	154.5951652
37446.5	0.099986	171	hunger	stimuli/foods\donut.jpg	1	2	1	donut	1	D	2	0	44	0	NaN	0	0	154.6451778	154.7451638
37484	0.0999793	172	hunger	stimuli/foods\pineapple.jpg	1	2	1	pineapple	1	W	16	0	243	0	NaN	0	0	154.7951833	154.8951626
37521.5	0.0999869	173	hunger	stimuli/foods\wafer.jpg	1	2	1	wafer	1	S	13	0	277	0	NaN	0	0	154.9451755	155.0451624
37559	0.0999863	174	hunger	stimuli/non_foods\non-food_inanimate_jeans.jpg	1	2	1	non-food_inanimate_jeans	0	M	9	0	191	0	NaN	0	0	155.0951775	155.1951638
37596.5	0.1000193	175	hunger	stimuli/non_foods\non-food_animate_Asian_man.jpg	1	2	1	non-food_animate_Asian_man	0	G	4	0	88	0	NaN	0	0	155.2451721	155.3451914
37634	0.0999331	176	hunger	stimuli/non_foods\non-food_inanimate_ring.jpg	1	2	1	non-food_inanimate_ring	0	F	3	0	203	0	NaN	0	0	155.3952176	155.4951507
37671.5	0.0999825	177	hunger	stimuli/foods\spring_onions.jpg	1	2	1	spring_onions	1	Z	18	0	269	0	NaN	0	0	155.5451719	155.6451544
37709	0.0999861	178	hunger	stimuli/non_foods\non-food_inanimate_highlighter.jpg	1	2	1	non-food_inanimate_highlighter	0	N	10	0	189	0	NaN	0	0	155.6951696	155.7951557
37746.5	0.099984	179	hunger	stimuli/foods\pork_and_rice.jpg	1	2	1	pork_and_rice	1	H	5	0	245	0	NaN	0	0	155.8451738	155.9451578
37784	0.0999859	180	hunger	stimuli/foods\fennel.jpg	1	2	1	fennel	1	M	9	0	47	0	NaN	0	0	155.9951675	156.0951534
37821.5	0.099985	181	hunger	stimuli/foods\lettuce.jpg	1	2	1	lettuce	1	G	4	0	75	0	NaN	0	0	156.1451675	156.2451525
37859	0.0999827	182	hunger	stimuli/non_foods\non-food_inanimate_bicycle.jpg	1	2	1	non-food_inanimate_bicycle	0	D	2	0	161	0	NaN	0	0	156.2951663	156.395149
37896.5	0.0999661	183	hunger	stimuli/foods\peas.jpg	1	2	1	peas	1	F	3	0	240	0	NaN	0	0	156.4451824	156.5451485
37934	0.0999806	184	hunger	stimuli/non_foods\non-food_inanimate_button.jpg	1	2	1	non-food_inanimate_button	0	H	5	0	168	0	NaN	0	0	156.5951711	156.6951517
37971.5	0.0999848	185	hunger	stimuli/non_foods\non-food_animate_cow.jpg	1	2	1	non-food_animate_cow	0	F	3	0	103	0	NaN	0	0	156.7451616	156.8451464
38009	0.0999863	186	hunger	stimuli/foods\lollies.jpg	1	2	1	lollies	1	B	0	0	78	0	NaN	0	0	156.8951616	156.9951479
38046.5	0.099995	187	hunger	stimuli/foods\pea_pod.jpg	1	2	1	pea_pod	1	F	3	0	237	0	NaN	0	0	157.0451695	157.1451645
38084	0.0999914	188	hunger	stimuli/foods\baked_lamb_with_potatoes.jpg	1	2	1	baked_lamb_with_potatoes	1	X	17	0	8	0	NaN	0	0	157.1951494	157.2951408
38121.5	0.0999902	189	hunger	stimuli/non_foods\non-food_animate_gorilla.jpg	1	2	1	non-food_animate_gorilla	0	R	12	0	116	0	NaN	0	0	157.3451575	157.4451477
38159	0.0999938	190	hunger	stimuli/foods\onion.jpg	1	2	1	onion	1	V	15	0	229	0	NaN	0	0	157.4951457	157.5951395
38196.5	0.0999958	191	hunger	stimuli/non_foods\non-food_animate_runner.jpg	1	2	1	non-food_animate_runner	0	Z	18	0	142	0	NaN	0	0	157.6451541	157.7451499
38234	0.0999515	192	hunger	stimuli/non_foods\non-food_inanimate_waterlily.jpg	1	2	1	non-food_inanimate_waterlily	0	T	14	0	226	0	NaN	0	0	157.7951631	157.8951146
38271.5	0.0999838	193	hunger	stimuli/non_foods\non-food_inanimate_short_sleeved_shirt.jpg	1	2	1	non-food_inanimate_short_sleeved_shirt	0	L	8	0	207	0	NaN	0	0	157.9451527	158.0451365
38309	0.0999887	194	hunger	stimuli/non_foods\non-food_animate_rhino.jpg	1	2	1	non-food_animate_rhino	0	I	21	1	141	0	NaN	0	0	158.0951513	158.19514
38346.5	0.099977	195	hunger	stimuli/foods\fried_zucchini.jpg	1	2	1	fried_zucchini	1	B	0	0	51	0	NaN	0	0	158.2451587	158.3451357
38384	0.0999794	196	hunger	stimuli/foods\museli_bars.jpg	1	2	1	museli_bars	1	F	3	0	84	0	NaN	0	0	158.3951471	158.4951265
38421.5	0.0999894	197	hunger	stimuli/foods\steak.jpg	1	2	1	steak	1	N	10	0	270	0	NaN	0	0	158.5451492	158.6451386
38459	0.0999881	198	hunger	stimuli/non_foods\non-food_animate_giraffe.jpg	1	2	1	non-food_animate_giraffe	0	T	14	0	115	0	NaN	0	0	158.6951454	158.7951335
38496.5	0.1000225	199	hunger	stimuli/non_foods\non-food_inanimate_lighter.jpg	1	2	1	non-food_inanimate_lighter	0	H	5	0	193	0	NaN	0	0	158.8451503	158.9451728
38534	0.0999663	200	hunger	stimuli/non_foods\non-food_inanimate_grass.jpg	1	2	1	non-food_inanimate_grass	0	B	0	0	184	0	NaN	0	0	158.9951612	159.0951275
38571.5	0.0999684	201	hunger	stimuli/foods\salami.jpg	1	2	1	salami	1	D	2	0	263	0	NaN	0	0	159.1451593	159.2451277
38609	0.0999849	202	hunger	stimuli/foods\banana.jpg	1	2	1	banana	1	P	11	0	9	0	NaN	0	0	159.295142	159.3951269
38646.5	0.0999859	203	hunger	stimuli/foods\spinach.jpg	1	2	1	spinach	1	X	17	0	268	0	NaN	0	0	159.4451396	159.5451255
38684	0.1000151	204	hunger	stimuli/foods\dates.jpg	1	2	1	dates	1	N	10	0	43	0	NaN	0	0	159.5951416	159.6951567
38721.5	0.0999843	205	hunger	stimuli/foods\asparagus.jpg	1	2	1	asparagus	1	R	12	0	4	0	NaN	0	0	159.7451397	159.845124
38759	0.0999849	206	hunger	stimuli/non_foods\non-food_inanimate_bucket.jpg	1	2	1	non-food_inanimate_bucket	0	F	3	0	165	0	NaN	0	0	159.8951374	159.9951223
38796.5	0.0999865	207	hunger	stimuli/non_foods\non-food_inanimate_briefcase.jpg	1	2	1	non-food_inanimate_briefcase	0	C	1	0	163	0	NaN	0	0	160.0451363	160.1451228
38834	0.0999847	208	hunger	stimuli/non_foods\non-food_inanimate_cap.jpg	1	2	1	non-food_inanimate_cap	0	K	7	0	171	0	NaN	0	0	160.1951327	160.2951174
38871.5	0.0999739	209	hunger	stimuli/non_foods\non-food_inanimate_skateboard.jpg	1	2	1	non-food_inanimate_skateboard	0	S	13	0	208	0	NaN	0	0	160.3451349	160.4451088
38909	0.0999932	210	hunger	stimuli/foods\almonds.jpg	1	2	1	almonds	1	B	0	0	0	0	NaN	0	0	160.4951251	160.5951183
38946.5	0.0999851	211	hunger	stimuli/non_foods\non-food_animate_dolphin.jpg	1	2	1	non-food_animate_dolphin	0	Z	18	0	106	0	NaN	0	0	160.6451519	160.745137
38984	0.0999611	212	hunger	stimuli/non_foods\non-food_animate_caterpillar.jpg	1	2	1	non-food_animate_caterpillar	0	T	14	0	99	0	NaN	0	0	160.7951546	160.8951157
39021.5	0.0999839	213	hunger	stimuli/foods\cereal.jpg	1	2	1	cereal	1	N	10	0	22	0	NaN	0	0	160.9451284	161.0451123
39059	0.0999784	214	hunger	stimuli/foods\radish.jpg	1	2	1	radish	1	K	7	0	251	0	NaN	0	0	161.0951255	161.1951039
39096.5	0.099984	215	hunger	stimuli/non_foods\non-food_animate_kangaroo.jpg	1	2	1	non-food_animate_kangaroo	0	V	15	0	122	0	NaN	0	0	161.2451281	161.3451121
39134	0.0999752	216	hunger	stimuli/non_foods\non-food_inanimate_toy_airplane.jpg	1	2	1	non-food_inanimate_toy_airplane	0	T	14	0	222	0	NaN	0	0	161.3951255	161.4951007
39171.5	0.0999878	217	hunger	stimuli/foods\cherry.jpg	1	2	1	cherry	1	K	7	0	23	0	NaN	0	0	161.5451219	161.6451097
39209	0.1000132	218	hunger	stimuli/foods\meatballs.jpg	1	2	1	meatballs	1	B	0	0	81	0	NaN	0	0	161.6951201	161.7951333
39246.5	0.0999866	219	hunger	stimuli/non_foods\non-food_inanimate_headphones.jpg	1	2	1	non-food_inanimate_headphones	0	R	12	0	188	0	NaN	0	0	161.8451189	161.9451055
39284	0.0999843	220	hunger	stimuli/non_foods\non-food_animate_duck.jpg	1	2	1	non-food_animate_duck	0	J	6	0	109	0	NaN	0	0	161.9951196	162.0951039
39321.5	0.0999855	221	hunger	stimuli/non_foods\non-food_inanimate_tent.jpg	1	2	1	non-food_inanimate_tent	0	L	8	0	219	0	NaN	0	0	162.1451188	162.2451043
39359	0.0999954	222	hunger	stimuli/non_foods\non-food_inanimate_soccer_ball.jpg	1	2	1	non-food_inanimate_soccer_ball	0	H	5	0	210	0	NaN	0	0	162.2951153	162.3951107
39396.5	0.0999871	223	hunger	stimuli/foods\baked_cod_with_carrots_and_green_beans.jpg	1	2	1	baked_cod_with_carrots_and_green_beans	1	T	14	0	7	0	NaN	0	0	162.4451178	162.5451049
39434	0.0999654	224	hunger	stimuli/foods\ice_cream.jpg	1	2	1	ice_cream	1	R	12	0	68	0	NaN	0	0	162.5951333	162.6950987
39471.5	0.0999876	225	hunger	stimuli/non_foods\non-food_animate_ant.jpg	1	2	1	non-food_animate_ant	0	F	3	0	91	0	NaN	0	0	162.7451039	162.8450915
39509	0.0999821	226	hunger	stimuli/foods\grilled_chicken_breast.jpg	1	2	1	grilled_chicken_breast	1	S	13	0	63	0	NaN	0	0	162.8951156	162.9950977
39546.5	0.0999838	227	hunger	stimuli/foods\savory_pie.jpg	1	2	1	savory_pie	1	N	10	0	265	0	NaN	0	0	163.0451095	163.1450933
39584	0.0999826	228	hunger	stimuli/foods\lime.jpg	1	2	1	lime	1	F	3	0	76	0	NaN	0	0	163.1951113	163.2950939
39621.5	0.0999863	229	hunger	stimuli/non_foods\non-food_animate_squirrel.jpg	1	2	1	non-food_animate_squirrel	0	Z	18	0	150	0	NaN	0	0	163.3451072	163.4450935
39659	0.1000091	230	hunger	stimuli/foods\risotto_with_peas_and_asparagus_tips.jpg	1	2	1	risotto_with_peas_and_asparagus_tips	1	K	7	0	259	0	NaN	0	0	163.4950985	163.5951076
39696.5	0.0999849	231	hunger	stimuli/non_foods\non-food_animate_snail.jpg	1	2	1	non-food_animate_snail	0	N	10	0	149	0	NaN	0	0	163.6451057	163.7450906
39734	0.0999794	232	hunger	stimuli/foods\lamb_chops.jpg	1	2	1	lamb_chops	1	F	3	0	70	0	NaN	0	0	163.7951116	163.895091
39771.5	0.0999569	233	hunger	stimuli/foods\lentils.jpg	1	2	1	lentils	1	B	0	0	74	0	NaN	0	0	163.9451251	164.045082
39809	0.0999921	234	hunger	stimuli/non_foods\non-food_animate_peacock.jpg	1	2	1	non-food_animate_peacock	0	S	13	0	134	0	NaN	0	0	164.0951024	164.1950945
39846.5	0.0999794	235	hunger	stimuli/non_foods\non-food_inanimate_shell.jpg	1	2	1	non-food_inanimate_shell	0	B	0	0	206	0	NaN	0	0	164.2451224	164.3451018
39884	0.0999682	236	hunger	stimuli/foods\broccoli.jpg	1	2	1	broccoli	1	P	11	0	13	0	NaN	0	0	164.395106	164.4950742
39921.5	0.0999847	237	hunger	stimuli/non_foods\non-food_animate_cheetah.jpg	1	2	1	non-food_animate_cheetah	0	K	7	0	100	0	NaN	0	0	164.5450999	164.6450846
39959	0.1000048	238	hunger	stimuli/foods\cinnamon_sroll.jpg	1	2	1	cinnamon_sroll	1	J	6	0	31	0	NaN	0	0	164.6950966	164.7951014
39996.5	0.099996	239	hunger	stimuli/non_foods\non-food_inanimate_fire_extinguisher.jpg	1	2	1	non-food_inanimate_fire_extinguisher	0	V	15	0	181	0	NaN	0	0	164.8450774	164.9450734
40034	0.0999901	240	hunger	stimuli/foods\omelette.jpg	1	2	1	omelette	1	X	17	0	228	0	NaN	0	0	164.9950916	165.0950817
40071.5	0.0999814	241	hunger	stimuli/foods\chocolate_pudding.jpg	1	2	1	chocolate_pudding	1	L	8	0	29	0	NaN	0	0	165.1450976	165.245079
40109	0.0999809	242	hunger	stimuli/non_foods\non-food_animate_donkey.jpg	1	2	1	non-food_animate_donkey	0	S	13	0	107	0	NaN	0	0	165.2950884	165.3950693
40146.5	0.0999853	243	hunger	stimuli/foods\mushroom.jpg	1	2	1	mushroom	1	J	6	0	85	0	NaN	0	0	165.4450928	165.5450781
40184	0.0999671	244	hunger	stimuli/foods\cupcake.jpg	1	2	1	cupcake	1	X	17	0	42	0	NaN	0	0	165.5950875	165.6950546
40221.5	0.0999862	245	hunger	stimuli/foods\figs.jpg	1	2	1	figs	1	S	13	0	48	0	NaN	0	0	165.7450898	165.845076
40259	0.099994	246	hunger	stimuli/foods\roasted_chicken.jpg	1	2	1	roasted_chicken	1	M	9	0	261	0	NaN	0	0	165.895092	165.995086
40296.5	0.0999711	247	hunger	stimuli/foods\pear.jpg	1	2	1	pear	1	D	2	0	239	0	NaN	0	0	166.0450984	166.1450695
40334	0.0999874	248	hunger	stimuli/foods\chestnut.jpg	1	2	1	chestnut	1	J	6	0	24	0	NaN	0	0	166.1950833	166.2950707
40371.5	0.099981	249	hunger	stimuli/foods\green_beans.jpg	1	2	1	green_beans	1	V	15	0	61	0	NaN	0	0	166.3450866	166.4450676
40409	0.099986	250	hunger	stimuli/non_foods\non-food_inanimate_toilet.jpg	1	2	1	non-food_inanimate_toilet	0	X	17	0	220	0	NaN	0	0	166.4950827	166.5950687
40446.5	0.0999904	251	hunger	stimuli/non_foods\non-food_inanimate_teddy_bear.jpg	1	2	1	non-food_inanimate_teddy_bear	0	W	16	0	218	0	NaN	0	0	166.6450826	166.745073
40484	0.0999857	252	hunger	stimuli/non_foods\non-food_inanimate_nailpolish.jpg	1	2	1	non-food_inanimate_nailpolish	0	F	3	0	195	0	NaN	0	0	166.7950824	166.8950681
40521.5	0.1000052	253	hunger	stimuli/non_foods\non-food_inanimate_fern.jpg	1	2	1	non-food_inanimate_fern	0	N	10	0	180	0	NaN	0	0	166.9450512	167.0450564
40559	0.0999849	254	hunger	stimuli/foods\bagel.jpg	1	2	1	bagel	1	G	4	0	6	0	NaN	0	0	167.0950786	167.1950635
40596.5	0.0999851	255	hunger	stimuli/non_foods\non-food_inanimate_pine_cone.jpg	1	2	1	non-food_inanimate_pine_cone	0	V	15	0	200	0	NaN	0	0	167.2450754	167.3450605
40634	0.0999813	256	hunger	stimuli/non_foods\non-food_animate_student_female.jpg	1	2	1	non-food_animate_student_female	0	X	17	0	151	0	NaN	0	0	167.3950715	167.4950528
40671.5	0.0999857	257	hunger	stimuli/foods\cauliflower.jpg	1	2	1	cauliflower	1	G	4	0	20	0	NaN	0	0	167.5450738	167.6450595
40709	0.0999925	258	hunger	stimuli/non_foods\non-food_inanimate_stapler.jpg	1	2	1	non-food_inanimate_stapler	0	N	10	0	213	0	NaN	0	0	167.6950757	167.7950682
40746.5	0.0999859	259	hunger	stimuli/foods\rockmelon.jpg	1	2	1	rockmelon	1	X	17	0	262	0	NaN	0	0	167.845073	167.9450589
40784	0.099993	260	hunger	stimuli/foods\chocolate_bar.jpg	1	2	1	chocolate_bar	1	H	5	0	26	0	NaN	0	0	167.9950607	168.0950537
40821.5	0.0999982	261	hunger	stimuli/foods\cabbage.jpg	1	2	1	cabbage	1	L	8	0	16	0	NaN	0	0	168.1450636	168.2450618
40859	0.0999799	262	hunger	stimuli/non_foods\non-food_animate_young_boy.jpg	1	2	1	non-food_animate_young_boy	0	R	12	0	156	0	NaN	0	0	168.2950677	168.3950476
40896.5	0.0999862	263	hunger	stimuli/non_foods\non-food_animate_eagle.jpg	1	2	1	non-food_animate_eagle	0	X	17	0	110	0	NaN	0	0	168.4450676	168.5450538
40934	0.099979	264	hunger	stimuli/non_foods\non-food_inanimate_cupboard.jpg	1	2	1	non-food_inanimate_cupboard	0	M	9	0	177	0	NaN	0	0	168.5950746	168.6950536
40971.5	0.099974	265	hunger	stimuli/non_foods\non-food_inanimate_watering_can.jpg	1	2	1	non-food_inanimate_watering_can	0	F	3	0	225	0	NaN	0	0	168.7450655	168.8450395
41009	0.0999628	266	hunger	stimuli/non_foods\non-food_inanimate_wrench.jpg	1	2	1	non-food_inanimate_wrench	0	D	2	0	227	0	NaN	0	0	168.8950869	168.9950497
41046.5	0.0999751	267	hunger	stimuli/foods\cinnamon.jpg	1	2	1	cinnamon	1	W	16	0	30	0	NaN	0	0	169.0450643	169.1450394
41084	0.0999902	268	hunger	stimuli/foods\pancakes.jpg	1	2	1	pancakes	1	D	2	0	234	0	NaN	0	0	169.1950587	169.2950489
41121.5	0.0999841	269	hunger	stimuli/non_foods\non-food_inanimate_padlock.jpg	1	2	1	non-food_inanimate_padlock	0	W	16	0	199	0	NaN	0	0	169.3450628	169.4450469
41159	0.0999774	270	hunger	stimuli/non_foods\non-food_inanimate_clover.jpg	1	2	1	non-food_inanimate_clover	0	K	7	0	174	0	NaN	0	0	169.4950598	169.5950372
41196.5	0.0999628	271	hunger	stimuli/non_foods\non-food_inanimate_tree.jpg	1	2	1	non-food_inanimate_tree	0	T	14	0	223	0	NaN	0	0	169.6450798	169.7450426
41234	0.0999779	272	hunger	stimuli/foods\garlic.jpg	1	2	1	garlic	1	B	0	0	56	0	NaN	0	0	169.7950638	169.8950417
41271.5	0.0999869	273	hunger	stimuli/foods\lasagna.jpg	1	2	1	lasagna	1	C	1	0	71	0	NaN	0	0	169.9450525	170.0450394
41309	0.0999832	274	hunger	stimuli/foods\brownie.jpg	1	2	1	brownie	1	B	0	0	14	0	NaN	0	0	170.0950545	170.1950377
41346.5	0.0999841	275	hunger	stimuli/foods\mussels.jpg	1	2	1	mussels	1	W	16	0	86	0	NaN	0	0	170.2450523	170.3450364
41384	0.0999749	276	hunger	stimuli/non_foods\non-food_inanimate_scissors.jpg	1	2	1	non-food_inanimate_scissors	0	B	0	0	205	0	NaN	0	0	170.3950547	170.4950296
41421.5	0.0999844	277	hunger	stimuli/non_foods\non-food_animate_woman.jpg	1	2	1	non-food_animate_woman	0	D	2	0	154	0	NaN	0	0	170.545051	170.6450354
41459	0.0999856	278	hunger	stimuli/foods\nectarine.jpg	1	2	1	nectarine	1	X	17	0	87	0	NaN	0	0	170.6950606	170.7950462
41496.5	0.0999853	279	hunger	stimuli/foods\blackberry.jpg	1	2	1	blackberry	1	V	15	0	11	0	NaN	0	0	170.8450507	170.945036
42009	0.099981	280	hunger	stimuli/foods\fruit_pie.jpg	1	3	1	fruit_pie	1	V	15	0	54	0	NaN	0	0	172.8950378	172.9950188
42046.5	0.0999828	281	hunger	stimuli/non_foods\non-food_animate_killer_whale.jpg	1	3	1	non-food_animate_killer_whale	0	W	16	0	123	0	NaN	0	0	173.0450326	173.1450154
42084	0.0999854	282	hunger	stimuli/foods\egg.jpg	1	3	1	egg	1	M	9	0	45	0	NaN	0	0	173.195028	173.2950134
42121.5	0.0999864	283	hunger	stimuli/foods\pear.jpg	1	3	1	pear	1	N	10	0	239	0	NaN	0	0	173.3450296	173.445016
42159	0.0999378	284	hunger	stimuli/foods\cauliflower.jpg	1	3	1	cauliflower	1	G	4	0	20	0	NaN	0	0	173.4950739	173.5950117
42196.5	0.0999904	285	hunger	stimuli/foods\gnocchi.jpg	1	3	1	gnocchi	1	N	10	0	58	0	NaN	0	0	173.6450231	173.7450135
42234	0.0999843	286	hunger	stimuli/non_foods\non-food_animate_dachshund.jpg	1	3	1	non-food_animate_dachshund	0	D	2	0	104	0	NaN	0	0	173.7950232	173.8950075
42271.5	0.0999872	287	hunger	stimuli/non_foods\non-food_animate_lizard.jpg	1	3	1	non-food_animate_lizard	0	S	13	0	126	0	NaN	0	0	173.9450231	174.0450103
42309	0.0999839	288	hunger	stimuli/non_foods\non-food_animate_gorilla.jpg	1	3	1	non-food_animate_gorilla	0	C	1	0	116	0	NaN	0	0	174.0950248	174.1950087
42346.5	0.0999862	289	hunger	stimuli/foods\omelette.jpg	1	3	1	omelette	1	G	4	0	228	0	NaN	0	0	174.2450195	174.3450057
42384	0.0999846	290	hunger	stimuli/foods\pea_pod.jpg	1	3	1	pea_pod	1	K	7	0	237	0	NaN	0	0	174.3950206	174.4950052
42421.5	0.0999627	291	hunger	stimuli/non_foods\non-food_inanimate_gloves.jpg	1	3	1	non-food_inanimate_gloves	0	L	8	0	183	0	NaN	0	0	174.5450377	174.6450004
42459	0.0999858	292	hunger	stimuli/foods\chocolate_pralines.jpg	1	3	1	chocolate_pralines	1	D	2	0	28	0	NaN	0	0	174.6950183	174.7950041
42496.5	0.0999799	293	hunger	stimuli/non_foods\non-food_animate_young_boy.jpg	1	3	1	non-food_animate_young_boy	0	J	6	0	156	0	NaN	0	0	174.845018	174.9449979
42534	0.1000091	294	hunger	stimuli/non_foods\non-food_animate_frog.jpg	1	3	1	non-food_animate_frog	0	S	13	0	113	0	NaN	0	0	174.9949895	175.0949986
42571.5	0.100032	295	hunger	stimuli/non_foods\non-food_inanimate_padlock.jpg	1	3	1	non-food_inanimate_padlock	0	X	17	0	199	0	NaN	0	0	175.1450138	175.2450458
42609	0.0999625	296	hunger	stimuli/foods\smoked_ham.jpg	1	3	1	smoked_ham	1	W	16	0	266	0	NaN	0	0	175.2950332	175.3949957
42646.5	0.0999873	297	hunger	stimuli/non_foods\non-food_inanimate_clover.jpg	1	3	1	non-food_inanimate_clover	0	G	4	0	174	0	NaN	0	0	175.4450113	175.5449986
42684	0.0999943	298	hunger	stimuli/non_foods\non-food_inanimate_skirt.jpg	1	3	1	non-food_inanimate_skirt	0	J	6	0	209	0	NaN	0	0	175.5950105	175.6950048
42721.5	0.099984	299	hunger	stimuli/foods\cinnamon_sroll.jpg	1	3	1	cinnamon_sroll	1	D	2	0	31	0	NaN	0	0	175.7450087	175.8449927
42759	0.099986	300	hunger	stimuli/non_foods\non-food_animate_rhino.jpg	1	3	1	non-food_animate_rhino	0	N	10	0	141	0	NaN	0	0	175.8950082	175.9949942
42796.5	0.0999873	301	hunger	stimuli/non_foods\non-food_animate_camel.jpg	1	3	1	non-food_animate_camel	0	I	21	1	97	0	NaN	0	0	176.0450063	176.1449936
42834	0.0999854	302	hunger	stimuli/non_foods\non-food_animate_penguin.jpg	1	3	1	non-food_animate_penguin	0	W	16	0	135	0	NaN	0	0	176.1950039	176.2949893
42871.5	0.0999737	303	hunger	stimuli/non_foods\non-food_inanimate_wrench.jpg	1	3	1	non-food_inanimate_wrench	0	B	0	0	227	0	NaN	0	0	176.345018	176.4449917
42909	0.0999851	304	hunger	stimuli/foods\lentils.jpg	1	3	1	lentils	1	W	16	0	74	0	NaN	0	0	176.4950055	176.5949906
42946.5	0.0999867	305	hunger	stimuli/foods\museli_bars.jpg	1	3	1	museli_bars	1	D	2	0	84	0	NaN	0	0	176.6450002	176.7449869
42984	0.0999886	306	hunger	stimuli/non_foods\non-food_inanimate_nest.jpg	1	3	1	non-food_inanimate_nest	0	R	12	0	196	0	NaN	0	0	176.7950023	176.8949909
43021.5	0.1000155	307	hunger	stimuli/non_foods\non-food_inanimate_skateboard.jpg	1	3	1	non-food_inanimate_skateboard	0	W	16	0	208	0	NaN	0	0	176.9450129	177.0450284
43059	0.0999718	308	hunger	stimuli/foods\waffle.jpg	1	3	1	waffle	1	D	2	0	278	0	NaN	0	0	177.0950128	177.1949846
43096.5	0.0999853	309	hunger	stimuli/foods\oyster.jpg	1	3	1	oyster	1	T	14	0	233	0	NaN	0	0	177.2449984	177.3449837
43134	0.0999855	310	hunger	stimuli/foods\roasted_chicken.jpg	1	3	1	roasted_chicken	1	N	10	0	261	0	NaN	0	0	177.3949931	177.4949786
43171.5	0.0999897	311	hunger	stimuli/foods\peach.jpg	1	3	1	peach	1	Z	18	0	238	0	NaN	0	0	177.5449933	177.644983
43209	0.0999849	312	hunger	stimuli/non_foods\non-food_inanimate_toy_airplane.jpg	1	3	1	non-food_inanimate_toy_airplane	0	R	12	0	222	0	NaN	0	0	177.6949929	177.7949778
43246.5	0.0999894	313	hunger	stimuli/non_foods\non-food_inanimate_rope.jpg	1	3	1	non-food_inanimate_rope	0	T	14	0	204	0	NaN	0	0	177.8449895	177.9449789
43284	0.0999815	314	hunger	stimuli/non_foods\non-food_inanimate_cactus_pot_plant.jpg	1	3	1	non-food_inanimate_cactus_pot_plant	0	V	15	0	169	0	NaN	0	0	177.994994	178.0949755
43321.5	0.0999726	315	hunger	stimuli/non_foods\non-food_inanimate_sun_flower.jpg	1	3	1	non-food_inanimate_sun_flower	0	N	10	0	216	0	NaN	0	0	178.1450029	178.2449755
43359	0.0999789	316	hunger	stimuli/foods\fried_zucchini.jpg	1	3	1	fried_zucchini	1	B	0	0	51	0	NaN	0	0	178.2949939	178.3949728
43396.5	0.0999876	317	hunger	stimuli/non_foods\non-food_animate_german_shepherd.jpg	1	3	1	non-food_animate_german_shepherd	0	P	11	0	114	0	NaN	0	0	178.4449851	178.5449727
43434	0.0999847	318	hunger	stimuli/foods\cannoli.jpg	1	3	1	cannoli	1	M	9	0	17	0	NaN	0	0	178.5949862	178.6949709
43471.5	0.0999951	319	hunger	stimuli/non_foods\non-food_animate_grasshopper.jpg	1	3	1	non-food_animate_grasshopper	0	W	16	0	117	0	NaN	0	0	178.7450006	178.8449957
43509	0.0999501	320	hunger	stimuli/foods\garlic.jpg	1	3	1	garlic	1	L	8	0	56	0	NaN	0	0	178.8950163	178.9949664
43546.5	0.0999948	321	hunger	stimuli/non_foods\non-food_inanimate_rack.jpg	1	3	1	non-food_inanimate_rack	0	W	16	0	202	0	NaN	0	0	179.0449826	179.1449774
43584	0.1000058	322	hunger	stimuli/foods\potatoes.jpg	1	3	1	potatoes	1	L	8	0	248	0	NaN	0	0	179.1949593	179.2949651
43621.5	0.0999868	323	hunger	stimuli/non_foods\non-food_inanimate_watering_can.jpg	1	3	1	non-food_inanimate_watering_can	0	J	6	0	225	0	NaN	0	0	179.3449777	179.4449645
43659	0.1000036	324	hunger	stimuli/foods\risotto_with_zucchini.jpg	1	3	1	risotto_with_zucchini	1	R	12	0	260	0	NaN	0	0	179.4949644	179.594968
43696.5	0.0999868	325	hunger	stimuli/non_foods\non-food_inanimate_bowling_ball.jpg	1	3	1	non-food_inanimate_bowling_ball	0	F	3	0	162	0	NaN	0	0	179.644975	179.7449618
43734	0.1000139	326	hunger	stimuli/foods\linguine_with_clams.jpg	1	3	1	linguine_with_clams	1	M	9	0	77	0	NaN	0	0	179.7949742	179.8949881
43771.5	0.0999628	327	hunger	stimuli/foods\hamburger.jpg	1	3	1	hamburger	1	W	16	0	64	0	NaN	0	0	179.9449981	180.0449609
43809	0.0999839	328	hunger	stimuli/non_foods\non-food_inanimate_headphones.jpg	1	3	1	non-food_inanimate_headphones	0	S	13	0	188	0	NaN	0	0	180.0949725	180.1949564
43846.5	0.0999879	329	hunger	stimuli/foods\grapes.jpg	1	3	1	grapes	1	W	16	0	60	0	NaN	0	0	180.244973	180.3449609
43884	0.099967	330	hunger	stimuli/non_foods\non-food_inanimate_buds.jpg	1	3	1	non-food_inanimate_buds	0	J	6	0	166	0	NaN	0	0	180.3949737	180.4949407
43921.5	0.100005	331	hunger	stimuli/non_foods\non-food_animate_swan.jpg	1	3	1	non-food_animate_swan	0	P	11	0	152	0	NaN	0	0	180.5449635	180.6449685
43959	0.0999645	332	hunger	stimuli/non_foods\non-food_inanimate_canoe.jpg	1	3	1	non-food_inanimate_canoe	0	E	20	1	170	0	NaN	0	0	180.6949922	180.7949567
43996.5	0.0999913	333	hunger	stimuli/foods\cucumber.jpg	1	3	1	cucumber	1	L	8	0	41	0	NaN	0	0	180.8449665	180.9449578
44034	0.0999879	334	hunger	stimuli/non_foods\non-food_inanimate_fire_extinguisher.jpg	1	3	1	non-food_inanimate_fire_extinguisher	0	C	1	0	181	0	NaN	0	0	180.9949677	181.0949556
44071.5	0.0999417	335	hunger	stimuli/non_foods\non-food_animate_dolphin.jpg	1	3	1	non-food_animate_dolphin	0	S	13	0	106	0	NaN	0	0	181.1450112	181.2449529
44109	0.0999887	336	hunger	stimuli/non_foods\non-food_animate_runner.jpg	1	3	1	non-food_animate_runner	0	K	7	0	142	1	NaN	0.70016	1	181.2949632	181.3949519
44146.5	0.0999844	337	hunger	stimuli/foods\salami.jpg	1	3	1	salami	1	S	13	0	263	0	NaN	0	0	181.4449653	181.5449497
44184	0.0999993	338	hunger	stimuli/foods\figs.jpg	1	3	1	figs	1	H	5	0	48	0	NaN	0	0	181.5949624	181.6949617
44221.5	0.0999835	339	hunger	stimuli/non_foods\non-food_animate_millipede.jpg	1	3	1	non-food_animate_millipede	0	P	11	0	129	0	NaN	0	0	181.744967	181.8449505
44259	0.0999879	340	hunger	stimuli/non_foods\non-food_inanimate_bush.jpg	1	3	1	non-food_inanimate_bush	0	F	3	0	167	0	NaN	0	0	181.8949594	181.9949473
44296.5	0.0999956	341	hunger	stimuli/non_foods\non-food_inanimate_chandelier.jpg	1	3	1	non-food_inanimate_chandelier	0	J	6	0	173	0	NaN	0	0	182.0449432	182.1449388
44334	0.099952	342	hunger	stimuli/non_foods\non-food_inanimate_suitcase.jpg	1	3	1	non-food_inanimate_suitcase	0	X	17	0	215	0	NaN	0	0	182.1949604	182.2949124
44371.5	0.0999911	343	hunger	stimuli/foods\apple.jpg	1	3	1	apple	1	T	14	0	1	0	NaN	0	0	182.3449786	182.4449697
44409	0.0999799	344	hunger	stimuli/foods\pineapple.jpg	1	3	1	pineapple	1	L	8	0	243	0	NaN	0	0	182.4949626	182.5949425
44446.5	0.0999878	345	hunger	stimuli/non_foods\non-food_inanimate_soccer_ball.jpg	1	3	1	non-food_inanimate_soccer_ball	0	T	14	0	210	0	NaN	0	0	182.6449525	182.7449403
44484	0.0999875	346	hunger	stimuli/non_foods\non-food_animate_cheetah.jpg	1	3	1	non-food_animate_cheetah	0	S	13	0	100	0	NaN	0	0	182.7949541	182.8949416
44521.5	0.099985	347	hunger	stimuli/non_foods\non-food_animate_pigeon.jpg	1	3	1	non-food_animate_pigeon	0	N	10	0	136	0	NaN	0	0	182.9449525	183.0449375
44559	0.0999876	348	hunger	stimuli/non_foods\non-food_animate_elephant.jpg	1	3	1	non-food_animate_elephant	0	S	13	0	111	0	NaN	0	0	183.094948	183.1949356
44596.5	0.0999863	349	hunger	stimuli/foods\celery.jpg	1	3	1	celery	1	T	14	0	21	0	NaN	0	0	183.2449494	183.3449357
44634	0.0999851	350	hunger	stimuli/non_foods\non-food_inanimate_moss.jpg	1	3	1	non-food_inanimate_moss	0	C	1	0	194	0	NaN	0	0	183.3949458	183.4949309
44671.5	0.099983	351	hunger	stimuli/foods\cinnamon.jpg	1	3	1	cinnamon	1	R	12	0	30	0	NaN	0	0	183.5449498	183.6449328
44709	0.0999463	352	hunger	stimuli/foods\cereal.jpg	1	3	1	cereal	1	S	13	0	22	0	NaN	0	0	183.6949877	183.794934
44746.5	0.0999871	353	hunger	stimuli/non_foods\non-food_inanimate_bucket.jpg	1	3	1	non-food_inanimate_bucket	0	P	11	0	165	0	NaN	0	0	183.8449434	183.9449305
44784	0.0999934	354	hunger	stimuli/foods\pickles.jpg	1	3	1	pickles	1	S	13	0	242	0	NaN	0	0	183.9949404	184.0949338
44821.5	0.0999401	355	hunger	stimuli/non_foods\non-food_animate_giraffe.jpg	1	3	1	non-food_animate_giraffe	0	L	8	0	115	0	NaN	0	0	184.1449876	184.2449277
44859	0.0999886	356	hunger	stimuli/foods\corncob.jpg	1	3	1	corncob	1	X	17	0	37	0	NaN	0	0	184.2949378	184.3949264
44896.5	0.0999878	357	hunger	stimuli/foods\mushroom.jpg	1	3	1	mushroom	1	K	7	0	85	0	NaN	0	0	184.4449383	184.5449261
44934	0.0999838	358	hunger	stimuli/non_foods\non-food_animate_alligator.jpg	1	3	1	non-food_animate_alligator	0	G	4	0	90	0	NaN	0	0	184.5949395	184.6949233
44971.5	0.0999872	359	hunger	stimuli/non_foods\non-food_inanimate_socks.jpg	1	3	1	non-food_inanimate_socks	0	L	8	0	211	0	NaN	0	0	184.7449391	184.8449263
45009	0.099982	360	hunger	stimuli/non_foods\non-food_inanimate_desk.jpg	1	3	1	non-food_inanimate_desk	0	J	6	0	178	0	NaN	0	0	184.8949382	184.9949202
45046.5	0.0999851	361	hunger	stimuli/foods\fruit_salad.jpg	1	3	1	fruit_salad	1	U	23	1	55	0	NaN	0	0	185.0449331	185.1449182
45084	0.0999887	362	hunger	stimuli/foods\spinach.jpg	1	3	1	spinach	1	T	14	0	268	0	NaN	0	0	185.1949315	185.2949202
45121.5	0.0999869	363	hunger	stimuli/foods\pepperoni_pizza.jpg	1	3	1	pepperoni_pizza	1	F	3	0	241	0	NaN	0	0	185.3449316	185.4449185
45159	0.099989	364	hunger	stimuli/non_foods\non-food_inanimate_fern.jpg	1	3	1	non-food_inanimate_fern	0	S	13	0	180	0	NaN	0	0	185.4949318	185.5949208
45196.5	0.0999876	365	hunger	stimuli/foods\nectarine.jpg	1	3	1	nectarine	1	W	16	0	87	0	NaN	0	0	185.644928	185.7449156
45234	0.1000025	366	hunger	stimuli/non_foods\non-food_animate_lion.jpg	1	3	1	non-food_animate_lion	0	V	15	0	125	0	NaN	0	0	185.7949292	185.8949317
45271.5	0.0999334	367	hunger	stimuli/non_foods\non-food_animate_butterfly.jpg	1	3	1	non-food_animate_butterfly	0	R	12	0	96	0	NaN	0	0	185.9449802	186.0449136
45309	0.0999874	368	hunger	stimuli/foods\brownie.jpg	1	3	1	brownie	1	X	17	0	14	0	NaN	0	0	186.094925	186.1949124
45346.5	0.0999857	369	hunger	stimuli/non_foods\non-food_inanimate_bamboo.jpg	1	3	1	non-food_inanimate_bamboo	0	W	16	0	159	0	NaN	0	0	186.2449265	186.3449122
45384	0.0999873	370	hunger	stimuli/foods\onion.jpg	1	3	1	onion	1	Z	18	0	229	0	NaN	0	0	186.3949248	186.4949121
45421.5	0.1000099	371	hunger	stimuli/foods\spring_onions.jpg	1	3	1	spring_onions	1	S	13	0	269	0	NaN	0	0	186.5449	186.6449099
45459	0.0999879	372	hunger	stimuli/foods\chilli.jpg	1	3	1	chilli	1	J	6	0	25	0	NaN	0	0	186.694923	186.7949109
45496.5	0.0999842	373	hunger	stimuli/non_foods\non-food_inanimate_grass.jpg	1	3	1	non-food_inanimate_grass	0	W	16	0	184	0	NaN	0	0	186.8449203	186.9449045
45534	0.0999713	374	hunger	stimuli/non_foods\non-food_inanimate_nailpolish.jpg	1	3	1	non-food_inanimate_nailpolish	0	R	12	0	195	0	NaN	0	0	186.9949368	187.0949081
45571.5	0.0999886	375	hunger	stimuli/foods\beetroots.jpg	1	3	1	beetroots	1	C	1	0	10	0	NaN	0	0	187.1449169	187.2449055
45609	0.0999833	376	hunger	stimuli/non_foods\non-food_inanimate_drum_set.jpg	1	3	1	non-food_inanimate_drum_set	0	Z	18	0	179	0	NaN	0	0	187.2949191	187.3949024
45646.5	0.0999881	377	hunger	stimuli/non_foods\non-food_animate_caterpillar.jpg	1	3	1	non-food_animate_caterpillar	0	H	5	0	99	0	NaN	0	0	187.4449138	187.5449019
45684	0.1000271	378	hunger	stimuli/foods\fruit_flan.jpg	1	3	1	fruit_flan	1	B	0	0	53	0	NaN	0	0	187.5949173	187.6949444
45721.5	0.0999506	379	hunger	stimuli/foods\cabbage.jpg	1	3	1	cabbage	1	K	7	0	16	0	NaN	0	0	187.7449482	187.8448988
45759	0.0999874	380	hunger	stimuli/non_foods\non-food_inanimate_cupboard.jpg	1	3	1	non-food_inanimate_cupboard	0	F	3	0	177	0	NaN	0	0	187.8949113	187.9948987
45796.5	0.0999853	381	hunger	stimuli/foods\cooked_prawn.jpg	1	3	1	cooked_prawn	1	H	5	0	36	0	NaN	0	0	188.0449101	188.1448954
45834	0.0999895	382	hunger	stimuli/foods\taco.jpg	1	3	1	taco	1	S	13	0	274	0	NaN	0	0	188.1949071	188.2948966
45871.5	0.0999834	383	hunger	stimuli/foods\raisins.jpg	1	3	1	raisins	1	X	17	0	252	0	NaN	0	0	188.3449105	188.4448939
45909	0.0999863	384	hunger	stimuli/non_foods\non-food_inanimate_table.jpg	1	3	1	non-food_inanimate_table	0	F	3	0	217	0	NaN	0	0	188.4949082	188.5948945
45946.5	0.099988	385	hunger	stimuli/non_foods\non-food_animate_deer.jpg	1	3	1	non-food_animate_deer	0	G	4	0	105	0	NaN	0	0	188.6449044	188.7448924
45984	0.0999741	386	hunger	stimuli/non_foods\non-food_animate_horse.jpg	1	3	1	non-food_animate_horse	0	F	3	0	119	0	NaN	0	0	188.7949155	188.8948896
46021.5	0.0999742	387	hunger	stimuli/non_foods\non-food_animate_mammoth.jpg	1	3	1	non-food_animate_mammoth	0	K	7	0	128	0	NaN	0	0	188.9449156	189.0448898
46059	0.0999829	388	hunger	stimuli/foods\chocolate_chip_cookies.jpg	1	3	1	chocolate_chip_cookies	1	N	10	0	27	0	NaN	0	0	189.0949046	189.1948875
46096.5	0.0999887	389	hunger	stimuli/non_foods\non-food_animate_squirrel.jpg	1	3	1	non-food_animate_squirrel	0	Z	18	0	150	0	NaN	0	0	189.2449001	189.3448888
46134	0.0999912	390	hunger	stimuli/foods\bagel.jpg	1	3	1	bagel	1	G	4	0	6	0	NaN	0	0	189.3949159	189.4949071
46171.5	0.0999707	391	hunger	stimuli/foods\croissant.jpg	1	3	1	croissant	1	T	14	0	40	0	NaN	0	0	189.5449155	189.6448862
46209	0.0999863	392	hunger	stimuli/foods\fried_calamari.jpg	1	3	1	fried_calamari	1	S	13	0	50	0	NaN	0	0	189.6948969	189.7948832
46246.5	0.0999848	393	hunger	stimuli/non_foods\non-food_animate_iguana.jpg	1	3	1	non-food_animate_iguana	0	G	4	0	121	0	NaN	0	0	189.8448985	189.9448833
46284	0.0999868	394	hunger	stimuli/foods\frankfurter_and_provolone_salad.jpg	1	3	1	frankfurter_and_provolone_salad	1	J	6	0	49	0	NaN	0	0	189.9948935	190.0948803
46321.5	0.0999841	395	hunger	stimuli/foods\mortadella.jpg	1	3	1	mortadella	1	K	7	0	83	0	NaN	0	0	190.1448955	190.2448796
46359	0.0999821	396	hunger	stimuli/foods\cherry.jpg	1	3	1	cherry	1	T	14	0	23	0	NaN	0	0	190.294894	190.3948761
46396.5	0.0999887	397	hunger	stimuli/foods\donut.jpg	1	3	1	donut	1	W	16	0	44	0	NaN	0	0	190.4448902	190.5448789
46434	0.0999756	398	hunger	stimuli/non_foods\non-food_animate_peacock.jpg	1	3	1	non-food_animate_peacock	0	N	10	0	134	0	NaN	0	0	190.5949045	190.6948801
46471.5	0.0999867	399	hunger	stimuli/non_foods\non-food_animate_cat.jpg	1	3	1	non-food_animate_cat	0	V	15	0	98	0	NaN	0	0	190.7448887	190.8448754
46509	0.0999877	400	hunger	stimuli/non_foods\non-food_inanimate_towel.jpg	1	3	1	non-food_inanimate_towel	0	X	17	0	221	0	NaN	0	0	190.8948888	190.9948765
46546.5	0.099984	401	hunger	stimuli/foods\ginger_root.jpg	1	3	1	ginger_root	1	B	0	0	57	0	NaN	0	0	191.0448894	191.1448734
46584	0.0999899	402	hunger	stimuli/non_foods\non-food_inanimate_speakers.jpg	1	3	1	non-food_inanimate_speakers	0	M	9	0	212	0	NaN	0	0	191.1949004	191.2948903
46621.5	0.0999538	403	hunger	stimuli/non_foods\non-food_inanimate_stoplight.jpg	1	3	1	non-food_inanimate_stoplight	0	Z	18	0	214	0	NaN	0	0	191.344917	191.4448708
46659	0.0999839	404	hunger	stimuli/foods\rockmelon.jpg	1	3	1	rockmelon	1	B	0	0	262	0	NaN	0	0	191.4948857	191.5948696
46696.5	0.0999881	405	hunger	stimuli/foods\pasta_carbonara.jpg	1	3	1	pasta_carbonara	1	E	20	1	236	0	NaN	0	0	191.6448823	191.7448704
46734	0.099985	406	hunger	stimuli/foods\raw_sausage.jpg	1	3	1	raw_sausage	1	N	10	0	254	0	NaN	0	0	191.7948813	191.8948663
46771.5	0.0999883	407	hunger	stimuli/foods\tomato.jpg	1	3	1	tomato	1	Z	18	0	276	0	NaN	0	0	191.9448782	192.0448665
46809	0.0999859	408	hunger	stimuli/non_foods\non-food_inanimate_cap.jpg	1	3	1	non-food_inanimate_cap	0	R	12	0	171	1	NaN	0.4501856	1	192.0948799	192.1948658
46846.5	0.1000059	409	hunger	stimuli/non_foods\non-food_inanimate_protractor.jpg	1	3	1	non-food_inanimate_protractor	0	J	6	0	201	0	NaN	0	0	192.2448808	192.3448867
46884	0.0999668	410	hunger	stimuli/foods\carrot.jpg	1	3	1	carrot	1	F	3	0	19	0	NaN	0	0	192.3948969	192.4948637
46921.5	0.099983	411	hunger	stimuli/foods\radish.jpg	1	3	1	radish	1	N	10	0	251	0	NaN	0	0	192.5448777	192.6448607
46959	0.0999867	412	hunger	stimuli/non_foods\non-food_animate_sea_lion.jpg	1	3	1	non-food_animate_sea_lion	0	J	6	0	143	0	NaN	0	0	192.6948731	192.7948598
46996.5	0.0999853	413	hunger	stimuli/foods\ice_cream.jpg	1	3	1	ice_cream	1	D	2	0	68	0	NaN	0	0	192.8448755	192.9448608
47034	0.0999891	414	hunger	stimuli/non_foods\non-food_animate_cow.jpg	1	3	1	non-food_animate_cow	0	K	7	0	103	0	NaN	0	0	192.9948713	193.0948604
47071.5	0.0999629	415	hunger	stimuli/foods\clams.jpg	1	3	1	clams	1	S	13	0	32	0	NaN	0	0	193.1448918	193.2448547
47109	0.0999853	416	hunger	stimuli/non_foods\non-food_animate_ant.jpg	1	3	1	non-food_animate_ant	0	K	7	0	91	0	NaN	0	0	193.2948695	193.3948548
47146.5	0.0999893	417	hunger	stimuli/foods\chocolate_pudding.jpg	1	3	1	chocolate_pudding	1	L	8	0	29	0	NaN	0	0	193.4448656	193.5448549
47184	0.0999855	418	hunger	stimuli/foods\meatballs.jpg	1	3	1	meatballs	1	P	11	0	81	0	NaN	0	0	193.5948674	193.6948529
47221.5	0.0999799	419	hunger	stimuli/non_foods\non-food_animate_seal.jpg	1	3	1	non-food_animate_seal	0	K	7	0	146	0	NaN	0	0	193.7448728	193.8448527
47704.75	0.0999841	420	hunger	stimuli/foods\kiwi.jpg	1	4	1	kiwi	1	X	17	0	69	0	NaN	0	0	195.678191	195.7781751
47742.25	0.0999388	421	hunger	stimuli/non_foods\non-food_animate_ladybug.jpg	1	4	1	non-food_animate_ladybug	0	R	12	0	124	0	NaN	0	0	195.8282272	195.928166
47779.75	0.0999846	422	hunger	stimuli/foods\grapefruits.jpg	1	4	1	grapefruits	1	B	0	0	59	0	NaN	0	0	195.9781831	196.0781677
47817.25	0.0999713	423	hunger	stimuli/non_foods\non-food_animate_llama.jpg	1	4	1	non-food_animate_llama	0	X	17	0	127	0	NaN	0	0	196.1281934	196.2281647
47854.75	0.0999872	424	hunger	stimuli/non_foods\non-food_animate_polar_bear.jpg	1	4	1	non-food_animate_polar_bear	0	M	9	0	137	0	NaN	0	0	196.2781785	196.3781657
47892.25	0.0999854	425	hunger	stimuli/non_foods\non-food_animate_sea_turtle.jpg	1	4	1	non-food_animate_sea_turtle	0	K	7	0	144	0	NaN	0	0	196.4281828	196.5281682
47929.75	0.0999853	426	hunger	stimuli/non_foods\non-food_animate_kangaroo.jpg	1	4	1	non-food_animate_kangaroo	0	G	4	0	122	0	NaN	0	0	196.578177	196.6781623
47967.25	0.0999869	427	hunger	stimuli/non_foods\non-food_animate_eagle.jpg	1	4	1	non-food_animate_eagle	0	M	9	0	110	0	NaN	0	0	196.7281757	196.8281626
48004.75	0.0999823	428	hunger	stimuli/foods\mango.jpg	1	4	1	mango	1	D	2	0	80	0	NaN	0	0	196.8781778	196.9781601
48042.25	0.0999858	429	hunger	stimuli/non_foods\non-food_inanimate_scissors.jpg	1	4	1	non-food_inanimate_scissors	0	M	9	0	205	0	NaN	0	0	197.0281721	197.1281579
48079.75	0.0999824	430	hunger	stimuli/non_foods\non-food_inanimate_tent.jpg	1	4	1	non-food_inanimate_tent	0	R	12	0	219	0	NaN	0	0	197.1781755	197.2781579
48117.25	0.0999846	431	hunger	stimuli/non_foods\non-food_inanimate_lighter.jpg	1	4	1	non-food_inanimate_lighter	0	O	22	1	193	0	NaN	0	0	197.3281693	197.4281539
48154.75	0.1000031	432	hunger	stimuli/foods\lemon.jpg	1	4	1	lemon	1	N	10	0	72	0	NaN	0	0	197.4781704	197.5781735
48192.25	0.0999647	433	hunger	stimuli/non_foods\non-food_animate_young_girl.jpg	1	4	1	non-food_animate_young_girl	0	G	4	0	157	0	NaN	0	0	197.6281919	197.7281566
48229.75	0.0999871	434	hunger	stimuli/foods\hazelnuts.jpg	1	4	1	hazelnuts	1	R	12	0	65	0	NaN	0	0	197.778165	197.8781521
48267.25	0.0999865	435	hunger	stimuli/non_foods\non-food_inanimate_shell.jpg	1	4	1	non-food_inanimate_shell	0	J	6	0	206	0	NaN	0	0	197.9281662	198.0281527
48304.75	0.100003	436	hunger	stimuli/foods\red_cabbage.jpg	1	4	1	red_cabbage	1	K	7	0	256	0	NaN	0	0	198.0781678	198.1781708
48342.25	0.0999812	437	hunger	stimuli/non_foods\non-food_inanimate_short_sleeved_shirt.jpg	1	4	1	non-food_inanimate_short_sleeved_shirt	0	Z	18	0	207	0	NaN	0	0	198.2281667	198.3281479
48379.75	0.0999865	438	hunger	stimuli/non_foods\non-food_inanimate_pine_cone.jpg	1	4	1	non-food_inanimate_pine_cone	0	F	3	0	200	0	NaN	0	0	198.3781654	198.4781519
48417.25	0.0999874	439	hunger	stimuli/foods\pomegranate.jpg	1	4	1	pomegranate	1	V	15	0	244	0	NaN	0	0	198.5281606	198.628148
48454.75	0.0999662	440	hunger	stimuli/foods\chocolate_bar.jpg	1	4	1	chocolate_bar	1	S	13	0	26	0	NaN	0	0	198.6781814	198.7781476
48492.25	0.0999816	441	hunger	stimuli/non_foods\non-food_animate_Asian_man.jpg	1	4	1	non-food_animate_Asian_man	0	L	8	0	88	0	NaN	0	0	198.8281623	198.9281439
48529.75	0.0999832	442	hunger	stimuli/foods\cooked_ham.jpg	1	4	1	cooked_ham	1	C	1	0	35	0	NaN	0	0	198.9781584	199.0781416
48567.25	0.0999865	443	hunger	stimuli/foods\capsicum.jpg	1	4	1	capsicum	1	Z	18	0	18	0	NaN	0	0	199.1281583	199.2281448
48604.75	0.1000336	444	hunger	stimuli/foods\eggplant.jpg	1	4	1	eggplant	1	R	12	0	46	0	NaN	0	0	199.2781513	199.3781849
48642.25	0.0999499	445	hunger	stimuli/foods\lettuce.jpg	1	4	1	lettuce	1	L	8	0	75	0	NaN	0	0	199.4281932	199.5281431
48679.75	0.0999836	446	hunger	stimuli/non_foods\non-food_animate_monkey.jpg	1	4	1	non-food_animate_monkey	0	N	10	0	130	0	NaN	0	0	199.5781554	199.678139
48717.25	0.0999836	447	hunger	stimuli/non_foods\non-food_inanimate_hay.jpg	1	4	1	non-food_inanimate_hay	0	X	17	0	187	0	NaN	0	0	199.728154	199.8281376
48754.75	0.0999836	448	hunger	stimuli/foods\strawberry.jpg	1	4	1	strawberry	1	J	6	0	272	0	NaN	0	0	199.8781526	199.9781362
48792.25	0.0999818	449	hunger	stimuli/foods\pancakes.jpg	1	4	1	pancakes	1	V	15	0	234	0	NaN	0	0	200.0281529	200.1281347
48829.75	0.0999867	450	hunger	stimuli/foods\potato_and_green_bean_salad.jpg	1	4	1	potato_and_green_bean_salad	1	J	6	0	246	0	NaN	0	0	200.178149	200.2781357
48867.25	0.0999846	451	hunger	stimuli/foods\stew_with_potatoes_and_carrots.jpg	1	4	1	stew_with_potatoes_and_carrots	1	N	10	0	271	0	NaN	0	0	200.3281528	200.4281374
48904.75	0.099974	452	hunger	stimuli/non_foods\non-food_inanimate_briefcase.jpg	1	4	1	non-food_inanimate_briefcase	0	R	12	0	163	0	NaN	0	0	200.4781598	200.5781338
48942.25	0.0999893	453	hunger	stimuli/non_foods\non-food_animate_green_bug.jpg	1	4	1	non-food_animate_green_bug	0	D	2	0	118	0	NaN	0	0	200.6281436	200.7281329
48979.75	0.0999837	454	hunger	stimuli/non_foods\non-food_inanimate_jeans.jpg	1	4	1	non-food_inanimate_jeans	0	G	4	0	191	0	NaN	0	0	200.7781464	200.8781301
49017.25	0.0999901	455	hunger	stimuli/non_foods\non-food_inanimate_couch.jpg	1	4	1	non-food_inanimate_couch	0	T	14	0	176	0	NaN	0	0	200.9281425	201.0281326
49054.75	0.1000172	456	hunger	stimuli/foods\rice.jpg	1	4	1	rice	1	R	12	0	257	0	NaN	0	0	201.0781569	201.1781741
49092.25	0.0999685	457	hunger	stimuli/non_foods\non-food_inanimate_ring.jpg	1	4	1	non-food_inanimate_ring	0	E	20	1	203	0	NaN	0	0	201.2281571	201.3281256
49129.75	0.0999995	458	hunger	stimuli/non_foods\non-food_animate_fox.jpg	1	4	1	non-food_animate_fox	0	K	7	0	112	0	NaN	0	0	201.3781393	201.4781388
49167.25	0.0999866	459	hunger	stimuli/foods\salmon.jpg	1	4	1	salmon	1	M	9	0	264	1	NaN	0.3918335	1	201.5281395	201.6281261
49204.75	0.0999848	460	hunger	stimuli/non_foods\non-food_animate_mouse.jpg	1	4	1	non-food_animate_mouse	0	F	3	0	131	0	NaN	0	0	201.6781383	201.7781231
49242.25	0.0999834	461	hunger	stimuli/non_foods\non-food_animate_skunk.jpg	1	4	1	non-food_animate_skunk	0	G	4	0	147	0	NaN	0	0	201.8281405	201.9281239
49279.75	0.0999849	462	hunger	stimuli/foods\dates.jpg	1	4	1	dates	1	B	0	0	43	0	NaN	0	0	201.9781337	202.0781186
49317.25	0.0999879	463	hunger	stimuli/foods\asparagus.jpg	1	4	1	asparagus	1	J	6	0	4	0	NaN	0	0	202.128133	202.2281209
49354.75	0.0999629	464	hunger	stimuli/foods\lasagna.jpg	1	4	1	lasagna	1	P	11	0	71	0	NaN	0	0	202.2781539	202.3781168
49392.25	0.0999858	465	hunger	stimuli/non_foods\non-food_inanimate_stapler.jpg	1	4	1	non-food_inanimate_stapler	0	R	12	0	213	0	NaN	0	0	202.428132	202.5281178
49429.75	0.0999874	466	hunger	stimuli/non_foods\non-food_inanimate_chair.jpg	1	4	1	non-food_inanimate_chair	0	H	5	0	172	0	NaN	0	0	202.5781295	202.6781169
49467.25	0.0999787	467	hunger	stimuli/non_foods\non-food_animate_slug.jpg	1	4	1	non-food_animate_slug	0	L	8	0	148	0	NaN	0	0	202.7281291	202.8281078
49504.75	0.1000028	468	hunger	stimuli/foods\steak.jpg	1	4	1	steak	1	P	11	0	270	0	NaN	0	0	202.8781346	202.9781374
49542.25	0.0999509	469	hunger	stimuli/non_foods\non-food_inanimate_teddy_bear.jpg	1	4	1	non-food_inanimate_teddy_bear	0	C	1	0	218	0	NaN	0	0	203.0281623	203.1281132
49579.75	0.0999875	470	hunger	stimuli/foods\coffee_beans.jpg	1	4	1	coffee_beans	1	G	4	0	34	0	NaN	0	0	203.1781242	203.2781117
49617.25	0.0999828	471	hunger	stimuli/non_foods\non-food_inanimate_leaf.jpg	1	4	1	non-food_inanimate_leaf	0	P	11	0	192	0	NaN	0	0	203.328126	203.4281088
49654.75	0.0999838	472	hunger	stimuli/non_foods\non-food_animate_baby_crawling.jpg	1	4	1	non-food_animate_baby_crawling	0	Z	18	0	92	0	NaN	0	0	203.478123	203.5781068
49692.25	0.0999881	473	hunger	stimuli/non_foods\non-food_inanimate_folding_chair.jpg	1	4	1	non-food_inanimate_folding_chair	0	D	2	0	182	0	NaN	0	0	203.6281184	203.7281065
49729.75	0.0999836	474	hunger	stimuli/non_foods\non-food_animate_tortoise.jpg	1	4	1	non-food_animate_tortoise	0	T	14	0	153	0	NaN	0	0	203.7781232	203.8781068
49767.25	0.1000112	475	hunger	stimuli/non_foods\non-food_animate_dragonfly.jpg	1	4	1	non-food_animate_dragonfly	0	N	10	0	108	0	NaN	0	0	203.9281177	204.0281289
49804.75	0.0999662	476	hunger	stimuli/foods\banana.jpg	1	4	1	banana	1	Z	18	0	9	0	NaN	0	0	204.0781386	204.1781048
49842.25	0.0999865	477	hunger	stimuli/foods\prawn.jpg	1	4	1	prawn	1	M	9	0	249	0	NaN	0	0	204.2281142	204.3281007
49879.75	0.0999867	478	hunger	stimuli/foods\baked_cod_with_carrots_and_green_beans.jpg	1	4	1	baked_cod_with_carrots_and_green_beans	1	B	0	0	7	0	NaN	0	0	204.3781163	204.478103
49917.25	0.0999873	479	hunger	stimuli/foods\blackberry.jpg	1	4	1	blackberry	1	W	16	0	11	0	NaN	0	0	204.5281169	204.6281042
49954.75	0.1000049	480	hunger	stimuli/non_foods\non-food_inanimate_broom.jpg	1	4	1	non-food_inanimate_broom	0	T	14	0	164	0	NaN	0	0	204.6781109	204.7781158
49992.25	0.0999635	481	hunger	stimuli/foods\honey.jpg	1	4	1	honey	1	V	15	0	66	0	NaN	0	0	204.8281353	204.9280988
50029.75	0.0999874	482	hunger	stimuli/non_foods\non-food_animate_parrot.jpg	1	4	1	non-food_animate_parrot	0	H	5	0	133	0	NaN	0	0	204.9781104	205.0780978
50067.25	0.0999835	483	hunger	stimuli/foods\potato_chips.jpg	1	4	1	potato_chips	1	W	16	0	247	0	NaN	0	0	205.1281111	205.2280946
50104.75	0.0999846	484	hunger	stimuli/foods\spaghetti_with_meat_sauce.jpg	1	4	1	spaghetti_with_meat_sauce	1	B	0	0	267	0	NaN	0	0	205.2781104	205.378095
50142.25	0.099989	485	hunger	stimuli/non_foods\non-food_animate_hummingbird.jpg	1	4	1	non-food_animate_hummingbird	0	G	4	0	120	0	NaN	0	0	205.428107	205.528096
50179.75	0.0999851	486	hunger	stimuli/foods\grilled_chicken_breast.jpg	1	4	1	grilled_chicken_breast	1	J	6	0	63	0	NaN	0	0	205.5781088	205.6780939
50217.25	0.0999996	487	hunger	stimuli/foods\hotdog.jpg	1	4	1	hotdog	1	R	12	0	67	0	NaN	0	0	205.7281085	205.8281081
50254.75	0.0999751	488	hunger	stimuli/foods\mandarin.jpg	1	4	1	mandarin	1	W	16	0	79	0	NaN	0	0	205.8781145	205.9780896
50292.25	0.0999892	489	hunger	stimuli/foods\red_beans.jpg	1	4	1	red_beans	1	L	8	0	255	0	NaN	0	0	206.0281021	206.1280913
50329.75	0.0999851	490	hunger	stimuli/foods\chestnut.jpg	1	4	1	chestnut	1	S	13	0	24	0	NaN	0	0	206.178105	206.2780901
50367.25	0.0999892	491	hunger	stimuli/non_foods\non-food_animate_yellow_bug.jpg	1	4	1	non-food_animate_yellow_bug	0	X	17	0	155	0	NaN	0	0	206.3281003	206.4280895
50404.75	0.09996	492	hunger	stimuli/foods\watermelon.jpg	1	4	1	watermelon	1	J	6	0	279	0	NaN	0	0	206.4781267	206.5780867
50442.25	0.0999808	493	hunger	stimuli/non_foods\non-food_animate_clown.jpg	1	4	1	non-food_animate_clown	0	V	15	0	102	0	NaN	0	0	206.6281009	206.7280817
50479.75	0.0999849	494	hunger	stimuli/foods\broccoli.jpg	1	4	1	broccoli	1	R	12	0	13	0	NaN	0	0	206.7780972	206.8780821
50517.25	0.0999801	495	hunger	stimuli/non_foods\non-food_inanimate_bicycle.jpg	1	4	1	non-food_inanimate_bicycle	0	W	16	0	161	0	NaN	0	0	206.9281015	207.0280816
50554.75	0.0999868	496	hunger	stimuli/foods\mussels.jpg	1	4	1	mussels	1	P	11	0	86	0	NaN	0	0	207.0780939	207.1780807
50592.25	0.0999859	497	hunger	stimuli/foods\pumpkin.jpg	1	4	1	pumpkin	1	R	12	0	250	0	NaN	0	0	207.2280968	207.3280827
50629.75	0.0999899	498	hunger	stimuli/foods\lamb_chops.jpg	1	4	1	lamb_chops	1	B	0	0	70	0	NaN	0	0	207.3780884	207.4780783
50667.25	0.0999999	499	hunger	stimuli/non_foods\non-food_inanimate_highlighter.jpg	1	4	1	non-food_inanimate_highlighter	0	Z	18	0	189	0	NaN	0	0	207.5280923	207.6280922
50704.75	0.0999892	500	hunger	stimuli/foods\green_beans.jpg	1	4	1	green_beans	1	N	10	0	61	0	NaN	0	0	207.678081	207.7780702
50742.25	0.0999885	501	hunger	stimuli/foods\fennel.jpg	1	4	1	fennel	1	W	16	0	47	0	NaN	0	0	207.8280883	207.9280768
50779.75	0.0999837	502	hunger	stimuli/foods\savory_pie.jpg	1	4	1	savory_pie	1	V	15	0	265	0	NaN	0	0	207.9780901	208.0780738
50817.25	0.0999792	503	hunger	stimuli/foods\baked_lamb_with_potatoes.jpg	1	4	1	baked_lamb_with_potatoes	1	Z	18	0	8	0	NaN	0	0	208.1280833	208.2280625
50854.75	0.0999452	504	hunger	stimuli/non_foods\non-food_animate_Causasian_man.jpg	1	4	1	non-food_animate_Causasian_man	0	T	14	0	89	0	NaN	0	0	208.2781287	208.3780739
50892.25	0.0999878	505	hunger	stimuli/foods\oven-roasted_tomatoes.jpg	1	4	1	oven-roasted_tomatoes	1	I	21	1	232	0	NaN	0	0	208.4280822	208.52807
50929.75	0.0999884	506	hunger	stimuli/non_foods\non-food_animate_snail.jpg	1	4	1	non-food_animate_snail	0	W	16	0	149	0	NaN	0	0	208.5780843	208.6780727
50967.25	0.0999871	507	hunger	stimuli/foods\orange.jpg	1	4	1	orange	1	D	2	0	230	0	NaN	0	0	208.7280829	208.82807
51004.75	0.0999875	508	hunger	stimuli/foods\risotto_with_peas_and_asparagus_tips.jpg	1	4	1	risotto_with_peas_and_asparagus_tips	1	N	10	0	259	0	NaN	0	0	208.8780803	208.9780678
51042.25	0.0999928	509	hunger	stimuli/non_foods\non-food_animate_student_female.jpg	1	4	1	non-food_animate_student_female	0	H	5	0	151	1	NaN	0.6085434	1	209.0280739	209.1280667
51079.75	0.0999858	510	hunger	stimuli/non_foods\non-food_animate_seahorse.jpg	1	4	1	non-food_animate_seahorse	0	L	8	0	145	0	NaN	0	0	209.1780769	209.2780627
51117.25	0.0999846	511	hunger	stimuli/non_foods\non-food_inanimate_tulip.jpg	1	4	1	non-food_inanimate_tulip	0	Z	18	0	224	0	NaN	0	0	209.3280773	209.4280619
51154.75	0.099985	512	hunger	stimuli/foods\almonds.jpg	1	4	1	almonds	1	F	3	0	0	0	NaN	0	0	209.478079	209.578064
51192.25	0.0999866	513	hunger	stimuli/foods\brie.jpg	1	4	1	brie	1	J	6	0	12	0	NaN	0	0	209.6280741	209.7280607
51229.75	0.0999853	514	hunger	stimuli/foods\cupcake.jpg	1	4	1	cupcake	1	H	5	0	42	0	NaN	0	0	209.778073	209.8780583
51267.25	0.1000083	515	hunger	stimuli/foods\avocado.jpg	1	4	1	avocado	1	M	9	0	5	0	NaN	0	0	209.928075	210.0280833
51304.75	0.0999351	516	hunger	stimuli/foods\wafer.jpg	1	4	1	wafer	1	P	11	0	277	0	NaN	0	0	210.0781209	210.178056
51342.25	0.0999861	517	hunger	stimuli/foods\cracker.jpg	1	4	1	cracker	1	D	2	0	38	0	NaN	0	0	210.2280699	210.328056
51379.75	0.099988	518	hunger	stimuli/foods\toasted_bread_with_tomatoes.jpg	1	4	1	toasted_bread_with_tomatoes	1	R	12	0	275	0	NaN	0	0	210.3780705	210.4780585
51417.25	0.0999917	519	hunger	stimuli/non_foods\non-food_animate_duck.jpg	1	4	1	non-food_animate_duck	0	Z	18	0	109	0	NaN	0	0	210.5280651	210.6280568
51454.75	0.0999799	520	hunger	stimuli/foods\coconut.jpg	1	4	1	coconut	1	B	0	0	33	0	NaN	0	0	210.6780689	210.7780488
51492.25	0.0999891	521	hunger	stimuli/foods\artichoke.jpg	1	4	1	artichoke	1	L	8	0	3	0	NaN	0	0	210.8280621	210.9280512
51529.75	0.0999888	522	hunger	stimuli/foods\apricot.jpg	1	4	1	apricot	1	P	11	0	2	0	NaN	0	0	210.9780632	211.078052
51567.25	0.0999699	523	hunger	stimuli/foods\swordfish.jpg	1	4	1	swordfish	1	B	0	0	273	0	NaN	0	0	211.1280799	211.2280498
51604.75	0.0999853	524	hunger	stimuli/non_foods\non-food_inanimate_orchid.jpg	1	4	1	non-food_inanimate_orchid	0	D	2	0	198	0	NaN	0	0	211.2780621	211.3780474
51642.25	0.099984	525	hunger	stimuli/non_foods\non-food_inanimate_hammer.jpg	1	4	1	non-food_inanimate_hammer	0	S	13	0	186	0	NaN	0	0	211.4280632	211.5280472
51679.75	0.0999864	526	hunger	stimuli/foods\green_olives.jpg	1	4	1	green_olives	1	O	22	1	62	0	NaN	0	0	211.5780584	211.6780448
51717.25	0.100006	527	hunger	stimuli/non_foods\non-food_animate_raccoon.jpg	1	4	1	non-food_animate_raccoon	0	F	3	0	139	0	NaN	0	0	211.7280553	211.8280613
51754.75	0.099962	528	hunger	stimuli/foods\lime.jpg	1	4	1	lime	1	X	17	0	76	0	NaN	0	0	211.8780808	211.9780428
51792.25	0.0999853	529	hunger	stimuli/non_foods\non-food_inanimate_bed.jpg	1	4	1	non-food_inanimate_bed	0	T	14	0	160	0	NaN	0	0	212.0280571	212.1280424
51829.75	0.0999838	530	hunger	stimuli/non_foods\non-food_animate_woman.jpg	1	4	1	non-food_animate_woman	0	P	11	0	154	1	NaN	0.6918285	1	212.1780582	212.278042
51867.25	0.0999858	531	hunger	stimuli/foods\oregano.jpg	1	4	1	oregano	1	W	16	0	231	0	NaN	0	0	212.3280534	212.4280392
51904.75	0.0999849	532	hunger	stimuli/non_foods\non-food_inanimate_toilet.jpg	1	4	1	non-food_inanimate_toilet	0	B	0	0	220	0	NaN	0	0	212.4780538	212.5780387
51942.25	0.0999834	533	hunger	stimuli/foods\papaya.jpg	1	4	1	papaya	1	V	15	0	235	0	NaN	0	0	212.6280551	212.7280385
51979.75	0.0999842	534	hunger	stimuli/foods\rice_cake.jpg	1	4	1	rice_cake	1	S	13	0	258	0	NaN	0	0	212.7780504	212.8780346
52017.25	0.0999722	535	hunger	stimuli/foods\brussel_sprouts.jpg	1	4	1	brussel_sprouts	1	Z	18	0	15	0	NaN	0	0	212.9280646	213.0280368
52054.75	0.099987	536	hunger	stimuli/non_foods\non-food_animate_bat.jpg	1	4	1	non-food_animate_bat	0	D	2	0	94	0	NaN	0	0	213.0780465	213.1780335
52092.25	0.0999898	537	hunger	stimuli/non_foods\non-food_inanimate_waterlily.jpg	1	4	1	non-food_inanimate_waterlily	0	G	4	0	226	0	NaN	0	0	213.2280448	213.3280346
52129.75	0.0999889	538	hunger	stimuli/non_foods\non-food_animate_owl.jpg	1	4	1	non-food_animate_owl	0	D	2	0	132	0	NaN	0	0	213.378048	213.4780369
52167.25	0.1000204	539	hunger	stimuli/foods\raw_ham.jpg	1	4	1	raw_ham	1	F	3	0	253	0	NaN	0	0	213.5280546	213.628075
52204.75	0.0999699	540	hunger	stimuli/non_foods\non-food_inanimate_horn.jpg	1	4	1	non-food_inanimate_horn	0	K	7	0	190	0	NaN	0	0	213.67806	213.7780299
52242.25	0.1000045	541	hunger	stimuli/non_foods\non-food_inanimate_guitar.jpg	1	4	1	non-food_inanimate_guitar	0	F	3	0	185	0	NaN	0	0	213.8280421	213.9280466
52279.75	0.0999909	542	hunger	stimuli/non_foods\non-food_animate_donkey.jpg	1	4	1	non-food_animate_donkey	0	M	9	0	107	0	NaN	0	0	213.9780348	214.0780257
52317.25	0.0999848	543	hunger	stimuli/non_foods\non-food_inanimate_button.jpg	1	4	1	non-food_inanimate_button	0	D	2	0	168	0	NaN	0	0	214.1280443	214.2280291
52354.75	0.0999844	544	hunger	stimuli/foods\minestrone_soup.jpg	1	4	1	minestrone_soup	1	P	11	0	82	0	NaN	0	0	214.2780383	214.3780227
52392.25	0.0999873	545	hunger	stimuli/non_foods\non-food_animate_porcupine.jpg	1	4	1	non-food_animate_porcupine	0	B	0	0	138	0	NaN	0	0	214.4280365	214.5280238
52429.75	0.0999819	546	hunger	stimuli/non_foods\non-food_animate_ram.jpg	1	4	1	non-food_animate_ram	0	K	7	0	140	0	NaN	0	0	214.5780368	214.6780187
52467.25	0.0999878	547	hunger	stimuli/non_foods\non-food_animate_baby_sitting.jpg	1	4	1	non-food_animate_baby_sitting	0	C	1	0	93	0	NaN	0	0	214.7280331	214.8280209
52504.75	0.0999842	548	hunger	stimuli/non_foods\non-food_inanimate_nettle.jpg	1	4	1	non-food_inanimate_nettle	0	V	15	0	197	0	NaN	0	0	214.8780408	214.978025
52542.25	0.099985	549	hunger	stimuli/foods\lollies.jpg	1	4	1	lollies	1	C	1	0	78	0	NaN	0	0	215.0280336	215.1280186
52579.75	0.099982	550	hunger	stimuli/foods\pork_and_rice.jpg	1	4	1	pork_and_rice	1	G	4	0	245	0	NaN	0	0	215.1780357	215.2780177
52617.25	0.0999961	551	hunger	stimuli/foods\cream_donuts.jpg	1	4	1	cream_donuts	1	X	17	0	39	0	NaN	0	0	215.3280443	215.4280404
52654.75	0.0999529	552	hunger	stimuli/non_foods\non-food_inanimate_tree.jpg	1	4	1	non-food_inanimate_tree	0	J	6	0	223	0	NaN	0	0	215.4780619	215.5780148
52692.25	0.0999858	553	hunger	stimuli/non_foods\non-food_inanimate_alarm_clock.jpg	1	4	1	non-food_inanimate_alarm_clock	0	P	11	0	158	0	NaN	0	0	215.6280307	215.7280165
52729.75	0.0999835	554	hunger	stimuli/non_foods\non-food_animate_chicken.jpg	1	4	1	non-food_animate_chicken	0	V	15	0	101	0	NaN	0	0	215.7780273	215.8780108
52767.25	0.0999843	555	hunger	stimuli/non_foods\non-food_inanimate_construction_helment.jpg	1	4	1	non-food_inanimate_construction_helment	0	M	9	0	175	0	NaN	0	0	215.9280273	216.0280116
52804.75	0.0999903	556	hunger	stimuli/foods\fries.jpg	1	4	1	fries	1	P	11	0	52	0	NaN	0	0	216.0780235	216.1780138
52842.25	0.0999856	557	hunger	stimuli/foods\lemon_meringue_pie.jpg	1	4	1	lemon_meringue_pie	1	B	0	0	73	0	NaN	0	0	216.2280236	216.3280092
52879.75	0.1000107	558	hunger	stimuli/non_foods\non-food_animate_bee.jpg	1	4	1	non-food_animate_bee	0	K	7	0	95	0	NaN	0	0	216.3780231	216.4780338
52917.25	0.0999647	559	hunger	stimuli/foods\peas.jpg	1	4	1	peas	1	Z	18	0	240	0	NaN	0	0	216.528041	216.6280057
53567.25	0.0999765	560	hunger	stimuli/foods\grapefruits.jpg	1	5	1	grapefruits	1	W	16	0	59	0	NaN	0	0	219.1280096	219.2279861
53604.75	0.0999632	561	hunger	stimuli/foods\raw_sausage.jpg	1	5	1	raw_sausage	1	X	17	0	254	0	NaN	0	0	219.2780225	219.3779857
53642.25	0.0999863	562	hunger	stimuli/foods\banana.jpg	1	5	1	banana	1	S	13	0	9	0	NaN	0	0	219.4279994	219.5279857
53679.75	0.0999694	563	hunger	stimuli/foods\dates.jpg	1	5	1	dates	1	W	16	0	43	0	NaN	0	0	219.5780166	219.677986
53717.25	0.0999804	564	hunger	stimuli/non_foods\non-food_animate_pigeon.jpg	1	5	1	non-food_animate_pigeon	0	G	4	0	136	0	NaN	0	0	219.7279991	219.8279795
53754.75	0.0999868	565	hunger	stimuli/non_foods\non-food_animate_Causasian_man.jpg	1	5	1	non-food_animate_Causasian_man	0	N	10	0	89	0	NaN	0	0	219.877994	219.9779808
53792.25	0.0999932	566	hunger	stimuli/non_foods\non-food_inanimate_lighter.jpg	1	5	1	non-food_inanimate_lighter	0	M	9	0	193	0	NaN	0	0	220.0279955	220.1279887
53829.75	0.0999979	567	hunger	stimuli/non_foods\non-food_inanimate_desk.jpg	1	5	1	non-food_inanimate_desk	0	D	2	0	178	0	NaN	0	0	220.1779994	220.2779973
53867.25	0.0999605	568	hunger	stimuli/foods\risotto_with_zucchini.jpg	1	5	1	risotto_with_zucchini	1	L	8	0	260	0	NaN	0	0	220.3280183	220.4279788
53904.75	0.0999858	569	hunger	stimuli/non_foods\non-food_animate_gorilla.jpg	1	5	1	non-food_animate_gorilla	0	H	5	0	116	0	NaN	0	0	220.4779917	220.5779775
53942.25	0.0999833	570	hunger	stimuli/non_foods\non-food_inanimate_towel.jpg	1	5	1	non-food_inanimate_towel	0	Z	18	0	221	0	NaN	0	0	220.6279909	220.7279742
53979.75	0.0999823	571	hunger	stimuli/foods\orange.jpg	1	5	1	orange	1	N	10	0	230	0	NaN	0	0	220.7779914	220.8779737
54017.25	0.0999803	572	hunger	stimuli/foods\taco.jpg	1	5	1	taco	1	V	15	0	274	0	NaN	0	0	220.9279899	221.0279702
54054.75	0.0999897	573	hunger	stimuli/foods\asparagus.jpg	1	5	1	asparagus	1	R	12	0	4	0	NaN	0	0	221.0779842	221.1779739
54092.25	0.1000046	574	hunger	stimuli/foods\apricot.jpg	1	5	1	apricot	1	K	7	0	2	0	NaN	0	0	221.2279864	221.327991
54129.75	0.0999725	575	hunger	stimuli/non_foods\non-food_inanimate_folding_chair.jpg	1	5	1	non-food_inanimate_folding_chair	0	X	17	0	182	0	NaN	0	0	221.3779981	221.4779706
54167.25	0.0999865	576	hunger	stimuli/foods\capsicum.jpg	1	5	1	capsicum	1	Z	18	0	18	0	NaN	0	0	221.5279823	221.6279688
54204.75	0.0999847	577	hunger	stimuli/foods\savory_pie.jpg	1	5	1	savory_pie	1	N	10	0	265	0	NaN	0	0	221.6779827	221.7779674
54242.25	0.0999875	578	hunger	stimuli/foods\lamb_chops.jpg	1	5	1	lamb_chops	1	M	9	0	70	0	NaN	0	0	221.827979	221.9279665
54279.75	0.0999854	579	hunger	stimuli/foods\fried_zucchini.jpg	1	5	1	fried_zucchini	1	O	22	1	51	0	NaN	0	0	221.9779822	222.0779676
54317.25	0.0999736	580	hunger	stimuli/non_foods\non-food_animate_cow.jpg	1	5	1	non-food_animate_cow	0	R	12	0	103	0	NaN	0	0	222.1279918	222.2279654
54354.75	0.0999866	581	hunger	stimuli/foods\pork_and_rice.jpg	1	5	1	pork_and_rice	1	H	5	0	245	0	NaN	0	0	222.2779762	222.3779628
54392.25	0.0999844	582	hunger	stimuli/non_foods\non-food_inanimate_shell.jpg	1	5	1	non-food_inanimate_shell	0	N	10	0	206	0	NaN	0	0	222.4279793	222.5279637
54429.75	0.0999845	583	hunger	stimuli/non_foods\non-food_inanimate_hay.jpg	1	5	1	non-food_inanimate_hay	0	R	12	0	187	0	NaN	0	0	222.5779748	222.6779593
54467.25	0.0999878	584	hunger	stimuli/foods\mandarin.jpg	1	5	1	mandarin	1	D	2	0	79	0	NaN	0	0	222.7279729	222.8279607
54504.75	0.099984	585	hunger	stimuli/foods\spaghetti_with_meat_sauce.jpg	1	5	1	spaghetti_with_meat_sauce	1	J	6	0	267	0	NaN	0	0	222.8779743	222.9779583
54542.25	0.1000173	586	hunger	stimuli/foods\chestnut.jpg	1	5	1	chestnut	1	S	13	0	24	0	NaN	0	0	223.0279679	223.1279852
54579.75	0.0999869	587	hunger	stimuli/foods\avocado.jpg	1	5	1	avocado	1	M	9	0	5	0	NaN	0	0	223.1779711	223.277958
54617.25	0.0999845	588	hunger	stimuli/non_foods\non-food_inanimate_cap.jpg	1	5	1	non-food_inanimate_cap	0	V	15	0	171	0	NaN	0	0	223.327967	223.4279515
54654.75	0.0999875	589	hunger	stimuli/foods\waffle.jpg	1	5	1	waffle	1	R	12	0	278	0	NaN	0	0	223.477968	223.5779555
54692.25	0.0999947	590	hunger	stimuli/foods\rice_cake.jpg	1	5	1	rice_cake	1	X	17	0	258	0	NaN	0	0	223.6279689	223.7279636
54729.75	0.0999405	591	hunger	stimuli/non_foods\non-food_inanimate_grass.jpg	1	5	1	non-food_inanimate_grass	0	S	13	0	184	0	NaN	0	0	223.7780089	223.8779494
54767.25	0.0999791	592	hunger	stimuli/foods\clams.jpg	1	5	1	clams	1	J	6	0	32	0	NaN	0	0	223.9279729	224.027952
54804.75	0.0999762	593	hunger	stimuli/non_foods\non-food_inanimate_gloves.jpg	1	5	1	non-food_inanimate_gloves	0	F	3	0	183	0	NaN	0	0	224.0779705	224.1779467
54842.25	0.0999677	594	hunger	stimuli/foods\hamburger.jpg	1	5	1	hamburger	1	R	12	0	64	0	NaN	0	0	224.2279601	224.3279278
54879.75	0.0999225	595	hunger	stimuli/non_foods\non-food_animate_bat.jpg	1	5	1	non-food_animate_bat	0	B	0	0	94	0	NaN	0	0	224.3780287	224.4779512
54917.25	0.0999857	596	hunger	stimuli/foods\potato_chips.jpg	1	5	1	potato_chips	1	R	12	0	247	0	NaN	0	0	224.5279635	224.6279492
54954.75	0.1000216	597	hunger	stimuli/non_foods\non-food_inanimate_alarm_clock.jpg	1	5	1	non-food_inanimate_alarm_clock	0	V	15	0	158	0	NaN	0	0	224.677955	224.7779766
54992.25	0.0999851	598	hunger	stimuli/non_foods\non-food_inanimate_couch.jpg	1	5	1	non-food_inanimate_couch	0	C	1	0	176	0	NaN	0	0	224.8279582	224.9279433
55029.75	0.09998	599	hunger	stimuli/non_foods\non-food_animate_mammoth.jpg	1	5	1	non-food_animate_mammoth	0	V	15	0	128	0	NaN	0	0	224.9779628	225.0779428
55067.25	0.0999837	600	hunger	stimuli/foods\croissant.jpg	1	5	1	croissant	1	X	17	0	40	0	NaN	0	0	225.1279566	225.2279403
55104.75	0.0999859	601	hunger	stimuli/foods\peas.jpg	1	5	1	peas	1	L	8	0	240	0	NaN	0	0	225.2779548	225.3779407
55142.25	0.0999922	602	hunger	stimuli/non_foods\non-food_inanimate_table.jpg	1	5	1	non-food_inanimate_table	0	W	16	0	217	0	NaN	0	0	225.4279534	225.5279456
55179.75	0.0999422	603	hunger	stimuli/non_foods\non-food_animate_butterfly.jpg	1	5	1	non-food_animate_butterfly	0	Z	18	0	96	0	NaN	0	0	225.5779953	225.6779375
55217.25	0.09999	604	hunger	stimuli/non_foods\non-food_animate_millipede.jpg	1	5	1	non-food_animate_millipede	0	W	16	0	129	0	NaN	0	0	225.7279504	225.8279404
55254.75	0.0999846	605	hunger	stimuli/non_foods\non-food_animate_swan.jpg	1	5	1	non-food_animate_swan	0	V	15	0	152	0	NaN	0	0	225.8779513	225.9779359
55292.25	0.0999865	606	hunger	stimuli/foods\fries.jpg	1	5	1	fries	1	J	6	0	52	0	NaN	0	0	226.0279469	226.1279334
55329.75	0.0999846	607	hunger	stimuli/non_foods\non-food_inanimate_cupboard.jpg	1	5	1	non-food_inanimate_cupboard	0	N	10	0	177	0	NaN	0	0	226.1779481	226.2779327
55367.25	0.099986	608	hunger	stimuli/non_foods\non-food_animate_kangaroo.jpg	1	5	1	non-food_animate_kangaroo	0	D	2	0	122	0	NaN	0	0	226.3279443	226.4279303
55404.75	0.0999889	609	hunger	stimuli/foods\risotto_with_peas_and_asparagus_tips.jpg	1	5	1	risotto_with_peas_and_asparagus_tips	1	F	3	0	259	0	NaN	0	0	226.4779438	226.5779327
55442.25	0.0999631	610	hunger	stimuli/non_foods\non-food_animate_tortoise.jpg	1	5	1	non-food_animate_tortoise	0	W	16	0	153	0	NaN	0	0	226.6279666	226.7279297
55479.75	0.0999865	611	hunger	stimuli/foods\cereal.jpg	1	5	1	cereal	1	T	14	0	22	0	NaN	0	0	226.7779409	226.8779274
55517.25	0.0999649	612	hunger	stimuli/non_foods\non-food_inanimate_briefcase.jpg	1	5	1	non-food_inanimate_briefcase	0	R	12	0	163	0	NaN	0	0	226.927964	227.0279289
55554.75	0.0999838	613	hunger	stimuli/foods\cream_donuts.jpg	1	5	1	cream_donuts	1	H	5	0	39	0	NaN	0	0	227.0779387	227.1779225
55592.25	0.1000197	614	hunger	stimuli/non_foods\non-food_inanimate_construction_helment.jpg	1	5	1	non-food_inanimate_construction_helment	0	K	7	0	175	0	NaN	0	0	227.2279353	227.327955
55629.75	0.0999456	615	hunger	stimuli/foods\coffee_beans.jpg	1	5	1	coffee_beans	1	M	9	0	34	0	NaN	0	0	227.3779796	227.4779252
55667.25	0.099985	616	hunger	stimuli/foods\linguine_with_clams.jpg	1	5	1	linguine_with_clams	1	G	4	0	77	0	NaN	0	0	227.5279364	227.6279214
55704.75	0.0999904	617	hunger	stimuli/non_foods\non-food_animate_runner.jpg	1	5	1	non-food_animate_runner	0	Z	18	0	142	0	NaN	0	0	227.6779304	227.7779208
55742.25	0.0999813	618	hunger	stimuli/non_foods\non-food_animate_giraffe.jpg	1	5	1	non-food_animate_giraffe	0	L	8	0	115	0	NaN	0	0	227.8279379	227.9279192
55779.75	0.099989	619	hunger	stimuli/foods\watermelon.jpg	1	5	1	watermelon	1	B	0	0	279	0	NaN	0	0	227.9779305	228.0779195
55817.25	0.0999833	620	hunger	stimuli/non_foods\non-food_animate_porcupine.jpg	1	5	1	non-food_animate_porcupine	0	J	6	0	138	0	NaN	0	0	228.1279357	228.227919
55854.75	0.0999878	621	hunger	stimuli/non_foods\non-food_animate_ram.jpg	1	5	1	non-food_animate_ram	0	K	7	0	140	0	NaN	0	0	228.2779296	228.3779174
55892.25	0.0999763	622	hunger	stimuli/non_foods\non-food_animate_lizard.jpg	1	5	1	non-food_animate_lizard	0	L	8	0	126	0	NaN	0	0	228.4279382	228.5279145
55929.75	0.0999868	623	hunger	stimuli/non_foods\non-food_inanimate_horn.jpg	1	5	1	non-food_inanimate_horn	0	V	15	0	190	0	NaN	0	0	228.577928	228.6779148
55967.25	0.0999868	624	hunger	stimuli/foods\lasagna.jpg	1	5	1	lasagna	1	F	3	0	71	0	NaN	0	0	228.7279235	228.8279103
56004.75	0.0999845	625	hunger	stimuli/non_foods\non-food_inanimate_stapler.jpg	1	5	1	non-food_inanimate_stapler	0	N	10	0	213	0	NaN	0	0	228.8779271	228.9779116
56042.25	0.0999788	626	hunger	stimuli/foods\strawberry.jpg	1	5	1	strawberry	1	R	12	0	272	0	NaN	0	0	229.0279235	229.1279023
56079.75	0.0999589	627	hunger	stimuli/foods\prawn.jpg	1	5	1	prawn	1	J	6	0	249	0	NaN	0	0	229.1779372	229.2778961
56117.25	0.0999852	628	hunger	stimuli/foods\mortadella.jpg	1	5	1	mortadella	1	X	17	0	83	0	NaN	0	0	229.3279249	229.4279101
56154.75	0.1000093	629	hunger	stimuli/non_foods\non-food_inanimate_bucket.jpg	1	5	1	non-food_inanimate_bucket	0	F	3	0	165	0	NaN	0	0	229.4778961	229.5779054
56192.25	0.0999874	630	hunger	stimuli/non_foods\non-food_inanimate_bowling_ball.jpg	1	5	1	non-food_inanimate_bowling_ball	0	B	0	0	162	0	NaN	0	0	229.6279194	229.7279068
56229.75	0.099985	631	hunger	stimuli/non_foods\non-food_inanimate_sun_flower.jpg	1	5	1	non-food_inanimate_sun_flower	0	P	11	0	216	0	NaN	0	0	229.7779185	229.8779035
56267.25	0.0999856	632	hunger	stimuli/foods\salami.jpg	1	5	1	salami	1	V	15	0	263	0	NaN	0	0	229.92792	230.0279056
56304.75	0.0999904	633	hunger	stimuli/foods\pomegranate.jpg	1	5	1	pomegranate	1	M	9	0	244	0	NaN	0	0	230.0779149	230.1779053
56342.25	0.0999726	634	hunger	stimuli/non_foods\non-food_animate_young_boy.jpg	1	5	1	non-food_animate_young_boy	0	W	16	0	156	0	NaN	0	0	230.2279273	230.3278999
56379.75	0.0999903	635	hunger	stimuli/non_foods\non-food_animate_yellow_bug.jpg	1	5	1	non-food_animate_yellow_bug	0	C	1	0	155	0	NaN	0	0	230.3779123	230.4779026
56417.25	0.1000062	636	hunger	stimuli/foods\hotdog.jpg	1	5	1	hotdog	1	P	11	0	67	0	NaN	0	0	230.5279134	230.6279196
56454.75	0.0999842	637	hunger	stimuli/foods\rice.jpg	1	5	1	rice	1	M	9	0	257	0	NaN	0	0	230.6779121	230.7778963
56492.25	0.10002	638	hunger	stimuli/non_foods\non-food_inanimate_highlighter.jpg	1	5	1	non-food_inanimate_highlighter	0	H	5	0	189	0	NaN	0	0	230.8279248	230.9279448
56529.75	0.0999482	639	hunger	stimuli/non_foods\non-food_inanimate_teddy_bear.jpg	1	5	1	non-food_inanimate_teddy_bear	0	V	15	0	218	0	NaN	0	0	230.9779472	231.0778954
56567.25	0.0999879	640	hunger	stimuli/foods\bagel.jpg	1	5	1	bagel	1	W	16	0	6	0	NaN	0	0	231.1279073	231.2278952
56604.75	0.0999836	641	hunger	stimuli/foods\blackberry.jpg	1	5	1	blackberry	1	M	9	0	11	0	NaN	0	0	231.2779081	231.3778917
56642.25	0.0999888	642	hunger	stimuli/non_foods\non-food_inanimate_headphones.jpg	1	5	1	non-food_inanimate_headphones	0	X	17	0	188	0	NaN	0	0	231.4279048	231.5278936
56679.75	0.0999868	643	hunger	stimuli/non_foods\non-food_inanimate_clover.jpg	1	5	1	non-food_inanimate_clover	0	V	15	0	174	0	NaN	0	0	231.5779043	231.6778911
56717.25	0.0999822	644	hunger	stimuli/foods\chilli.jpg	1	5	1	chilli	1	N	10	0	25	0	NaN	0	0	231.7279055	231.8278877
56754.75	0.0999846	645	hunger	stimuli/foods\pepperoni_pizza.jpg	1	5	1	pepperoni_pizza	1	K	7	0	241	0	NaN	0	0	231.8779022	231.9778868
56792.25	0.0999731	646	hunger	stimuli/foods\chocolate_pralines.jpg	1	5	1	chocolate_pralines	1	D	2	0	28	0	NaN	0	0	232.0279134	232.1278865
56829.75	0.0999872	647	hunger	stimuli/non_foods\non-food_animate_seal.jpg	1	5	1	non-food_animate_seal	0	K	7	0	146	0	NaN	0	0	232.1779005	232.2778877
56867.25	0.0999821	648	hunger	stimuli/non_foods\non-food_animate_duck.jpg	1	5	1	non-food_animate_duck	0	Z	18	0	109	0	NaN	0	0	232.3279001	232.4278822
56904.75	0.0999878	649	hunger	stimuli/non_foods\non-food_animate_skunk.jpg	1	5	1	non-food_animate_skunk	0	C	1	0	147	0	NaN	0	0	232.4779011	232.5778889
56942.25	0.099997	650	hunger	stimuli/foods\cupcake.jpg	1	5	1	cupcake	1	R	12	0	42	0	NaN	0	0	232.6279013	232.7278983
56979.75	0.0999934	651	hunger	stimuli/non_foods\non-food_inanimate_nailpolish.jpg	1	5	1	non-food_inanimate_nailpolish	0	Z	18	0	195	0	NaN	0	0	232.7778903	232.8778837
57017.25	0.0999801	652	hunger	stimuli/non_foods\non-food_inanimate_bamboo.jpg	1	5	1	non-food_inanimate_bamboo	0	D	2	0	159	0	NaN	0	0	232.9279006	233.0278807
57054.75	0.0999838	653	hunger	stimuli/non_foods\non-food_animate_bee.jpg	1	5	1	non-food_animate_bee	0	R	12	0	95	0	NaN	0	0	233.0778942	233.177878
57092.25	0.0999889	654	hunger	stimuli/non_foods\non-food_animate_baby_sitting.jpg	1	5	1	non-food_animate_baby_sitting	0	B	0	0	93	0	NaN	0	0	233.2278885	233.3278774
57129.75	0.099983	655	hunger	stimuli/foods\green_beans.jpg	1	5	1	green_beans	1	J	6	0	61	0	NaN	0	0	233.3778932	233.4778762
57167.25	0.0999856	656	hunger	stimuli/non_foods\non-food_animate_mouse.jpg	1	5	1	non-food_animate_mouse	0	C	1	0	131	0	NaN	0	0	233.5278917	233.6278773
57204.75	0.1000037	657	hunger	stimuli/foods\apple.jpg	1	5	1	apple	1	A	19	1	1	0	NaN	0	0	233.6778913	233.777895
57242.25	0.0999723	658	hunger	stimuli/non_foods\non-food_inanimate_tent.jpg	1	5	1	non-food_inanimate_tent	0	H	5	0	219	0	NaN	0	0	233.8279011	233.9278734
57279.75	0.0999875	659	hunger	stimuli/foods\cucumber.jpg	1	5	1	cucumber	1	P	11	0	41	0	NaN	0	0	233.977886	234.0778735
57317.25	0.0999843	660	hunger	stimuli/foods\salmon.jpg	1	5	1	salmon	1	F	3	0	264	0	NaN	0	0	234.1278864	234.2278707
57354.75	0.0999993	661	hunger	stimuli/non_foods\non-food_inanimate_chair.jpg	1	5	1	non-food_inanimate_chair	0	J	6	0	172	0	NaN	0	0	234.277883	234.3778823
57392.25	0.0999847	662	hunger	stimuli/non_foods\non-food_inanimate_cactus_pot_plant.jpg	1	5	1	non-food_inanimate_cactus_pot_plant	0	R	12	0	169	1	NaN	0.8418537	1	234.4278905	234.5278752
57429.75	0.0999712	663	hunger	stimuli/foods\baked_lamb_with_potatoes.jpg	1	5	1	baked_lamb_with_potatoes	1	K	7	0	8	0	NaN	0	0	234.5778974	234.6778686
57467.25	0.0999858	664	hunger	stimuli/foods\beetroots.jpg	1	5	1	beetroots	1	W	16	0	10	0	NaN	0	0	234.7278813	234.8278671
57504.75	0.0999863	665	hunger	stimuli/non_foods\non-food_inanimate_scissors.jpg	1	5	1	non-food_inanimate_scissors	0	X	17	0	205	0	NaN	0	0	234.8778804	234.9778667
57542.25	0.0999849	666	hunger	stimuli/non_foods\non-food_animate_hummingbird.jpg	1	5	1	non-food_animate_hummingbird	0	Z	18	0	120	0	NaN	0	0	235.0278792	235.1278641
57579.75	0.0999855	667	hunger	stimuli/non_foods\non-food_inanimate_nettle.jpg	1	5	1	non-food_inanimate_nettle	0	C	1	0	197	0	NaN	0	0	235.1778792	235.2778647
57617.25	0.0999876	668	hunger	stimuli/foods\brie.jpg	1	5	1	brie	1	B	0	0	12	0	NaN	0	0	235.3278747	235.4278623
57654.75	0.0999858	669	hunger	stimuli/foods\cooked_prawn.jpg	1	5	1	cooked_prawn	1	Z	18	0	36	0	NaN	0	0	235.4778758	235.5778616
57692.25	0.0999863	670	hunger	stimuli/non_foods\non-food_inanimate_broom.jpg	1	5	1	non-food_inanimate_broom	0	K	7	0	164	0	NaN	0	0	235.6278747	235.727861
57729.75	0.0999846	671	hunger	stimuli/foods\cracker.jpg	1	5	1	cracker	1	P	11	0	38	0	NaN	0	0	235.777874	235.8778586
57767.25	0.0999888	672	hunger	stimuli/foods\museli_bars.jpg	1	5	1	museli_bars	1	G	4	0	84	0	NaN	0	0	235.927872	236.0278608
57804.75	0.099987	673	hunger	stimuli/non_foods\non-food_animate_grasshopper.jpg	1	5	1	non-food_animate_grasshopper	0	N	10	0	117	0	NaN	0	0	236.0778701	236.1778571
57842.25	0.0999417	674	hunger	stimuli/foods\lettuce.jpg	1	5	1	lettuce	1	Z	18	0	75	0	NaN	0	0	236.2279117	236.3278534
57879.75	0.0999877	675	hunger	stimuli/non_foods\non-food_inanimate_padlock.jpg	1	5	1	non-food_inanimate_padlock	0	K	7	0	199	0	NaN	0	0	236.377869	236.4778567
57917.25	0.0999859	676	hunger	stimuli/non_foods\non-food_inanimate_leaf.jpg	1	5	1	non-food_inanimate_leaf	0	R	12	0	192	0	NaN	0	0	236.5278663	236.6278522
57954.75	0.0999883	677	hunger	stimuli/foods\hazelnuts.jpg	1	5	1	hazelnuts	1	P	11	0	65	0	NaN	0	0	236.6778666	236.7778549
57992.25	0.0999819	678	hunger	stimuli/non_foods\non-food_animate_green_bug.jpg	1	5	1	non-food_animate_green_bug	0	S	13	0	118	0	NaN	0	0	236.8278674	236.9278493
58029.75	0.0999884	679	hunger	stimuli/foods\frankfurter_and_provolone_salad.jpg	1	5	1	frankfurter_and_provolone_salad	1	G	4	0	49	0	NaN	0	0	236.9778611	237.0778495
58067.25	0.0999944	680	hunger	stimuli/non_foods\non-food_animate_student_female.jpg	1	5	1	non-food_animate_student_female	0	V	15	0	151	0	NaN	0	0	237.1278552	237.2278496
58104.75	0.0999477	681	hunger	stimuli/non_foods\non-food_animate_cat.jpg	1	5	1	non-food_animate_cat	0	S	13	0	98	0	NaN	0	0	237.2778996	237.3778473
58142.25	0.0999871	682	hunger	stimuli/non_foods\non-food_inanimate_wrench.jpg	1	5	1	non-food_inanimate_wrench	0	R	12	0	227	0	NaN	0	0	237.4278619	237.527849
58179.75	0.0999584	683	hunger	stimuli/foods\cherry.jpg	1	5	1	cherry	1	C	1	0	23	0	NaN	0	0	237.577882	237.6778404
58217.25	0.0999869	684	hunger	stimuli/non_foods\non-food_animate_squirrel.jpg	1	5	1	non-food_animate_squirrel	0	V	15	0	150	0	NaN	0	0	237.7278555	237.8278424
58254.75	0.0999907	685	hunger	stimuli/non_foods\non-food_inanimate_soccer_ball.jpg	1	5	1	non-food_inanimate_soccer_ball	0	R	12	0	210	0	NaN	0	0	237.8778549	237.9778456
58292.25	0.0999377	686	hunger	stimuli/non_foods\non-food_animate_dragonfly.jpg	1	5	1	non-food_animate_dragonfly	0	B	0	0	108	0	NaN	0	0	238.0278961	238.1278338
58329.75	0.0999891	687	hunger	stimuli/non_foods\non-food_animate_sea_lion.jpg	1	5	1	non-food_animate_sea_lion	0	F	3	0	143	0	NaN	0	0	238.1778524	238.2778415
58367.25	0.1000062	688	hunger	stimuli/foods\onion.jpg	1	5	1	onion	1	M	9	0	229	0	NaN	0	0	238.3278346	238.4278408
58404.75	0.0999826	689	hunger	stimuli/non_foods\non-food_inanimate_jeans.jpg	1	5	1	non-food_inanimate_jeans	0	T	14	0	191	0	NaN	0	0	238.4778536	238.5778362
58442.25	0.0999856	690	hunger	stimuli/non_foods\non-food_animate_owl.jpg	1	5	1	non-food_animate_owl	0	M	9	0	132	0	NaN	0	0	238.6278511	238.7278367
58479.75	0.0999854	691	hunger	stimuli/foods\celery.jpg	1	5	1	celery	1	R	12	0	21	0	NaN	0	0	238.7778505	238.8778359
58517.25	0.0999869	692	hunger	stimuli/foods\donut.jpg	1	5	1	donut	1	F	3	0	44	0	NaN	0	0	238.9278492	239.0278361
58554.75	0.0999683	693	hunger	stimuli/non_foods\non-food_animate_alligator.jpg	1	5	1	non-food_animate_alligator	0	B	0	0	90	0	NaN	0	0	239.0778676	239.1778359
58592.25	0.0999831	694	hunger	stimuli/foods\figs.jpg	1	5	1	figs	1	J	6	0	48	0	NaN	0	0	239.2278484	239.3278315
58629.75	0.0999975	695	hunger	stimuli/non_foods\non-food_inanimate_fern.jpg	1	5	1	non-food_inanimate_fern	0	F	3	0	180	0	NaN	0	0	239.3778444	239.4778419
58667.25	0.0999873	696	hunger	stimuli/foods\lollies.jpg	1	5	1	lollies	1	T	14	0	78	0	NaN	0	0	239.5278455	239.6278328
58704.75	0.1000371	697	hunger	stimuli/non_foods\non-food_animate_donkey.jpg	1	5	1	non-food_animate_donkey	0	C	1	0	107	0	NaN	0	0	239.6778383	239.7778754
58742.25	0.0999493	698	hunger	stimuli/foods\roasted_chicken.jpg	1	5	1	roasted_chicken	1	S	13	0	261	0	NaN	0	0	239.8278802	239.9278295
58779.75	0.0999783	699	hunger	stimuli/foods\ginger_root.jpg	1	5	1	ginger_root	1	T	14	0	57	0	NaN	0	0	239.9778471	240.0778254
59242.25	0.0999657	700	hunger	stimuli/foods\pasta_carbonara.jpg	1	6	1	pasta_carbonara	1	L	8	0	236	0	NaN	0	0	241.8278439	241.9278096
59279.75	0.0999861	701	hunger	stimuli/foods\steak.jpg	1	6	1	steak	1	R	12	0	270	0	NaN	0	0	241.9778258	242.0778119
59317.25	0.0999795	702	hunger	stimuli/non_foods\non-food_inanimate_hammer.jpg	1	6	1	non-food_inanimate_hammer	0	H	5	0	186	0	NaN	0	0	242.1278291	242.2278086
59354.75	0.0999867	703	hunger	stimuli/foods\mussels.jpg	1	6	1	mussels	1	T	14	0	86	0	NaN	0	0	242.2778223	242.377809
59392.25	0.09995	704	hunger	stimuli/non_foods\non-food_animate_iguana.jpg	1	6	1	non-food_animate_iguana	0	P	11	0	121	0	NaN	0	0	242.4278589	242.5278089
59429.75	0.0999829	705	hunger	stimuli/non_foods\non-food_animate_polar_bear.jpg	1	6	1	non-food_animate_polar_bear	0	T	14	0	137	0	NaN	0	0	242.5778222	242.6778051
59467.25	0.0999884	706	hunger	stimuli/non_foods\non-food_inanimate_skateboard.jpg	1	6	1	non-food_inanimate_skateboard	0	B	0	0	208	0	NaN	0	0	242.7278181	242.8278065
59504.75	0.0999867	707	hunger	stimuli/non_foods\non-food_inanimate_skirt.jpg	1	6	1	non-food_inanimate_skirt	0	L	8	0	209	0	NaN	0	0	242.8778209	242.9778076
59542.25	0.0999976	708	hunger	stimuli/non_foods\non-food_inanimate_bed.jpg	1	6	1	non-food_inanimate_bed	0	R	12	0	160	0	NaN	0	0	243.0278225	243.1278201
59579.75	0.0999679	709	hunger	stimuli/non_foods\non-food_inanimate_socks.jpg	1	6	1	non-food_inanimate_socks	0	X	17	0	211	0	NaN	0	0	243.1778348	243.2778027
59617.25	0.0999852	710	hunger	stimuli/foods\wafer.jpg	1	6	1	wafer	1	K	7	0	277	0	NaN	0	0	243.3278154	243.4278006
59654.75	0.0999881	711	hunger	stimuli/non_foods\non-food_animate_cheetah.jpg	1	6	1	non-food_animate_cheetah	0	S	13	0	100	0	NaN	0	0	243.4778137	243.5778018
59692.25	0.0999864	712	hunger	stimuli/non_foods\non-food_inanimate_speakers.jpg	1	6	1	non-food_inanimate_speakers	0	P	11	0	212	0	NaN	0	0	243.627812	243.7277984
59729.75	0.0999851	713	hunger	stimuli/foods\fried_calamari.jpg	1	6	1	fried_calamari	1	R	12	0	50	0	NaN	0	0	243.7778139	243.877799
59767.25	0.0999852	714	hunger	stimuli/non_foods\non-food_inanimate_bush.jpg	1	6	1	non-food_inanimate_bush	0	M	9	0	167	0	NaN	0	0	243.9278137	244.0277989
59804.75	0.1000041	715	hunger	stimuli/non_foods\non-food_inanimate_buds.jpg	1	6	1	non-food_inanimate_buds	0	H	5	0	166	0	NaN	0	0	244.0778084	244.1778125
59842.25	0.0999715	716	hunger	stimuli/non_foods\non-food_animate_horse.jpg	1	6	1	non-food_animate_horse	0	L	8	0	119	0	NaN	0	0	244.2278233	244.3277948
59879.75	0.0999833	717	hunger	stimuli/foods\fruit_flan.jpg	1	6	1	fruit_flan	1	R	12	0	53	0	NaN	0	0	244.377809	244.4777923
59917.25	0.0999824	718	hunger	stimuli/foods\cauliflower.jpg	1	6	1	cauliflower	1	U	23	1	20	0	NaN	0	0	244.5278078	244.6277902
59954.75	0.0999881	719	hunger	stimuli/foods\cooked_ham.jpg	1	6	1	cooked_ham	1	L	8	0	35	0	NaN	0	0	244.6778086	244.7777967
59992.25	0.099951	720	hunger	stimuli/non_foods\non-food_animate_fox.jpg	1	6	1	non-food_animate_fox	0	H	5	0	112	0	NaN	0	0	244.8278384	244.9277894
