onset	duration	eventnumber	hunger_condition	stimfilename	blockno	trialno	is_faststream	stim	food_idx	letter	letter_idx	istarget	image_number	response	keypressed	rt	correct	time_stimon	time_stimoff
6333.5	0.0999618000350893	0	satiated	stimuli/foods\chocolate_pudding.jpg	1	1	1	chocolate_pudding	1	G	4	0	29	0		0	0	79.3799455000553	79.4799073000904
6371	0.100037600030191	1	satiated	stimuli/non_foods\non-food_animate_donkey.jpg	1	1	1	non-food_animate_donkey	0	H	5	0	107	0		0	0	79.5299252000405	79.6299628000706
6408.5	0.100002199993469	2	satiated	stimuli/non_foods\non-food_animate_duck.jpg	1	1	1	non-food_animate_duck	0	S	13	0	109	0		0	0	79.6799176000059	79.7799197999993
6446	0.0999907000223175	3	satiated	stimuli/foods\red_cabbage.jpg	1	1	1	red_cabbage	1	M	9	0	256	0		0	0	79.8299089000793	79.9298996001016
6483.5	0.0999826999614015	4	satiated	stimuli/foods\frankfurter_and_provolone_salad.jpg	1	1	1	frankfurter_and_provolone_salad	1	C	1	0	49	0		0	0	79.9799180000555	80.0799007000169
6521	0.0999992999713868	5	satiated	stimuli/foods\apple.jpg	1	1	1	apple	1	R	12	0	1	0		0	0	80.1299171000719	80.2299164000433
6558.5	0.0999443000182509	6	satiated	stimuli/non_foods\non-food_inanimate_bamboo.jpg	1	1	1	non-food_inanimate_bamboo	0	V	15	0	159	0		0	0	80.2799389000284	80.3798832000466
6596	0.0999825999606401	7	satiated	stimuli/foods\asparagus.jpg	1	1	1	asparagus	1	Z	18	0	4	0		0	0	80.4299242000561	80.5299068000168
6633.5	0.0999781000427902	8	satiated	stimuli/non_foods\non-food_animate_bee.jpg	1	1	1	non-food_animate_bee	0	P	11	0	95	0		0	0	80.5799150000094	80.6798931000521
6671	0.0999770000344142	9	satiated	stimuli/foods\apricot.jpg	1	1	1	apricot	1	W	16	0	2	0		0	0	80.7299160000402	80.8298930000747
6708.5	0.0999866001075134	10	satiated	stimuli/foods\brie.jpg	1	1	1	brie	1	B	0	0	12	0		0	0	80.8799072999973	80.9798939001048
6746	0.0999840000877157	11	satiated	stimuli/non_foods\non-food_animate_runner.jpg	1	1	1	non-food_animate_runner	0	N	10	0	142	0		0	0	81.0299060000107	81.1298900000984
6783.5	0.0999795000534505	12	satiated	stimuli/foods\chocolate_pralines.jpg	1	1	1	chocolate_pralines	1	G	4	0	28	0		0	0	81.1799057000317	81.2798852000851
6821	0.0997094999765977	13	satiated	stimuli/foods\cereal.jpg	1	1	1	cereal	1	X	17	0	22	0		0	0	81.3301690000808	81.4298785000574
6858.5	0.0999974000733346	14	satiated	stimuli/foods\museli_bars.jpg	1	1	1	museli_bars	1	L	8	0	84	0		0	0	81.4798961000051	81.5798935000785
6896	0.0999894000124186	15	satiated	stimuli/foods\salmon.jpg	1	1	1	salmon	1	H	5	0	264	0		0	0	81.6299043000909	81.7298937001033
6933.5	0.0999795999377966	16	satiated	stimuli/foods\ginger_root.jpg	1	1	1	ginger_root	1	K	7	0	57	0		0	0	81.7798972000601	81.8798767999979
6971	0.100022399914451	17	satiated	stimuli/foods\taco.jpg	1	1	1	taco	1	X	17	0	274	0		0	0	81.9298997001024	82.0299221000168
7008.5	0.0999629999278113	18	satiated	stimuli/foods\lettuce.jpg	1	1	1	lettuce	1	G	4	0	75	0		0	0	82.0799114000984	82.1798744000262
7046	0.0999857999850065	19	satiated	stimuli/foods\pepperoni_pizza.jpg	1	1	1	pepperoni_pizza	1	D	2	0	241	0		0	0	82.2298898000736	82.3298756000586
7083.5	0.0999945999355987	20	satiated	stimuli/foods\spring_onions.jpg	1	1	1	spring_onions	1	K	7	0	269	0		0	0	82.3798866000725	82.4798812000081
7121	0.0999588000122458	21	satiated	stimuli/non_foods\non-food_animate_hummingbird.jpg	1	1	1	non-food_animate_hummingbird	0	D	2	0	120	0		0	0	82.5298927000258	82.6298515000381
7158.5	0.0999878000002354	22	satiated	stimuli/non_foods\non-food_inanimate_cap.jpg	1	1	1	non-food_inanimate_cap	0	W	16	0	171	0		0	0	82.6798926000483	82.7798804000486
7196	0.0999850999796763	23	satiated	stimuli/non_foods\non-food_inanimate_moss.jpg	1	1	1	non-food_inanimate_moss	0	N	10	0	194	0		0	0	82.8298923000693	82.929877400049
7233.5	0.0999860999872908	24	satiated	stimuli/foods\hazelnuts.jpg	1	1	1	hazelnuts	1	P	11	0	65	0		0	0	82.9798851000378	83.0798712000251
7271	0.0999758000252768	25	satiated	stimuli/non_foods\non-food_animate_butterfly.jpg	1	1	1	non-food_animate_butterfly	0	V	15	0	96	0		0	0	83.1298944000155	83.2298702000408
7308.5	0.0999859999865294	26	satiated	stimuli/foods\cracker.jpg	1	1	1	cracker	1	N	10	0	38	0		0	0	83.2798832000699	83.3798692000564
7346	0.0999848999781534	27	satiated	stimuli/non_foods\non-food_inanimate_headphones.jpg	1	1	1	non-food_inanimate_headphones	0	O	22	1	188	0		0	0	83.4298821000848	83.5298670000629
7383.5	0.0999756999081001	28	satiated	stimuli/foods\lollies.jpg	1	1	1	lollies	1	R	12	0	78	0		0	0	83.5798800000921	83.6798557000002
7421	0.100016299984418	29	satiated	stimuli/non_foods\non-food_inanimate_stapler.jpg	1	1	1	non-food_inanimate_stapler	0	H	5	0	213	0		0	0	83.7298918000888	83.8299081000732
7458.5	0.0999698000960052	30	satiated	stimuli/foods\cooked_prawn.jpg	1	1	1	cooked_prawn	1	F	3	0	36	0		0	0	83.8798934000079	83.9798632001039
7496	0.0999847000930458	31	satiated	stimuli/foods\hotdog.jpg	1	1	1	hotdog	1	Z	18	0	67	0		0	0	84.0298754000105	84.1298601001035
7533.5	0.099980799946934	32	satiated	stimuli/non_foods\non-food_inanimate_jeans.jpg	1	1	1	non-food_inanimate_jeans	0	C	1	0	191	0		0	0	84.1798772000475	84.2798579999944
7571	0.0999879000009969	33	satiated	stimuli/non_foods\non-food_inanimate_clover.jpg	1	1	1	non-food_inanimate_clover	0	X	17	0	174	0		0	0	84.3298693000106	84.4298572000116
7608.5	0.0999842999735847	34	satiated	stimuli/non_foods\non-food_animate_raccoon.jpg	1	1	1	non-food_animate_raccoon	0	L	8	0	139	0		0	0	84.4798687000293	84.5798530000029
7646	0.0999819999560714	35	satiated	stimuli/non_foods\non-food_inanimate_alarm_clock.jpg	1	1	1	non-food_inanimate_alarm_clock	0	D	2	0	158	0		0	0	84.6298693000572	84.7298513000133
7683.5	0.0999687999719754	36	satiated	stimuli/non_foods\non-food_inanimate_scissors.jpg	1	1	1	non-food_inanimate_scissors	0	R	12	0	205	0		0	0	84.7798660000553	84.8798348000273
7721	0.100010499940254	37	satiated	stimuli/non_foods\non-food_inanimate_hay.jpg	1	1	1	non-food_inanimate_hay	0	M	9	0	187	0		0	0	84.9298386001028	85.0298491000431
7758.5	0.0999775000382215	38	satiated	stimuli/non_foods\non-food_animate_green_bug.jpg	1	1	1	non-food_animate_green_bug	0	R	12	0	118	0		0	0	85.0798719000304	85.1798494000686
7796	0.099984799977392	39	satiated	stimuli/foods\oyster.jpg	1	1	1	oyster	1	G	4	0	233	0		0	0	85.2298608000856	85.329845600063
7833.5	0.0999884000048041	40	satiated	stimuli/non_foods\non-food_inanimate_couch.jpg	1	1	1	non-food_inanimate_couch	0	V	15	0	176	0		0	0	85.3798556000693	85.4798440000741
7871	0.0999864999903366	41	satiated	stimuli/non_foods\non-food_inanimate_toilet.jpg	1	1	1	non-food_inanimate_toilet	0	D	2	0	220	0		0	0	85.5298573001055	85.6298438000958
7908.5	0.0999919000314549	42	satiated	stimuli/non_foods\non-food_animate_young_boy.jpg	1	1	1	non-food_animate_young_boy	0	N	10	0	156	0		0	0	85.6798651000718	85.7798570001032
7946	0.099998899968341	43	satiated	stimuli/non_foods\non-food_animate_sea_lion.jpg	1	1	1	non-food_animate_sea_lion	0	L	8	0	143	0		0	0	85.8298312000697	85.9298301000381
7983.5	0.10000050009694	44	satiated	stimuli/non_foods\non-food_animate_ant.jpg	1	1	1	non-food_animate_ant	0	V	15	0	91	0		0	0	85.9798349000048	86.0798354001017
8021	0.0999881000025198	45	satiated	stimuli/non_foods\non-food_animate_porcupine.jpg	1	1	1	non-food_animate_porcupine	0	S	13	0	138	0		0	0	86.1298471000046	86.2298352000071
8058.5	0.099987699999474	46	satiated	stimuli/non_foods\non-food_inanimate_highlighter.jpg	1	1	1	non-food_inanimate_highlighter	0	D	2	0	189	0		0	0	86.2798456000164	86.3798333000159
8096	0.099987699999474	47	satiated	stimuli/non_foods\non-food_inanimate_hammer.jpg	1	1	1	non-food_inanimate_hammer	0	F	3	0	186	0		0	0	86.429841300007	86.5298290000064
8133.5	0.0999841999728233	48	satiated	stimuli/foods\blackberry.jpg	1	1	1	blackberry	1	X	17	0	11	0		0	0	86.5798422000371	86.6798264000099
8171	0.10000710003078	49	satiated	stimuli/non_foods\non-food_inanimate_short_sleeved_shirt.jpg	1	1	1	non-food_inanimate_short_sleeved_shirt	0	P	11	0	207	0		0	0	86.7298409000505	86.8298480000813
8208.5	0.099967599962838	50	satiated	stimuli/non_foods\non-food_animate_fox.jpg	1	1	1	non-food_animate_fox	0	W	16	0	112	0		0	0	86.8798572000815	86.9798248000443
8246	0.0999880000017583	51	satiated	stimuli/foods\fries.jpg	1	1	1	fries	1	T	14	0	52	0		0	0	87.0298335000407	87.1298215000425
8283.5	0.099983699969016	52	satiated	stimuli/foods\watermelon.jpg	1	1	1	watermelon	1	P	11	0	279	0		0	0	87.1798343000701	87.2798180000391
8321	0.0999916000291705	53	satiated	stimuli/foods\pear.jpg	1	1	1	pear	1	S	13	0	239	0		0	0	87.329831500072	87.4298231001012
8358.5	0.0999870999949053	54	satiated	stimuli/non_foods\non-food_inanimate_horn.jpg	1	1	1	non-food_inanimate_horn	0	H	5	0	190	0		0	0	87.4798403000459	87.5798274000408
8396	0.10000570002012	55	satiated	stimuli/non_foods\non-food_animate_cat.jpg	1	1	1	non-food_animate_cat	0	R	12	0	98	0		0	0	87.6298028000165	87.7298085000366
8433.5	0.0999795999377966	56	satiated	stimuli/foods\grapes.jpg	1	1	1	grapes	1	K	7	0	60	0		0	0	87.7798213000642	87.879800900002
8471	0.0999885000055656	57	satiated	stimuli/foods\linguine_with_clams.jpg	1	1	1	linguine_with_clams	1	C	1	0	77	0		0	0	87.9298164000502	88.0298049000558
8508.5	0.0999866999918595	58	satiated	stimuli/foods\fruit_flan.jpg	1	1	1	fruit_flan	1	K	7	0	53	0		0	0	88.0798142000567	88.1798009000486
8546	0.0999870999949053	59	satiated	stimuli/non_foods\non-food_animate_iguana.jpg	1	1	1	non-food_animate_iguana	0	S	13	0	121	0		0	0	88.2298129000701	88.329800000065
8583.5	0.0999811999499798	60	satiated	stimuli/foods\lime.jpg	1	1	1	lime	1	C	1	0	76	1	a	0	0	88.3798136000987	88.4797948000487
8621	0.0999907999066636	61	satiated	stimuli/non_foods\non-food_inanimate_towel.jpg	1	1	1	non-food_inanimate_towel	0	G	4	0	221	0		0	0	88.5298100000946	88.6298008000012
8658.5	0.0999854999827221	62	satiated	stimuli/foods\papaya.jpg	1	1	1	papaya	1	C	1	0	235	0		0	0	88.6798199000768	88.7798054000596
8696	0.0999850999796763	63	satiated	stimuli/non_foods\non-food_inanimate_construction_helment.jpg	1	1	1	non-food_inanimate_construction_helment	0	K	7	0	175	0		0	0	88.8298176000826	88.9298027000623
8733.5	0.0999795999377966	64	satiated	stimuli/foods\orange.jpg	1	1	1	orange	1	P	11	0	230	0		0	0	88.9798129000701	89.0797925000079
8771	0.100002799998038	65	satiated	stimuli/non_foods\non-food_inanimate_skirt.jpg	1	1	1	non-food_inanimate_skirt	0	O	22	1	209	0		0	0	89.1298056000378	89.2298084000358
8808.5	0.100010800058953	66	satiated	stimuli/non_foods\non-food_animate_dachshund.jpg	1	1	1	non-food_animate_dachshund	0	S	13	0	104	0		0	0	89.279812599998	89.3798234000569
8846	0.0999712999910116	67	satiated	stimuli/non_foods\non-food_animate_seahorse.jpg	1	1	1	non-food_animate_seahorse	0	B	0	0	145	1	a	0.39184010005556	1	89.4298223000951	89.5297936000861
8883.5	0.0999884000048041	68	satiated	stimuli/non_foods\non-food_inanimate_gloves.jpg	1	1	1	non-food_inanimate_gloves	0	V	15	0	183	0		0	0	89.5798016000772	89.679790000082
8921	0.0999809999484569	69	satiated	stimuli/foods\prawn.jpg	1	1	1	prawn	1	S	13	0	249	0		0	0	89.7298013000982	89.8297823000466
8958.5	0.0999863999895751	70	satiated	stimuli/foods\omelette.jpg	1	1	1	omelette	1	B	0	0	228	0		0	0	89.8797966000857	89.9797830000753
8996	0.0999879000009969	71	satiated	stimuli/non_foods\non-food_inanimate_rope.jpg	1	1	1	non-food_inanimate_rope	0	F	3	0	204	0		0	0	90.0297900000587	90.1297779000597
9033.5	0.0999804000603035	72	satiated	stimuli/foods\potato_and_green_bean_salad.jpg	1	1	1	potato_and_green_bean_salad	1	M	9	0	246	0		0	0	90.1797857000493	90.2797661001096
9071	0.0999562999932095	73	satiated	stimuli/non_foods\non-food_animate_grasshopper.jpg	1	1	1	non-food_animate_grasshopper	0	S	13	0	117	0		0	0	90.3297953000292	90.4297516000224
9108.5	0.0999872999964282	74	satiated	stimuli/non_foods\non-food_animate_penguin.jpg	1	1	1	non-food_animate_penguin	0	B	0	0	135	0		0	0	90.4797931000357	90.5797804000322
9146	0.0999843999743462	75	satiated	stimuli/non_foods\non-food_inanimate_lighter.jpg	1	1	1	non-food_inanimate_lighter	0	L	8	0	193	0		0	0	90.6297950000735	90.7297794000478
9183.5	0.0999884000048041	76	satiated	stimuli/foods\cinnamon_sroll.jpg	1	1	1	cinnamon_sroll	1	T	14	0	31	0		0	0	90.7797869000351	90.8797753000399
9221	0.100005200016312	77	satiated	stimuli/non_foods\non-food_animate_mouse.jpg	1	1	1	non-food_animate_mouse	0	S	13	0	131	0		0	0	90.9297881000675	91.0297933000838
9258.5	0.0999366999603808	78	satiated	stimuli/non_foods\non-food_inanimate_waterlily.jpg	1	1	1	non-food_inanimate_waterlily	0	H	5	0	226	0		0	0	91.0798333000857	91.1797700000461
9296	0.0999863999895751	79	satiated	stimuli/non_foods\non-food_inanimate_guitar.jpg	1	1	1	non-food_inanimate_guitar	0	X	17	0	185	0		0	0	91.2297836000798	91.3297700000694
9333.5	0.0999859001021832	80	satiated	stimuli/foods\pumpkin.jpg	1	1	1	pumpkin	1	C	1	0	250	0		0	0	91.3797844999935	91.4797704000957
9371	0.099983699969016	81	satiated	stimuli/foods\chilli.jpg	1	1	1	chilli	1	X	17	0	25	0		0	0	91.529780400102	91.629764100071
9408.5	0.0999882000032812	82	satiated	stimuli/foods\banana.jpg	1	1	1	banana	1	J	6	0	9	0		0	0	91.6797772001009	91.7797654001042
9446	0.0999808000633493	83	satiated	stimuli/non_foods\non-food_inanimate_cactus_pot_plant.jpg	1	1	1	non-food_inanimate_cactus_pot_plant	0	P	11	0	169	0		0	0	91.8297794000246	91.9297602000879
9483.5	0.0999611000297591	84	satiated	stimuli/non_foods\non-food_inanimate_drum_set.jpg	1	1	1	non-food_inanimate_drum_set	0	T	14	0	179	0		0	0	91.9797733000014	92.0797344000312
9521	0.0999830000801012	85	satiated	stimuli/foods\raw_sausage.jpg	1	1	1	raw_sausage	1	R	12	0	254	0		0	0	92.1297692999942	92.2297523000743
9558.5	0.0999852999811992	86	satiated	stimuli/non_foods\non-food_animate_young_girl.jpg	1	1	1	non-food_animate_young_girl	0	Z	18	0	157	0		0	0	92.2797647000989	92.3797500000801
9596	0.0999854999827221	87	satiated	stimuli/foods\egg.jpg	1	1	1	egg	1	V	15	0	45	0		0	0	92.4297620001016	92.5297475000843
9633.5	0.0999825999606401	88	satiated	stimuli/foods\corncob.jpg	1	1	1	corncob	1	H	5	0	37	0		0	0	92.5797719000839	92.6797545000445
9671	0.100008899928071	89	satiated	stimuli/non_foods\non-food_animate_millipede.jpg	1	1	1	non-food_animate_millipede	0	X	17	0	129	0		0	0	92.7297567001078	92.8297656000359
9708.5	0.0999515999574214	90	satiated	stimuli/foods\baked_cod_with_carrots_and_green_beans.jpg	1	1	1	baked_cod_with_carrots_and_green_beans	1	D	2	0	7	0		0	0	92.8797835001023	92.9797351000598
9746	0.0999835999682546	91	satiated	stimuli/foods\risotto_with_peas_and_asparagus_tips.jpg	1	1	1	risotto_with_peas_and_asparagus_tips	1	F	3	0	259	0		0	0	93.0297570000403	93.1297406000085
9783.5	0.099986599991098	92	satiated	stimuli/foods\lamb_chops.jpg	1	1	1	lamb_chops	1	G	4	0	70	0		0	0	93.1797532000346	93.2797398000257
9821	0.0999868999933824	93	satiated	stimuli/non_foods\non-food_animate_chicken.jpg	1	1	1	non-food_animate_chicken	0	C	1	0	101	0		0	0	93.3297522000503	93.4297391000437
9858.5	0.0999848999781534	94	satiated	stimuli/foods\lemon.jpg	1	1	1	lemon	1	L	8	0	72	0		0	0	93.4797501000576	93.5797350000357
9896	0.0999789999332279	95	satiated	stimuli/non_foods\non-food_animate_horse.jpg	1	1	1	non-food_animate_horse	0	B	0	0	119	0		0	0	93.6297506000847	93.7297296000179
9933.5	0.0999842999735847	96	satiated	stimuli/non_foods\non-food_inanimate_suitcase.jpg	1	1	1	non-food_inanimate_suitcase	0	D	2	0	215	0		0	0	93.7797557000304	93.8797400000039
9971	0.100010599941015	97	satiated	stimuli/foods\peach.jpg	1	1	1	peach	1	T	14	0	238	0		0	0	93.9297251000535	94.0297356999945
10008.5	0.0999849999789149	98	satiated	stimuli/foods\bagel.jpg	1	1	1	bagel	1	N	10	0	6	0		0	0	94.0797503000358	94.1797353000147
10046	0.0999871999956667	99	satiated	stimuli/non_foods\non-food_animate_giraffe.jpg	1	1	1	non-food_animate_giraffe	0	L	8	0	115	1	a	0	0	94.2297439000104	94.329731100006
10083.5	0.100010399939492	100	satiated	stimuli/non_foods\non-food_animate_baby_crawling.jpg	1	1	1	non-food_animate_baby_crawling	0	V	15	0	92	0		0	0	94.3797228001058	94.4797332000453
10121	0.100001799990423	101	satiated	stimuli/foods\meatballs.jpg	1	1	1	meatballs	1	X	17	0	81	0		0	0	94.5297474000836	94.629749200074
10158.5	0.0999408999923617	102	satiated	stimuli/non_foods\non-food_animate_sea_turtle.jpg	1	1	1	non-food_animate_sea_turtle	0	N	10	0	144	0		0	0	94.6797834000317	94.7797243000241
10196	0.0999869999941438	103	satiated	stimuli/foods\chestnut.jpg	1	1	1	chestnut	1	D	2	0	24	0		0	0	94.8297405000776	94.9297275000717
10233.5	0.0999860999872908	104	satiated	stimuli/foods\smoked_ham.jpg	1	1	1	smoked_ham	1	Z	18	0	266	0		0	0	94.9797370000742	95.0797231000615
10271	0.0999855999834836	105	satiated	stimuli/non_foods\non-food_animate_cow.jpg	1	1	1	non-food_animate_cow	0	H	5	0	103	0		0	0	95.1297356000869	95.2297212000703
10308.5	0.0999822999583557	106	satiated	stimuli/non_foods\non-food_animate_Causasian_man.jpg	1	1	1	non-food_animate_Causasian_man	0	P	11	0	89	0		0	0	95.2797339000972	95.3797162000556
10346	0.0999881000025198	107	satiated	stimuli/foods\fruit_salad.jpg	1	1	1	fruit_salad	1	W	16	0	55	0		0	0	95.4297263000626	95.5297144000651
10383.5	0.0999900999013335	108	satiated	stimuli/foods\eggplant.jpg	1	1	1	eggplant	1	T	14	0	46	0		0	0	95.5797294001095	95.6797195000108
10421	0.099966200068593	109	satiated	stimuli/foods\radish.jpg	1	1	1	radish	1	V	15	0	251	0		0	0	95.7297461000271	95.8297123000957
10458.5	0.0999910000246018	110	satiated	stimuli/non_foods\non-food_inanimate_tree.jpg	1	1	1	non-food_inanimate_tree	0	S	13	0	223	0		0	0	95.8797235999955	95.9797146000201
10496	0.0999838999705389	111	satiated	stimuli/non_foods\non-food_inanimate_shell.jpg	1	1	1	non-food_inanimate_shell	0	R	12	0	206	0		0	0	96.0297255000332	96.1297094000038
10533.5	0.0999913000268862	112	satiated	stimuli/foods\garlic.jpg	1	1	1	garlic	1	V	15	0	56	0		0	0	96.1797189000063	96.2797102000332
10571	0.0999775999225676	113	satiated	stimuli/non_foods\non-food_inanimate_bush.jpg	1	1	1	non-food_inanimate_bush	0	K	7	0	167	0		0	0	96.329725400079	96.4297030000016
10608.5	0.0999655000632629	114	satiated	stimuli/foods\potatoes.jpg	1	1	1	potatoes	1	V	15	0	248	0		0	0	96.4797312000301	96.5796967000933
10646	0.0999857999850065	115	satiated	stimuli/foods\rockmelon.jpg	1	1	1	rockmelon	1	L	8	0	262	0		0	0	96.6297102000099	96.7296959999949
10683.5	0.099984799977392	116	satiated	stimuli/non_foods\non-food_animate_alligator.jpg	1	1	1	non-food_animate_alligator	0	Z	18	0	90	0		0	0	96.7797089000233	96.8796937000006
10721	0.0999828000785783	117	satiated	stimuli/non_foods\non-food_inanimate_folding_chair.jpg	1	1	1	non-food_inanimate_folding_chair	0	G	4	0	182	0		0	0	96.9297065000283	97.0296893001068
10758.5	0.0999841000884771	118	satiated	stimuli/non_foods\non-food_animate_mammoth.jpg	1	1	1	non-food_animate_mammoth	0	H	5	0	128	0		0	0	97.0796989999944	97.1796831000829
10796	0.100004600011744	119	satiated	stimuli/foods\carrot.jpg	1	1	1	carrot	1	G	4	0	19	0		0	0	97.2296898000641	97.3296944000758
10833.5	0.0999841999728233	120	satiated	stimuli/non_foods\non-food_animate_caterpillar.jpg	1	1	1	non-food_animate_caterpillar	0	B	0	0	99	0		0	0	97.3797059000935	97.4796901000664
10871	0.0999756000237539	121	satiated	stimuli/foods\cooked_ham.jpg	1	1	1	cooked_ham	1	R	12	0	35	0		0	0	97.5297145000659	97.6296901000896
10908.5	0.0999872999964282	122	satiated	stimuli/foods\celery.jpg	1	1	1	celery	1	K	7	0	21	0		0	0	97.6797033000039	97.7796906000003
10946	0.0999857999850065	123	satiated	stimuli/foods\fried_zucchini.jpg	1	1	1	fried_zucchini	1	C	1	0	51	0		0	0	97.8297022000188	97.9296880000038
10983.5	0.0999786000465974	124	satiated	stimuli/foods\fruit_pie.jpg	1	1	1	fruit_pie	1	B	0	0	54	0		0	0	97.9796984000131	98.0796770000597
11021	0.0999732000054792	125	satiated	stimuli/non_foods\non-food_inanimate_pine_cone.jpg	1	1	1	non-food_inanimate_pine_cone	0	H	5	0	200	0		0	0	98.1297056000913	98.2296788000967
11058.5	0.0999744998989627	126	satiated	stimuli/foods\croissant.jpg	1	1	1	croissant	1	D	2	0	40	0		0	0	98.2797031000955	98.3796775999945
11096	0.0999828999629244	127	satiated	stimuli/non_foods\non-food_inanimate_briefcase.jpg	1	1	1	non-food_inanimate_briefcase	0	S	13	0	163	0		0	0	98.4296863001073	98.5296692000702
11133.5	0.0999856000998989	128	satiated	stimuli/foods\hamburger.jpg	1	1	1	hamburger	1	F	3	0	64	0		0	0	98.5796852000058	98.6796708001057
11171	0.0999855999834836	129	satiated	stimuli/foods\chocolate_bar.jpg	1	1	1	chocolate_bar	1	V	15	0	26	0		0	0	98.7296843000222	98.8296699000057
11208.5	0.0999852999811992	130	satiated	stimuli/non_foods\non-food_animate_lion.jpg	1	1	1	non-food_animate_lion	0	H	5	0	125	0		0	0	98.8796827000333	98.9796680000145
11246	0.0999853999819607	131	satiated	stimuli/non_foods\non-food_inanimate_button.jpg	1	1	1	non-food_inanimate_button	0	C	1	0	168	0		0	0	99.0296788000269	99.1296642000088
11283.5	0.0999861999880522	132	satiated	stimuli/foods\honey.jpg	1	1	1	honey	1	W	16	0	66	0		0	0	99.1796773000387	99.2796635000268
11321	0.0999603999080136	133	satiated	stimuli/foods\cannoli.jpg	1	1	1	cannoli	1	C	1	0	17	0		0	0	99.3296986001078	99.4296590000158
11358.5	0.0999789000488818	134	satiated	stimuli/foods\oregano.jpg	1	1	1	oregano	1	G	4	0	231	0		0	0	99.4796736000571	99.579652500106
11396	0.09997049998492	135	satiated	stimuli/foods\mushroom.jpg	1	1	1	mushroom	1	C	1	0	85	0		0	0	99.6296716000652	99.7296421000501
11433.5	0.0999854999827221	136	satiated	stimuli/non_foods\non-food_animate_german_shepherd.jpg	1	1	1	non-food_animate_german_shepherd	0	Z	18	0	114	0		0	0	99.7796806000406	99.8796661000233
11471	0.100006200023927	137	satiated	stimuli/non_foods\non-food_animate_eagle.jpg	1	1	1	non-food_animate_eagle	0	H	5	0	110	0		0	0	99.9296821000753	100.029688300099
11508.5	0.0999519000761211	138	satiated	stimuli/foods\lentils.jpg	1	1	1	lentils	1	L	8	0	74	0		0	0	100.079701200011	100.179653100087
11546	0.0999888000078499	139	satiated	stimuli/non_foods\non-food_inanimate_watering_can.jpg	1	1	1	non-food_inanimate_watering_can	0	S	13	0	225	0		0	0	100.229669400025	100.329658200033
12112.5	0.0999720999971032	140	satiated	stimuli/foods\mandarin.jpg	1	2	1	mandarin	1	W	16	0	79	0		0	0	102.496327800094	102.596299900091
12150	0.0999406001064926	141	satiated	stimuli/foods\wafer.jpg	1	2	1	wafer	1	X	17	0	277	0		0	0	102.6463277	102.746268300107
12187.5	0.0999840000877157	142	satiated	stimuli/non_foods\non-food_animate_Asian_man.jpg	1	2	1	non-food_animate_Asian_man	0	Z	18	0	88	0		0	0	102.79629530001	102.896279300097
12225	0.0999872999964282	143	satiated	stimuli/non_foods\non-food_inanimate_rack.jpg	1	2	1	non-food_inanimate_rack	0	D	2	0	202	0		0	0	102.94629620004	103.046283500036
12262.5	0.0999927000375465	144	satiated	stimuli/foods\toasted_bread_with_tomatoes.jpg	1	2	1	toasted_bread_with_tomatoes	1	T	14	0	275	0		0	0	103.096295900061	103.196288600098
12300	0.0999734000070021	145	satiated	stimuli/foods\raisins.jpg	1	2	1	raisins	1	W	16	0	252	0		0	0	103.246305500041	103.346278900048
12337.5	0.0999862999888137	146	satiated	stimuli/foods\baked_lamb_with_potatoes.jpg	1	2	1	baked_lamb_with_potatoes	1	K	7	0	8	0		0	0	103.39628580003	103.496272100019
12375	0.099980799946934	147	satiated	stimuli/non_foods\non-food_inanimate_fire_extinguisher.jpg	1	2	1	non-food_inanimate_fire_extinguisher	0	H	5	0	181	0		0	0	103.546288200072	103.646269000019
12412.5	0.100008299923502	148	satiated	stimuli/foods\beetroots.jpg	1	2	1	beetroots	1	Z	18	0	10	0		0	0	103.696269900072	103.796278199996
12450	0.0999835999682546	149	satiated	stimuli/non_foods\non-food_inanimate_skateboard.jpg	1	2	1	non-food_inanimate_skateboard	0	C	1	0	208	0		0	0	103.846296800068	103.946280400036
12487.5	0.0999930999241769	150	satiated	stimuli/foods\raw_ham.jpg	1	2	1	raw_ham	1	J	6	0	253	0		0	0	103.996267000097	104.096260100021
12525	0.100007099914365	151	satiated	stimuli/foods\brownie.jpg	1	2	1	brownie	1	L	8	0	14	0		0	0	104.146265500109	104.246272600023
12562.5	0.0999987999675795	152	satiated	stimuli/non_foods\non-food_inanimate_teddy_bear.jpg	1	2	1	non-food_inanimate_teddy_bear	0	T	14	0	218	0		0	0	104.296289500082	104.396288300049
12600	0.0999656999483705	153	satiated	stimuli/foods\ice_cream.jpg	1	2	1	ice_cream	1	R	12	0	68	0		0	0	104.446305300109	104.546271000057
12637.5	0.0999923999188468	154	satiated	stimuli/non_foods\non-food_inanimate_nest.jpg	1	2	1	non-food_inanimate_nest	0	S	13	0	196	0		0	0	104.596283300081	104.6962757
12675	0.0999994000885636	155	satiated	stimuli/non_foods\non-food_inanimate_chandelier.jpg	1	2	1	non-food_inanimate_chandelier	0	L	8	0	173	0		0	0	104.746269800002	104.84626920009
12712.5	0.0999861999880522	156	satiated	stimuli/foods\dates.jpg	1	2	1	dates	1	G	4	0	43	0		0	0	104.896278500091	104.996264700079
12750	0.0999874999979511	157	satiated	stimuli/non_foods\non-food_animate_pigeon.jpg	1	2	1	non-food_animate_pigeon	0	V	15	0	136	0		0	0	105.046279800008	105.146267300006
12787.5	0.099981400067918	158	satiated	stimuli/non_foods\non-food_animate_slug.jpg	1	2	1	non-food_animate_slug	0	M	9	0	148	0		0	0	105.196279800031	105.296261200099
12825	0.0999842000892386	159	satiated	stimuli/foods\roasted_chicken.jpg	1	2	1	roasted_chicken	1	V	15	0	261	0		0	0	105.346273500007	105.446257700096
12862.5	0.100009899935685	160	satiated	stimuli/non_foods\non-food_inanimate_toy_airplane.jpg	1	2	1	non-food_inanimate_toy_airplane	0	S	13	0	222	0		0	0	105.496250200085	105.596260100021
12900	0.0999808999476954	161	satiated	stimuli/foods\pomegranate.jpg	1	2	1	pomegranate	1	C	1	0	244	0		0	0	105.646276300075	105.746257200022
12937.5	0.100019500008784	162	satiated	stimuli/non_foods\non-food_animate_lizard.jpg	1	2	1	non-food_animate_lizard	0	S	13	0	126	0		0	0	105.796235800022	105.896255300031
12975	0.10003059997689	163	satiated	stimuli/non_foods\non-food_animate_cheetah.jpg	1	2	1	non-food_animate_cheetah	0	C	1	0	100	0		0	0	105.946271600085	106.046302200062
13012.5	0.100014799972996	164	satiated	stimuli/foods\cucumber.jpg	1	2	1	cucumber	1	S	13	0	41	0		0	0	106.09626790008	106.196282700053
13050	0.0999527999665588	165	satiated	stimuli/foods\avocado.jpg	1	2	1	avocado	1	D	2	0	5	0		0	0	106.246295700083	106.346248500049
13087.5	0.0999845999758691	166	satiated	stimuli/non_foods\non-food_animate_dolphin.jpg	1	2	1	non-food_animate_dolphin	0	F	3	0	106	0		0	0	106.396262200084	106.496246800059
13125	0.0999875999987125	167	satiated	stimuli/non_foods\non-food_animate_deer.jpg	1	2	1	non-food_animate_deer	0	B	0	0	105	0		0	0	106.546257100068	106.646244700067
13162.5	0.0999848000938073	168	satiated	stimuli/non_foods\non-food_inanimate_tent.jpg	1	2	1	non-food_inanimate_tent	0	S	13	0	219	0		0	0	106.696262400015	106.796247200109
13200	0.099983699969016	169	satiated	stimuli/foods\cinnamon.jpg	1	2	1	cinnamon	1	T	14	0	30	0		0	0	106.846255100099	106.946238800068
13237.5	0.0999853999819607	170	satiated	stimuli/non_foods\non-food_animate_frog.jpg	1	2	1	non-food_animate_frog	0	E	20	1	113	0		0	0	106.996255800012	107.096241199994
13275	0.0999880000017583	171	satiated	stimuli/foods\red_beans.jpg	1	2	1	red_beans	1	D	2	0	255	0		0	0	107.146251900005	107.246239900007
13312.5	0.0999661000678316	172	satiated	stimuli/foods\artichoke.jpg	1	2	1	artichoke	1	J	6	0	3	0		0	0	107.296267900034	107.396234000102
13350	0.0999773000366986	173	satiated	stimuli/foods\capsicum.jpg	1	2	1	capsicum	1	S	13	0	18	0		0	0	107.446260099998	107.546237400034
13387.5	0.0999881000025198	174	satiated	stimuli/foods\clams.jpg	1	2	1	clams	1	B	0	0	32	1	a	0.691839799983427	1	107.596245100023	107.696233200026
13425	0.0999849999789149	175	satiated	stimuli/non_foods\non-food_inanimate_ring.jpg	1	2	1	non-food_inanimate_ring	0	S	13	0	203	0		0	0	107.746245400049	107.846230400028
13462.5	0.100001399987377	176	satiated	stimuli/non_foods\non-food_inanimate_bed.jpg	1	2	1	non-food_inanimate_bed	0	X	17	0	160	0		0	0	107.89624650008	107.996247900068
13500	0.0999416999984533	177	satiated	stimuli/non_foods\non-food_inanimate_soccer_ball.jpg	1	2	1	non-food_inanimate_soccer_ball	0	H	5	0	210	0		0	0	108.04628400004	108.146225700038
13537.5	0.0999652000609785	178	satiated	stimuli/foods\coffee_beans.jpg	1	2	1	coffee_beans	1	V	15	0	34	0		0	0	108.19624900003	108.296214200091
13575	0.0999842999735847	179	satiated	stimuli/foods\pancakes.jpg	1	2	1	pancakes	1	G	4	0	234	0		0	0	108.346231200034	108.446215500007
13612.5	0.0999953000573441	180	satiated	stimuli/foods\tomato.jpg	1	2	1	tomato	1	P	11	0	276	0		0	0	108.496223199996	108.596218500054
13650	0.0999841999728233	181	satiated	stimuli/foods\lemon_meringue_pie.jpg	1	2	1	lemon_meringue_pie	1	V	15	0	73	0		0	0	108.646228800062	108.746213000035
13687.5	0.099988600006327	182	satiated	stimuli/non_foods\non-food_inanimate_wrench.jpg	1	2	1	non-food_inanimate_wrench	0	F	3	0	227	0		0	0	108.796220100019	108.896208700025
13725	0.0999896998982877	183	satiated	stimuli/non_foods\non-food_inanimate_cupboard.jpg	1	2	1	non-food_inanimate_cupboard	0	W	16	0	177	0		0	0	108.946228200104	109.046217900002
13762.5	0.0999810000648722	184	satiated	stimuli/non_foods\non-food_inanimate_chair.jpg	1	2	1	non-food_inanimate_chair	0	B	0	0	172	0		0	0	109.096242700005	109.19622370007
13800	0.0999862999888137	185	satiated	stimuli/foods\lasagna.jpg	1	2	1	lasagna	1	S	13	0	71	0		0	0	109.246228300035	109.346214600024
13837.5	0.099983699969016	186	satiated	stimuli/non_foods\non-food_animate_ram.jpg	1	2	1	non-food_animate_ram	0	P	11	0	140	0		0	0	109.396226600045	109.496210300014
13875	0.0999866999918595	187	satiated	stimuli/foods\kiwi.jpg	1	2	1	kiwi	1	W	16	0	69	0		0	0	109.546221300028	109.64620800002
13912.5	0.0999963999493048	188	satiated	stimuli/foods\cabbage.jpg	1	2	1	cabbage	1	X	17	0	16	0		0	0	109.696228000103	109.796224400052
13950	0.0999582000076771	189	satiated	stimuli/non_foods\non-food_inanimate_table.jpg	1	2	1	non-food_inanimate_table	0	T	14	0	217	0		0	0	109.84624470002	109.946202900028
13987.5	0.0999862999888137	190	satiated	stimuli/non_foods\non-food_animate_seal.jpg	1	2	1	non-food_animate_seal	0	V	15	0	146	0		0	0	109.996216400061	110.09620270005
14025	0.0999861999880522	191	satiated	stimuli/foods\brussel_sprouts.jpg	1	2	1	brussel_sprouts	1	C	1	0	15	0		0	0	110.146216100082	110.24620230007
14062.5	0.0999850999796763	192	satiated	stimuli/foods\grilled_chicken_breast.jpg	1	2	1	grilled_chicken_breast	1	L	8	0	63	0		0	0	110.296213000081	110.396198100061
14100	0.0999860999872908	193	satiated	stimuli/foods\cherry.jpg	1	2	1	cherry	1	X	17	0	23	0		0	0	110.446213300107	110.546199400094
14137.5	0.0999736998928711	194	satiated	stimuli/non_foods\non-food_inanimate_fern.jpg	1	2	1	non-food_inanimate_fern	0	D	2	0	180	0		0	0	110.596209700103	110.696183399996
14175	0.0999881000025198	195	satiated	stimuli/foods\strawberry.jpg	1	2	1	strawberry	1	V	15	0	272	0		0	0	110.746205600095	110.846193700098
14212.5	0.09995149995666	196	satiated	stimuli/non_foods\non-food_inanimate_nettle.jpg	1	2	1	non-food_inanimate_nettle	0	G	4	0	197	0		0	0	110.896241000039	110.996192499995
14250	0.0999864001059905	197	satiated	stimuli/foods\potato_chips.jpg	1	2	1	potato_chips	1	K	7	0	247	0		0	0	111.046202600002	111.146189000108
14287.5	0.0999864999903366	198	satiated	stimuli/non_foods\non-food_inanimate_sun_flower.jpg	1	2	1	non-food_inanimate_sun_flower	0	W	16	0	216	0		0	0	111.196203100029	111.29618960002
14325	0.0999866999918595	199	satiated	stimuli/foods\steak.jpg	1	2	1	steak	1	T	14	0	270	0		0	0	111.346202600049	111.446189300041
14362.5	0.100010399939492	200	satiated	stimuli/foods\rice_cake.jpg	1	2	1	rice_cake	1	H	5	0	258	0		0	0	111.496202700073	111.596213100012
14400	0.0999732000054792	201	satiated	stimuli/foods\pickles.jpg	1	2	1	pickles	1	N	10	0	242	0		0	0	111.646210900042	111.746184100048
14437.5	0.0999813999515027	202	satiated	stimuli/foods\pasta_carbonara.jpg	1	2	1	pasta_carbonara	1	M	9	0	236	0		0	0	111.796196400071	111.896177800023
14475	0.0999849999789149	203	satiated	stimuli/foods\green_olives.jpg	1	2	1	green_olives	1	W	16	0	62	0		0	0	111.946193800075	112.046178800054
14512.5	0.099990600021556	204	satiated	stimuli/foods\risotto_with_zucchini.jpg	1	2	1	risotto_with_zucchini	1	L	8	0	260	0		0	0	112.096184500027	112.196175100049
14550	0.0999870999949053	205	satiated	stimuli/non_foods\non-food_animate_swan.jpg	1	2	1	non-food_animate_swan	0	W	16	0	152	0		0	0	112.246187500074	112.346174600068
14587.5	0.0999882000032812	206	satiated	stimuli/non_foods\non-food_inanimate_speakers.jpg	1	2	1	non-food_inanimate_speakers	0	M	9	0	212	0		0	0	112.396184100071	112.496172300074
14625	0.099986599991098	207	satiated	stimuli/non_foods\non-food_animate_dragonfly.jpg	1	2	1	non-food_animate_dragonfly	0	H	5	0	108	0		0	0	112.546185800107	112.646172400098
14662.5	0.0999771999195218	208	satiated	stimuli/non_foods\non-food_animate_camel.jpg	1	2	1	non-food_animate_camel	0	M	9	0	97	0		0	0	112.696194600081	112.796171800001
14700	0.0999892000108957	209	satiated	stimuli/non_foods\non-food_inanimate_socks.jpg	1	2	1	non-food_inanimate_socks	0	C	1	0	211	0		0	0	112.846181400004	112.946170600015
14737.5	0.0999854999827221	210	satiated	stimuli/foods\mango.jpg	1	2	1	mango	1	T	14	0	80	0		0	0	112.996179400012	113.096164899995
14775	0.0999850999796763	211	satiated	stimuli/foods\mortadella.jpg	1	2	1	mortadella	1	N	10	0	83	0		0	0	113.146177700022	113.246162800002
14812.5	0.100005400017835	212	satiated	stimuli/non_foods\non-food_animate_baby_sitting.jpg	1	2	1	non-food_animate_baby_sitting	0	D	2	0	93	0		0	0	113.296176000033	113.39618140005
14850	0.0999550999840721	213	satiated	stimuli/non_foods\non-food_inanimate_leaf.jpg	1	2	1	non-food_inanimate_leaf	0	N	10	0	192	0		0	0	113.44620450004	113.546159600024
14887.5	0.0999733000062406	214	satiated	stimuli/non_foods\non-food_animate_ladybug.jpg	1	2	1	non-food_animate_ladybug	0	T	14	0	124	0		0	0	113.596191500081	113.696164800087
14925	0.0999835999682546	215	satiated	stimuli/non_foods\non-food_animate_squirrel.jpg	1	2	1	non-food_animate_squirrel	0	F	3	0	150	0		0	0	113.74617310008	113.846156700049
14962.5	0.0999857999850065	216	satiated	stimuli/foods\gnocchi.jpg	1	2	1	gnocchi	1	V	15	0	58	0		0	0	113.896169800078	113.996155600064
15000	0.0999885000055656	217	satiated	stimuli/foods\spinach.jpg	1	2	1	spinach	1	F	3	0	268	0		0	0	114.046164900064	114.14615340007
15037.5	0.100004900014028	218	satiated	stimuli/non_foods\non-food_animate_clown.jpg	1	2	1	non-food_animate_clown	0	L	8	0	102	0		0	0	114.196168099996	114.29617300001
15075	0.0999751999042928	219	satiated	stimuli/foods\almonds.jpg	1	2	1	almonds	1	R	12	0	0	0		0	0	114.34616470011	114.446139900014
15112.5	0.0999720999971032	220	satiated	stimuli/foods\waffle.jpg	1	2	1	waffle	1	K	7	0	278	0		0	0	114.496165500022	114.59613760002
15150	0.0999841999728233	221	satiated	stimuli/non_foods\non-food_animate_kangaroo.jpg	1	2	1	non-food_animate_kangaroo	0	Z	18	0	122	0		0	0	114.646152200061	114.746136400034
15187.5	0.0999790000496432	222	satiated	stimuli/non_foods\non-food_animate_elephant.jpg	1	2	1	non-food_animate_elephant	0	U	23	1	111	0		0	0	114.796146500041	114.89612550009
15225	0.100009500049055	223	satiated	stimuli/foods\peas.jpg	1	2	1	peas	1	Z	18	0	240	0		0	0	114.946138300002	115.046147800051
15262.5	0.0999981999630108	224	satiated	stimuli/non_foods\non-food_inanimate_tulip.jpg	1	2	1	non-food_inanimate_tulip	0	X	17	0	224	0		0	0	115.096162000089	115.196160200052
15300	0.0999812999507412	225	satiated	stimuli/foods\cauliflower.jpg	1	2	1	cauliflower	1	T	14	0	20	1	a	0.443371300003491	1	115.246156900073	115.346138200024
15337.5	0.0999846999766305	226	satiated	stimuli/non_foods\non-food_inanimate_protractor.jpg	1	2	1	non-food_inanimate_protractor	0	F	3	0	201	0		0	0	115.396149000037	115.496133700013
15375	0.0999850999796763	227	satiated	stimuli/foods\fennel.jpg	1	2	1	fennel	1	P	11	0	47	0		0	0	115.54615040007	115.64613550005
15412.5	0.0999632000457495	228	satiated	stimuli/non_foods\non-food_animate_student_female.jpg	1	2	1	non-food_animate_student_female	0	J	6	0	151	0		0	0	115.69614200003	115.796105200076
15450	0.0999881000025198	229	satiated	stimuli/non_foods\non-food_inanimate_stoplight.jpg	1	2	1	non-food_inanimate_stoplight	0	X	17	0	214	0		0	0	115.846135900007	115.946124000009
15487.5	0.099981400067918	230	satiated	stimuli/foods\swordfish.jpg	1	2	1	swordfish	1	M	9	0	273	0		0	0	115.996136200032	116.0961176001
15525	0.0999875999987125	231	satiated	stimuli/non_foods\non-food_animate_killer_whale.jpg	1	2	1	non-food_animate_killer_whale	0	G	4	0	123	0		0	0	116.14613550005	116.246123100049
15562.5	0.0999777999240905	232	satiated	stimuli/non_foods\non-food_animate_peacock.jpg	1	2	1	non-food_animate_peacock	0	Z	18	0	134	0		0	0	116.296139600105	116.396117400029
15600	0.0999902000185102	233	satiated	stimuli/foods\broccoli.jpg	1	2	1	broccoli	1	L	8	0	13	0		0	0	116.446129600052	116.54611980007
15637.5	0.0999852999811992	234	satiated	stimuli/non_foods\non-food_animate_polar_bear.jpg	1	2	1	non-food_animate_polar_bear	0	D	2	0	137	0		0	0	116.596125700045	116.696111000027
15675	0.100002099992707	235	satiated	stimuli/non_foods\non-food_inanimate_bucket.jpg	1	2	1	non-food_inanimate_bucket	0	K	7	0	165	0		0	0	116.746125800069	116.846127900062
15712.5	0.0999630999285728	236	satiated	stimuli/non_foods\non-food_animate_gorilla.jpg	1	2	1	non-food_animate_gorilla	0	R	12	0	116	0		0	0	116.896155100083	116.996118200012
15750	0.0999592000152916	237	satiated	stimuli/non_foods\non-food_animate_bat.jpg	1	2	1	non-food_animate_bat	0	M	9	0	94	0		0	0	117.046129700029	117.146088900045
15787.5	0.0999888000078499	238	satiated	stimuli/non_foods\non-food_animate_tortoise.jpg	1	2	1	non-food_animate_tortoise	0	X	17	0	153	0		0	0	117.196128500043	117.296117300051
15825	0.0999871999956667	239	satiated	stimuli/foods\fried_calamari.jpg	1	2	1	fried_calamari	1	S	13	0	50	0		0	0	117.346124800039	117.446112000034
15862.5	0.100019000004977	240	satiated	stimuli/non_foods\non-food_animate_woman.jpg	1	2	1	non-food_animate_woman	0	J	6	0	154	0		0	0	117.496094500064	117.596113500069
15900	0.0999912999104708	241	satiated	stimuli/non_foods\non-food_inanimate_grass.jpg	1	2	1	non-food_inanimate_grass	0	N	10	0	184	0		0	0	117.646109300083	117.746100599994
15937.5	0.0999858999857679	242	satiated	stimuli/non_foods\non-food_animate_rhino.jpg	1	2	1	non-food_animate_rhino	0	C	1	0	141	0		0	0	117.796109000104	117.89609490009
15975	0.0999830999644473	243	satiated	stimuli/foods\coconut.jpg	1	2	1	coconut	1	T	14	0	33	0		0	0	117.946114300052	118.046097400016
16012.5	0.099982300074771	244	satiated	stimuli/non_foods\non-food_animate_monkey.jpg	1	2	1	non-food_animate_monkey	0	X	17	0	130	0		0	0	118.096108300029	118.196090600104
16050	0.0999830999644473	245	satiated	stimuli/non_foods\non-food_inanimate_bowling_ball.jpg	1	2	1	non-food_inanimate_bowling_ball	0	J	6	0	162	0		0	0	118.246109100059	118.346092200023
16087.5	0.0999792999355122	246	satiated	stimuli/foods\salami.jpg	1	2	1	salami	1	S	13	0	263	0		0	0	118.396108200075	118.496087500011
16125	0.100017299992032	247	satiated	stimuli/foods\oven-roasted_tomatoes.jpg	1	2	1	oven-roasted_tomatoes	1	B	0	0	232	0		0	0	118.546106400085	118.646123700077
16162.5	0.0999763999134302	248	satiated	stimuli/non_foods\non-food_inanimate_bicycle.jpg	1	2	1	non-food_inanimate_bicycle	0	C	1	0	161	0		0	0	118.696121200104	118.796097600018
16200	0.0999895000131801	249	satiated	stimuli/non_foods\non-food_inanimate_buds.jpg	1	2	1	non-food_inanimate_buds	0	O	22	1	166	0		0	0	118.846105600009	118.946095100022
16237.5	0.0999968000687659	250	satiated	stimuli/non_foods\non-food_animate_llama.jpg	1	2	1	non-food_animate_llama	0	P	11	0	127	0		0	0	118.99607610004	119.096072900109
16275	0.100002599996515	251	satiated	stimuli/non_foods\non-food_animate_parrot.jpg	1	2	1	non-food_animate_parrot	0	L	8	0	133	0		0	0	119.146087700035	119.246090300032
16312.5	0.0999882000032812	252	satiated	stimuli/foods\grapefruits.jpg	1	2	1	grapefruits	1	X	17	0	59	1	a	0.54181740002241	1	119.296098600025	119.396086800029
16350	0.0999860999872908	253	satiated	stimuli/foods\figs.jpg	1	2	1	figs	1	C	1	0	48	0		0	0	119.446099200053	119.54608530004
16387.5	0.0999837999697775	254	satiated	stimuli/foods\pork_and_rice.jpg	1	2	1	pork_and_rice	1	F	3	0	245	0		0	0	119.596098900074	119.696082700044
16425	0.0999879000009969	255	satiated	stimuli/non_foods\non-food_inanimate_canoe.jpg	1	2	1	non-food_inanimate_canoe	0	X	17	0	170	0		0	0	119.746094400063	119.846082300064
16462.5	0.0999851000960916	256	satiated	stimuli/foods\rice.jpg	1	2	1	rice	1	B	0	0	257	0		0	0	119.896098199999	119.996083300095
16500	0.0999842999735847	257	satiated	stimuli/non_foods\non-food_inanimate_broom.jpg	1	2	1	non-food_inanimate_broom	0	T	14	0	164	0		0	0	120.046092700097	120.14607700007
16537.5	0.099985699984245	258	satiated	stimuli/foods\pea_pod.jpg	1	2	1	pea_pod	1	R	12	0	237	0		0	0	120.196090700105	120.296076400089
16575	0.0999851999804378	259	satiated	stimuli/non_foods\non-food_animate_yellow_bug.jpg	1	2	1	non-food_animate_yellow_bug	0	B	0	0	155	0		0	0	120.346091900021	120.446077100001
16612.5	0.09996530006174	260	satiated	stimuli/non_foods\non-food_inanimate_desk.jpg	1	2	1	non-food_inanimate_desk	0	D	2	0	178	0		0	0	120.496106400038	120.5960717001
16650	0.0999894000124186	261	satiated	stimuli/foods\mussels.jpg	1	2	1	mussels	1	C	1	0	86	0		0	0	120.646083900006	120.746073300019
16687.5	0.0999837999697775	262	satiated	stimuli/foods\onion.jpg	1	2	1	onion	1	F	3	0	229	0		0	0	120.796085100039	120.896068900009
16725	0.0999912000261247	263	satiated	stimuli/foods\savory_pie.jpg	1	2	1	savory_pie	1	G	4	0	265	0		0	0	120.946079100017	121.046070300043
16762.5	0.0999857999850065	264	satiated	stimuli/foods\donut.jpg	1	2	1	donut	1	P	11	0	44	0		0	0	121.096080200048	121.196066000033
16800	0.0999843999743462	265	satiated	stimuli/foods\cupcake.jpg	1	2	1	cupcake	1	A	19	1	42	0		0	0	121.246078400058	121.346062800032
16837.5	0.10001779999584	266	satiated	stimuli/non_foods\non-food_inanimate_orchid.jpg	1	2	1	non-food_inanimate_orchid	0	L	8	0	198	0		0	0	121.396045200061	121.496063000057
16875	0.0999842999735847	267	satiated	stimuli/foods\stew_with_potatoes_and_carrots.jpg	1	2	1	stew_with_potatoes_and_carrots	1	W	16	0	271	0		0	0	121.546076200088	121.646060500061
16912.5	0.0999894000124186	268	satiated	stimuli/foods\chocolate_chip_cookies.jpg	1	2	1	chocolate_chip_cookies	1	Z	18	0	27	0		0	0	121.696070000064	121.796059400076
16950	0.0999850999796763	269	satiated	stimuli/non_foods\non-food_inanimate_padlock.jpg	1	2	1	non-food_inanimate_padlock	0	X	17	0	199	1	a	0.600187200005166	1	121.8460717001	121.94605680008
16987.5	0.100010400055908	270	satiated	stimuli/foods\cream_donuts.jpg	1	2	1	cream_donuts	1	D	2	0	39	0		0	0	121.996039499994	122.09604990005
17025	0.100012699957006	271	satiated	stimuli/foods\pineapple.jpg	1	2	1	pineapple	1	M	9	0	243	0		0	0	122.146062000073	122.24607470003
17062.5	0.0999555999878794	272	satiated	stimuli/foods\spaghetti_with_meat_sauce.jpg	1	2	1	spaghetti_with_meat_sauce	1	T	14	0	267	0		0	0	122.296093300101	122.396048900089
17100	0.0999855000991374	273	satiated	stimuli/non_foods\non-food_animate_skunk.jpg	1	2	1	non-food_animate_skunk	0	R	12	0	147	0		0	0	122.446062400006	122.546047900105
17137.5	0.0999842999735847	274	satiated	stimuli/foods\green_beans.jpg	1	2	1	green_beans	1	F	3	0	61	0		0	0	122.59606390004	122.696048200014
17175	0.100006100023165	275	satiated	stimuli/non_foods\non-food_animate_snail.jpg	1	2	1	non-food_animate_snail	0	Z	18	0	149	0		0	0	122.746033200063	122.846039300086
17212.5	0.0999958999454975	276	satiated	stimuli/non_foods\non-food_animate_owl.jpg	1	2	1	non-food_animate_owl	0	X	17	0	132	0		0	0	122.896046100068	122.996042000013
17250	0.0999912999104708	277	satiated	stimuli/non_foods\non-food_inanimate_nailpolish.jpg	1	2	1	non-food_inanimate_nailpolish	0	H	5	0	195	0		0	0	123.046045200084	123.146036499995
17287.5	0.100002899998799	278	satiated	stimuli/foods\minestrone_soup.jpg	1	2	1	minestrone_soup	1	G	4	0	82	0		0	0	123.196035800036	123.296038700035
17325	0.0999847000930458	279	satiated	stimuli/foods\nectarine.jpg	1	2	1	nectarine	1	J	6	0	87	0		0	0	123.346043800004	123.446028500097
18204.25	0.0999771000351757	280	satiated	stimuli/non_foods\non-food_animate_elephant.jpg	1	3	1	non-food_animate_elephant	0	V	15	0	111	0		0	0	126.862683000043	126.962660100078
18241.75	0.0999817000702024	281	satiated	stimuli/foods\grilled_chicken_breast.jpg	1	3	1	grilled_chicken_breast	1	N	10	0	63	0		0	0	127.012673999998	127.112655700068
18279.25	0.0999829999636859	282	satiated	stimuli/non_foods\non-food_animate_squirrel.jpg	1	3	1	non-food_animate_squirrel	0	M	9	0	150	0		0	0	127.162675600033	127.262658599997
18316.75	0.0999827000778168	283	satiated	stimuli/foods\frankfurter_and_provolone_salad.jpg	1	3	1	frankfurter_and_provolone_salad	1	D	2	0	49	0		0	0	127.312669900013	127.412652600091
18354.25	0.0999757999088615	284	satiated	stimuli/foods\rice.jpg	1	3	1	rice	1	S	13	0	257	0		0	0	127.462677500094	127.562653300003
18391.75	0.0999854999827221	285	satiated	stimuli/foods\avocado.jpg	1	3	1	avocado	1	K	7	0	5	0		0	0	127.612665700028	127.71265120001
18429.25	0.0999734000070021	286	satiated	stimuli/non_foods\non-food_inanimate_bucket.jpg	1	3	1	non-food_inanimate_bucket	0	R	12	0	165	0		0	0	127.762665300048	127.862638700055
18466.75	0.0999657999491319	287	satiated	stimuli/foods\green_beans.jpg	1	3	1	green_beans	1	N	10	0	61	0		0	0	127.912662600051	128.0126284
18504.25	0.0999980999622494	288	satiated	stimuli/foods\hotdog.jpg	1	3	1	hotdog	1	D	2	0	67	0		0	0	128.062665600097	128.162663700059
18541.75	0.0999555999878794	289	satiated	stimuli/foods\pomegranate.jpg	1	3	1	pomegranate	1	L	8	0	244	0		0	0	128.212686600047	128.312642200035
18579.25	0.0999857999850065	290	satiated	stimuli/non_foods\non-food_inanimate_pine_cone.jpg	1	3	1	non-food_inanimate_pine_cone	0	F	3	0	200	0		0	0	128.362657800084	128.462643600069
18616.75	0.0999843999743462	291	satiated	stimuli/foods\cooked_ham.jpg	1	3	1	cooked_ham	1	X	17	0	35	0		0	0	128.512654700084	128.612639100058
18654.25	0.0999869999941438	292	satiated	stimuli/foods\lamb_chops.jpg	1	3	1	lamb_chops	1	W	16	0	70	0		0	0	128.662652600091	128.762639600085
18691.75	0.0999804000603035	293	satiated	stimuli/foods\mussels.jpg	1	3	1	mussels	1	P	11	0	86	0		0	0	128.812654500012	128.912634900073
18729.25	0.0999910999089479	294	satiated	stimuli/non_foods\non-food_inanimate_toy_airplane.jpg	1	3	1	non-food_inanimate_toy_airplane	0	X	17	0	222	0		0	0	128.962648100103	129.062639200012
18766.75	0.100010200054385	295	satiated	stimuli/non_foods\non-food_inanimate_broom.jpg	1	3	1	non-food_inanimate_broom	0	V	15	0	164	0		0	0	129.1126468	129.212657000055
18804.25	0.0999671999597922	296	satiated	stimuli/non_foods\non-food_animate_mouse.jpg	1	3	1	non-food_animate_mouse	0	B	0	0	131	0		0	0	129.262664800044	129.362632000004
18841.75	0.0999869999941438	297	satiated	stimuli/non_foods\non-food_animate_gorilla.jpg	1	3	1	non-food_animate_gorilla	0	W	16	0	116	0		0	0	129.412641600007	129.512628600001
18879.25	0.099986599991098	298	satiated	stimuli/non_foods\non-food_animate_fox.jpg	1	3	1	non-food_animate_fox	0	K	7	0	112	0		0	0	129.562643900048	129.662630500039
18916.75	0.099986599991098	299	satiated	stimuli/foods\celery.jpg	1	3	1	celery	1	L	8	0	21	0		0	0	129.712638800032	129.812625400024
18954.25	0.0999660999514163	300	satiated	stimuli/foods\red_cabbage.jpg	1	3	1	red_cabbage	1	T	14	0	256	0		0	0	129.862653900054	129.962620000006
18991.75	0.10000019997824	301	satiated	stimuli/foods\spinach.jpg	1	3	1	spinach	1	P	11	0	268	0		0	0	130.012624500087	130.112624700065
19029.25	0.100010700058192	302	satiated	stimuli/foods\chilli.jpg	1	3	1	chilli	1	K	7	0	25	0		0	0	130.162611800013	130.262622500071
19066.75	0.0999831000808626	303	satiated	stimuli/non_foods\non-food_animate_killer_whale.jpg	1	3	1	non-food_animate_killer_whale	0	S	13	0	123	0		0	0	130.312636899995	130.412620000076
19104.25	0.0999839999713004	304	satiated	stimuli/non_foods\non-food_inanimate_buds.jpg	1	3	1	non-food_inanimate_buds	0	X	17	0	166	0		0	0	130.462630900089	130.56261490006
19141.75	0.099985699984245	305	satiated	stimuli/foods\pepperoni_pizza.jpg	1	3	1	pepperoni_pizza	1	J	6	0	241	0		0	0	130.612629400101	130.712615100085
19179.25	0.0999854999827221	306	satiated	stimuli/non_foods\non-food_inanimate_jeans.jpg	1	3	1	non-food_inanimate_jeans	0	X	17	0	191	0		0	0	130.762626500102	130.862612000084
19216.75	0.099988600006327	307	satiated	stimuli/foods\potatoes.jpg	1	3	1	potatoes	1	R	12	0	248	0		0	0	130.912626800011	131.012615400017
19254.25	0.0999773999210447	308	satiated	stimuli/non_foods\non-food_animate_parrot.jpg	1	3	1	non-food_animate_parrot	0	V	15	0	133	0		0	0	131.062636600109	131.16261400003
19291.75	0.100008700042963	309	satiated	stimuli/foods\lasagna.jpg	1	3	1	lasagna	1	C	1	0	71	0		0	0	131.212596100057	131.3126048001
19329.25	0.0999860999872908	310	satiated	stimuli/non_foods\non-food_animate_dolphin.jpg	1	3	1	non-food_animate_dolphin	0	Z	18	0	106	0		0	0	131.362619900028	131.462606000016
19366.75	0.0999874999979511	311	satiated	stimuli/foods\chocolate_chip_cookies.jpg	1	3	1	chocolate_chip_cookies	1	V	15	0	27	0		0	0	131.512620300055	131.612607800053
19404.25	0.0999976999592036	312	satiated	stimuli/non_foods\non-food_animate_iguana.jpg	1	3	1	non-food_animate_iguana	0	T	14	0	121	0		0	0	131.662637000089	131.762634700048
19441.75	0.0999826999614015	313	satiated	stimuli/non_foods\non-food_inanimate_waterlily.jpg	1	3	1	non-food_inanimate_waterlily	0	I	21	1	226	0		0	0	131.812618500087	131.912601200049
19479.25	0.099983699969016	314	satiated	stimuli/non_foods\non-food_animate_baby_crawling.jpg	1	3	1	non-food_animate_baby_crawling	0	M	9	0	92	0		0	0	131.962611000054	132.062594700023
19516.75	0.0999863999895751	315	satiated	stimuli/non_foods\non-food_animate_frog.jpg	1	3	1	non-food_animate_frog	0	F	3	0	113	0		0	0	132.112611300079	132.212597700069
19554.25	0.0999805999454111	316	satiated	stimuli/non_foods\non-food_inanimate_speakers.jpg	1	3	1	non-food_inanimate_speakers	0	X	17	0	212	0		0	0	132.262611300102	132.362591900048
19591.75	0.100001999991946	317	satiated	stimuli/foods\oyster.jpg	1	3	1	oyster	1	M	9	0	233	0		0	0	132.412592200097	132.512594200089
19629.25	0.0999846000922844	318	satiated	stimuli/non_foods\non-food_inanimate_guitar.jpg	1	3	1	non-food_inanimate_guitar	0	S	13	0	185	0		0	0	132.562606599997	132.662591200089
19666.75	0.100002699997276	319	satiated	stimuli/non_foods\non-food_inanimate_tulip.jpg	1	3	1	non-food_inanimate_tulip	0	T	14	0	224	0		0	0	132.712585000088	132.812587700086
19704.25	0.0999772999202833	320	satiated	stimuli/non_foods\non-food_inanimate_chair.jpg	1	3	1	non-food_inanimate_chair	0	W	16	0	172	0		0	0	132.862612100085	132.962589400006
19741.75	0.100003900006413	321	satiated	stimuli/foods\grapefruits.jpg	1	3	1	grapefruits	1	V	15	0	59	0		0	0	133.012580800103	133.112584700109
19779.25	0.099985699984245	322	satiated	stimuli/non_foods\non-food_animate_hummingbird.jpg	1	3	1	non-food_animate_hummingbird	0	T	14	0	120	0		0	0	133.162597300019	133.262583000003
19816.75	0.0999965999508277	323	satiated	stimuli/non_foods\non-food_animate_ladybug.jpg	1	3	1	non-food_animate_ladybug	0	S	13	0	124	0		0	0	133.312600600068	133.412597200018
19854.25	0.0999393999809399	324	satiated	stimuli/foods\toasted_bread_with_tomatoes.jpg	1	3	1	toasted_bread_with_tomatoes	1	B	0	0	275	0		0	0	133.462637500023	133.562576900003
19891.75	0.0999862999888137	325	satiated	stimuli/foods\grapes.jpg	1	3	1	grapes	1	L	8	0	60	0		0	0	133.612591100042	133.712577400031
19929.25	0.0999855999834836	326	satiated	stimuli/foods\cucumber.jpg	1	3	1	cucumber	1	M	9	0	41	0		0	0	133.762591600069	133.862577200052
19966.75	0.0999867999926209	327	satiated	stimuli/foods\peas.jpg	1	3	1	peas	1	H	5	0	240	0		0	0	133.912588000065	134.012574800057
20004.25	0.0999899000162259	328	satiated	stimuli/non_foods\non-food_inanimate_toilet.jpg	1	3	1	non-food_inanimate_toilet	0	L	8	0	220	0		0	0	134.062586300075	134.162576200091
20041.75	0.0999895000131801	329	satiated	stimuli/foods\potato_and_green_bean_salad.jpg	1	3	1	potato_and_green_bean_salad	1	T	14	0	246	0		0	0	134.21258130006	134.312570800073
20079.25	0.0999868999933824	330	satiated	stimuli/non_foods\non-food_inanimate_bush.jpg	1	3	1	non-food_inanimate_bush	0	F	3	0	167	0		0	0	134.3625834001	134.462570300093
20116.75	0.0999950999394059	331	satiated	stimuli/non_foods\non-food_inanimate_horn.jpg	1	3	1	non-food_inanimate_horn	0	T	14	0	190	0		0	0	134.5125804001	134.612575500039
20154.25	0.0999858999857679	332	satiated	stimuli/foods\papaya.jpg	1	3	1	papaya	1	X	17	0	235	0		0	0	134.662578000105	134.762563900091
20191.75	0.0999851999804378	333	satiated	stimuli/foods\pumpkin.jpg	1	3	1	pumpkin	1	T	14	0	250	0		0	0	134.812581100035	134.912566300016
20229.25	0.0999860999872908	334	satiated	stimuli/foods\fried_zucchini.jpg	1	3	1	fried_zucchini	1	N	10	0	51	0		0	0	134.962575600017	135.062561700004
20266.75	0.0999878000002354	335	satiated	stimuli/non_foods\non-food_inanimate_desk.jpg	1	3	1	non-food_inanimate_desk	0	R	12	0	178	0		0	0	135.112576400046	135.212564200046
20304.25	0.0999389999778941	336	satiated	stimuli/non_foods\non-food_animate_butterfly.jpg	1	3	1	non-food_animate_butterfly	0	A	19	1	96	0		0	0	135.262617000029	135.362556000007
20341.75	0.0999849999789149	337	satiated	stimuli/non_foods\non-food_inanimate_stapler.jpg	1	3	1	non-food_inanimate_stapler	0	C	1	0	213	0		0	0	135.412570000044	135.512555000023
20379.25	0.09996359993238	338	satiated	stimuli/non_foods\non-food_animate_raccoon.jpg	1	3	1	non-food_animate_raccoon	0	N	10	0	139	0		0	0	135.562570800073	135.662534400006
20416.75	0.0999831999652088	339	satiated	stimuli/foods\raisins.jpg	1	3	1	raisins	1	F	3	0	252	1	a	0.443167599965818	1	135.71256210003	135.812545299996
20454.25	0.0999881000025198	340	satiated	stimuli/foods\pickles.jpg	1	3	1	pickles	1	S	13	0	242	0		0	0	135.862556700013	135.962544800015
20491.75	0.0999875999987125	341	satiated	stimuli/foods\pineapple.jpg	1	3	1	pineapple	1	D	2	0	243	0		0	0	136.012556600035	136.112544200034
20529.25	0.099985699984245	342	satiated	stimuli/foods\honey.jpg	1	3	1	honey	1	N	10	0	66	0		0	0	136.162551400019	136.262537100003
20566.75	0.0999937000451609	343	satiated	stimuli/non_foods\non-food_animate_baby_sitting.jpg	1	3	1	non-food_animate_baby_sitting	0	K	7	0	93	0		0	0	136.312553900061	136.412547600106
20604.25	0.0999874999979511	344	satiated	stimuli/foods\pea_pod.jpg	1	3	1	pea_pod	1	W	16	0	237	0		0	0	136.46254670003	136.562534200028
20641.75	0.100007200031541	345	satiated	stimuli/foods\cinnamon.jpg	1	3	1	cinnamon	1	J	6	0	30	0		0	0	136.612548200064	136.712555400096
20679.25	0.0999852999811992	346	satiated	stimuli/non_foods\non-food_inanimate_chandelier.jpg	1	3	1	non-food_inanimate_chandelier	0	R	12	0	173	0		0	0	136.762556100031	136.862541400013
20716.75	0.100005300017074	347	satiated	stimuli/foods\radish.jpg	1	3	1	radish	1	H	5	0	251	0		0	0	136.912553700036	137.012559000053
20754.25	0.0999453000258654	348	satiated	stimuli/non_foods\non-food_animate_cat.jpg	1	3	1	non-food_animate_cat	0	J	6	0	98	0		0	0	137.062590899994	137.16253620002
20791.75	0.0999825999606401	349	satiated	stimuli/foods\spaghetti_with_meat_sauce.jpg	1	3	1	spaghetti_with_meat_sauce	1	B	0	0	267	0		0	0	137.21254940005	137.312532000011
20829.25	0.0999752000207081	350	satiated	stimuli/foods\cherry.jpg	1	3	1	cherry	1	M	9	0	23	0		0	0	137.362543200026	137.462518400047
20866.75	0.0999874999979511	351	satiated	stimuli/foods\spring_onions.jpg	1	3	1	spring_onions	1	B	0	0	269	0		0	0	137.512544800062	137.61253230006
20904.25	0.0999904000200331	352	satiated	stimuli/foods\fennel.jpg	1	3	1	fennel	1	K	7	0	47	0		0	0	137.662539400044	137.762529800064
20941.75	0.0999855999834836	353	satiated	stimuli/non_foods\non-food_animate_woman.jpg	1	3	1	non-food_animate_woman	0	V	15	0	154	0		0	0	137.812539200066	137.912524800049
20979.25	0.0999849999789149	354	satiated	stimuli/foods\beetroots.jpg	1	3	1	beetroots	1	N	10	0	10	0		0	0	137.962532900041	138.06251790002
21016.75	0.0999840999720618	355	satiated	stimuli/foods\bagel.jpg	1	3	1	bagel	1	P	11	0	6	0		0	0	138.112528900034	138.212513000006
21054.25	0.0999809999484569	356	satiated	stimuli/non_foods\non-food_inanimate_cap.jpg	1	3	1	non-food_inanimate_cap	0	L	8	0	171	0		0	0	138.262530700071	138.362511700019
21091.75	0.0999964000657201	357	satiated	stimuli/foods\chocolate_bar.jpg	1	3	1	chocolate_bar	1	S	13	0	26	0		0	0	138.412520500016	138.512516900082
21129.25	0.0999589000130072	358	satiated	stimuli/non_foods\non-food_inanimate_couch.jpg	1	3	1	non-food_inanimate_couch	0	F	3	0	176	0		0	0	138.56253190001	138.662490800023
21166.75	0.0999941000482067	359	satiated	stimuli/non_foods\non-food_inanimate_grass.jpg	1	3	1	non-food_inanimate_grass	0	B	0	0	184	0		0	0	138.712532300036	138.812526400085
21204.25	0.0999632999300957	360	satiated	stimuli/non_foods\non-food_inanimate_sun_flower.jpg	1	3	1	non-food_inanimate_sun_flower	0	P	11	0	216	0		0	0	138.862549900077	138.962513200007
21241.75	0.0999892000108957	361	satiated	stimuli/non_foods\non-food_inanimate_nettle.jpg	1	3	1	non-food_inanimate_nettle	0	L	8	0	197	0		0	0	139.012526200037	139.112515400047
21279.25	0.0999840999720618	362	satiated	stimuli/foods\fruit_salad.jpg	1	3	1	fruit_salad	1	V	15	0	55	0		0	0	139.162525300053	139.262509400025
21316.75	0.0999682999681681	363	satiated	stimuli/non_foods\non-food_animate_giraffe.jpg	1	3	1	non-food_animate_giraffe	0	U	23	1	115	0		0	0	139.312521500047	139.412489800015
21354.25	0.0999584000092	364	satiated	stimuli/foods\cinnamon_sroll.jpg	1	3	1	cinnamon_sroll	1	P	11	0	31	0		0	0	139.46252280008	139.56248120009
21391.75	0.099981699953787	365	satiated	stimuli/non_foods\non-food_inanimate_alarm_clock.jpg	1	3	1	non-food_inanimate_alarm_clock	0	L	8	0	158	0		0	0	139.612520900089	139.712502600043
21429.25	0.0999851999804378	366	satiated	stimuli/foods\cupcake.jpg	1	3	1	cupcake	1	T	14	0	42	0		0	0	139.762517500087	139.862502700067
21466.75	0.0999717999948189	367	satiated	stimuli/foods\salami.jpg	1	3	1	salami	1	C	1	0	263	1	a	0.593216600012966	1	139.912529500085	140.01250130008
21504.25	0.0999920999165624	368	satiated	stimuli/non_foods\non-food_inanimate_gloves.jpg	1	3	1	non-food_inanimate_gloves	0	S	13	0	183	0		0	0	140.062511100085	140.162503200001
21541.75	0.0999893000116572	369	satiated	stimuli/foods\swordfish.jpg	1	3	1	swordfish	1	P	11	0	273	0		0	0	140.212509500096	140.312498800107
21579.25	0.0999831000808626	370	satiated	stimuli/non_foods\non-food_inanimate_ring.jpg	1	3	1	non-food_inanimate_ring	0	V	15	0	203	0		0	0	140.362508599996	140.462491700076
21616.75	0.100012200069614	371	satiated	stimuli/non_foods\non-food_animate_llama.jpg	1	3	1	non-food_animate_llama	0	C	1	0	127	0		0	0	140.51249350002	140.61250570009
21654.25	0.0999489000532776	372	satiated	stimuli/non_foods\non-food_animate_camel.jpg	1	3	1	non-food_animate_camel	0	J	6	0	97	0		0	0	140.6625337	140.762482600054
21691.75	0.0999845999758691	373	satiated	stimuli/non_foods\non-food_inanimate_rack.jpg	1	3	1	non-food_inanimate_rack	0	N	10	0	202	0		0	0	140.812499000109	140.912483600085
21729.25	0.099981699953787	374	satiated	stimuli/foods\fruit_flan.jpg	1	3	1	fruit_flan	1	L	8	0	53	0		0	0	140.962494300096	141.06247600005
21766.75	0.100004900014028	375	satiated	stimuli/foods\cooked_prawn.jpg	1	3	1	cooked_prawn	1	S	13	0	36	0		0	0	141.112474100082	141.212479000096
21804.25	0.099980500061065	376	satiated	stimuli/foods\hamburger.jpg	1	3	1	hamburger	1	B	0	0	64	0		0	0	141.262492500013	141.362473000074
21841.75	0.100001199985854	377	satiated	stimuli/foods\wafer.jpg	1	3	1	wafer	1	N	10	0	277	0		0	0	141.412481200066	141.512482400052
21879.25	0.0999881000025198	378	satiated	stimuli/foods\donut.jpg	1	3	1	donut	1	M	9	0	44	0		0	0	141.562493800069	141.662481900072
21916.75	0.0999790000496432	379	satiated	stimuli/foods\salmon.jpg	1	3	1	salmon	1	B	0	0	264	0		0	0	141.712502600043	141.812481600093
21954.25	0.0999850999796763	380	satiated	stimuli/non_foods\non-food_animate_Asian_man.jpg	1	3	1	non-food_animate_Asian_man	0	Z	18	0	88	0		0	0	141.862481900025	141.962467000005
21991.75	0.0999864999903366	381	satiated	stimuli/non_foods\non-food_inanimate_nest.jpg	1	3	1	non-food_inanimate_nest	0	T	14	0	196	0		0	0	142.012482400052	142.112468900043
22029.25	0.0999938000459224	382	satiated	stimuli/foods\cabbage.jpg	1	3	1	cabbage	1	X	17	0	16	0		0	0	142.162480700063	142.262474500109
22066.75	0.099976500030607	383	satiated	stimuli/non_foods\non-food_inanimate_scissors.jpg	1	3	1	non-food_inanimate_scissors	0	D	2	0	205	0		0	0	142.312490900047	142.412467400078
22104.25	0.0999793000519276	384	satiated	stimuli/non_foods\non-food_inanimate_drum_set.jpg	1	3	1	non-food_inanimate_drum_set	0	S	13	0	179	0		0	0	142.462483700016	142.562463000068
22141.75	0.0999974999576807	385	satiated	stimuli/foods\steak.jpg	1	3	1	steak	1	N	10	0	270	0		0	0	142.612470000051	142.712467500009
22179.25	0.100003700004891	386	satiated	stimuli/non_foods\non-food_animate_ant.jpg	1	3	1	non-food_animate_ant	0	S	13	0	91	0		0	0	142.762455200078	142.862458900083
22216.75	0.099971100105904	387	satiated	stimuli/foods\ginger_root.jpg	1	3	1	ginger_root	1	L	8	0	57	0		0	0	142.9124725	143.012443600106
22254.25	0.0999811999499798	388	satiated	stimuli/non_foods\non-food_inanimate_construction_helment.jpg	1	3	1	non-food_inanimate_construction_helment	0	R	12	0	175	0		0	0	143.062480600085	143.162461800035
22291.75	0.0999882000032812	389	satiated	stimuli/foods\fried_calamari.jpg	1	3	1	fried_calamari	1	F	3	0	50	0		0	0	143.21247290005	143.312461100053
22329.25	0.10000749991741	390	satiated	stimuli/non_foods\non-food_animate_penguin.jpg	1	3	1	non-food_animate_penguin	0	C	1	0	135	0		0	0	143.362474000081	143.462481499999
22366.75	0.0999664000701159	391	satiated	stimuli/foods\meatballs.jpg	1	3	1	meatballs	1	S	13	0	81	0		0	0	143.512490399997	143.612456800067
22404.25	0.0999864999903366	392	satiated	stimuli/non_foods\non-food_animate_bee.jpg	1	3	1	non-food_animate_bee	0	V	15	0	95	0		0	0	143.662467900082	143.762454400072
22441.75	0.0999811000656337	393	satiated	stimuli/foods\oregano.jpg	1	3	1	oregano	1	Z	18	0	231	0		0	0	143.81247080001	143.912451900076
22479.25	0.0999921999173239	394	satiated	stimuli/non_foods\non-food_inanimate_stoplight.jpg	1	3	1	non-food_inanimate_stoplight	0	V	15	0	214	0		0	0	143.962463600095	144.062455800013
22516.75	0.0999761999119073	395	satiated	stimuli/foods\figs.jpg	1	3	1	figs	1	J	6	0	48	0		0	0	144.112477100105	144.212453300017
22554.25	0.09996530006174	396	satiated	stimuli/foods\nectarine.jpg	1	3	1	nectarine	1	H	5	0	87	0		0	0	144.26247950003	144.362444800092
22591.75	0.0999868999933824	397	satiated	stimuli/foods\raw_ham.jpg	1	3	1	raw_ham	1	J	6	0	253	0		0	0	144.412459400017	144.51244630001
22629.25	0.0999832999659702	398	satiated	stimuli/foods\rice_cake.jpg	1	3	1	rice_cake	1	G	4	0	258	0		0	0	144.562460500048	144.662443800014
22666.75	0.0999849999789149	399	satiated	stimuli/non_foods\non-food_inanimate_leaf.jpg	1	3	1	non-food_inanimate_leaf	0	W	16	0	192	0		0	0	144.712456000037	144.812441000016
22704.25	0.0999799999408424	400	satiated	stimuli/foods\cracker.jpg	1	3	1	cracker	1	G	4	0	38	0		0	0	144.862460500095	144.962440500036
22741.75	0.0999627000419423	401	satiated	stimuli/non_foods\non-food_inanimate_bed.jpg	1	3	1	non-food_inanimate_bed	0	P	11	0	160	0		0	0	145.012448000023	145.112410700065
22779.25	0.0999850000953302	402	satiated	stimuli/non_foods\non-food_inanimate_orchid.jpg	1	3	1	non-food_inanimate_orchid	0	V	15	0	198	0		0	0	145.162442700006	145.262427700101
22816.75	0.0999904000200331	403	satiated	stimuli/non_foods\non-food_animate_cheetah.jpg	1	3	1	non-food_animate_cheetah	0	K	7	0	100	0		0	0	145.312442700029	145.412433100049
22854.25	0.099985699984245	404	satiated	stimuli/non_foods\non-food_inanimate_cupboard.jpg	1	3	1	non-food_inanimate_cupboard	0	R	12	0	177	0		0	0	145.462445300072	145.562431000057
22891.75	0.0999872999964282	405	satiated	stimuli/foods\chocolate_pudding.jpg	1	3	1	chocolate_pudding	1	F	3	0	29	0		0	0	145.612444000086	145.712431300082
22929.25	0.0999884000048041	406	satiated	stimuli/foods\coffee_beans.jpg	1	3	1	coffee_beans	1	D	2	0	34	0		0	0	145.762444499996	145.862432900001
22966.75	0.0999639000510797	407	satiated	stimuli/non_foods\non-food_inanimate_teddy_bear.jpg	1	3	1	non-food_inanimate_teddy_bear	0	Z	18	0	218	0		0	0	145.912461000029	146.01242490008
23004.25	0.099984799977392	408	satiated	stimuli/non_foods\non-food_inanimate_padlock.jpg	1	3	1	non-food_inanimate_padlock	0	C	1	0	199	0		0	0	146.062442500028	146.162427300005
23041.75	0.0999859999865294	409	satiated	stimuli/foods\tomato.jpg	1	3	1	tomato	1	V	15	0	276	0		0	0	146.212436900008	146.312422899995
23079.25	0.0999853999819607	410	satiated	stimuli/non_foods\non-food_animate_caterpillar.jpg	1	3	1	non-food_animate_caterpillar	0	J	6	0	99	0		0	0	146.362434900017	146.462420299998
23116.75	0.0999854999827221	411	satiated	stimuli/non_foods\non-food_animate_pigeon.jpg	1	3	1	non-food_animate_pigeon	0	M	9	0	136	0		0	0	146.512434300035	146.612419800018
23154.25	0.0999875999987125	412	satiated	stimuli/foods\lemon.jpg	1	3	1	lemon	1	S	13	0	72	0		0	0	146.66242920002	146.762416800018
23191.75	0.0999933000421152	413	satiated	stimuli/non_foods\non-food_animate_mammoth.jpg	1	3	1	non-food_animate_mammoth	0	W	16	0	128	0		0	0	146.812422799994	146.912416100036
23229.25	0.0999855999834836	414	satiated	stimuli/foods\apple.jpg	1	3	1	apple	1	D	2	0	1	0		0	0	146.962428900064	147.062414500047
23266.75	0.0999896000139415	415	satiated	stimuli/foods\lollies.jpg	1	3	1	lollies	1	J	6	0	78	0		0	0	147.112425900064	147.212415500078
23304.25	0.0999873999971896	416	satiated	stimuli/foods\broccoli.jpg	1	3	1	broccoli	1	H	5	0	13	0		0	0	147.262425800087	147.362413200084
23341.75	0.0999879000009969	417	satiated	stimuli/foods\mango.jpg	1	3	1	mango	1	T	14	0	80	0		0	0	147.412419900065	147.512407800066
23379.25	0.0999930999241769	418	satiated	stimuli/foods\garlic.jpg	1	3	1	garlic	1	V	15	0	56	0		0	0	147.562420900096	147.66241400002
23416.75	0.099991700029932	419	satiated	stimuli/non_foods\non-food_animate_sea_lion.jpg	1	3	1	non-food_animate_sea_lion	0	L	8	0	143	0		0	0	147.712438100018	147.812429800048
23950	0.0999793999362737	420	satiated	stimuli/non_foods\non-food_inanimate_watering_can.jpg	1	4	1	non-food_inanimate_watering_can	0	G	4	0	225	0		0	0	149.845733700087	149.945713100024
23987.5	0.0999828999629244	421	satiated	stimuli/non_foods\non-food_animate_tortoise.jpg	1	4	1	non-food_animate_tortoise	0	Z	18	0	153	0		0	0	149.99572570005	150.095708600013
24025	0.0999772000359371	422	satiated	stimuli/foods\omelette.jpg	1	4	1	omelette	1	S	13	0	228	0		0	0	150.145723800058	150.245701000094
24062.5	0.0999795000534505	423	satiated	stimuli/foods\croissant.jpg	1	4	1	croissant	1	M	9	0	40	0		0	0	150.295712299994	150.395691800048
24100	0.0999863999895751	424	satiated	stimuli/non_foods\non-food_inanimate_rope.jpg	1	4	1	non-food_inanimate_rope	0	N	10	0	204	0		0	0	150.445712700021	150.54569910001
24137.5	0.100003300001845	425	satiated	stimuli/foods\minestrone_soup.jpg	1	4	1	minestrone_soup	1	D	2	0	82	0		0	0	150.595710800029	150.695714100031
24175	0.0999851999804378	426	satiated	stimuli/foods\mandarin.jpg	1	4	1	mandarin	1	R	12	0	79	0		0	0	150.745718000107	150.845703200088
24212.5	0.0999977000756189	427	satiated	stimuli/non_foods\non-food_inanimate_wrench.jpg	1	4	1	non-food_inanimate_wrench	0	J	6	0	227	0		0	0	150.895686000003	150.995683700079
24250	0.0999797999393195	428	satiated	stimuli/foods\mortadella.jpg	1	4	1	mortadella	1	H	5	0	83	0		0	0	151.045711800107	151.145691600046
24287.5	0.100026399944909	429	satiated	stimuli/non_foods\non-food_inanimate_fire_extinguisher.jpg	1	4	1	non-food_inanimate_fire_extinguisher	0	W	16	0	181	0		0	0	151.195708200103	151.295734600048
24325	0.0999721999978647	430	satiated	stimuli/non_foods\non-food_animate_polar_bear.jpg	1	4	1	non-food_animate_polar_bear	0	C	1	0	137	0		0	0	151.345721000107	151.445693200105
24362.5	0.0999859999865294	431	satiated	stimuli/foods\watermelon.jpg	1	4	1	watermelon	1	V	15	0	279	0		0	0	151.495704800007	151.595690799993
24400	0.0999889000086114	432	satiated	stimuli/foods\ice_cream.jpg	1	4	1	ice_cream	1	X	17	0	68	0		0	0	151.645704300026	151.745693200035
24437.5	0.0999813999515027	433	satiated	stimuli/non_foods\non-food_inanimate_towel.jpg	1	4	1	non-food_inanimate_towel	0	C	1	0	221	0		0	0	151.795706900069	151.895688300021
24475	0.0999867999926209	434	satiated	stimuli/non_foods\non-food_animate_duck.jpg	1	4	1	non-food_animate_duck	0	E	20	1	109	0		0	0	151.945698000025	152.045684800018
24512.5	0.0999845999758691	435	satiated	stimuli/foods\pasta_carbonara.jpg	1	4	1	pasta_carbonara	1	W	16	0	236	0		0	0	152.095700700069	152.195685300045
24550	0.099986599991098	436	satiated	stimuli/non_foods\non-food_animate_slug.jpg	1	4	1	non-food_animate_slug	0	G	4	0	148	0		0	0	152.245696100057	152.345682700048
24587.5	0.0999883000040427	437	satiated	stimuli/non_foods\non-food_animate_eagle.jpg	1	4	1	non-food_animate_eagle	0	R	12	0	110	0		0	0	152.395695000072	152.495683300076
24625	0.0999924000352621	438	satiated	stimuli/non_foods\non-food_animate_student_female.jpg	1	4	1	non-food_animate_student_female	0	M	9	0	151	1	a	0.593194500077516	1	152.545688000042	152.645680400077
24662.5	0.099983699969016	439	satiated	stimuli/foods\risotto_with_peas_and_asparagus_tips.jpg	1	4	1	risotto_with_peas_and_asparagus_tips	1	B	0	0	259	0		0	0	152.695690900087	152.795674600056
24700	0.0999975999584422	440	satiated	stimuli/non_foods\non-food_inanimate_fern.jpg	1	4	1	non-food_inanimate_fern	0	S	13	0	180	0		0	0	152.845669600065	152.945667200023
24737.5	0.100010500056669	441	satiated	stimuli/foods\waffle.jpg	1	4	1	waffle	1	W	16	0	278	0		0	0	152.995678700041	153.095689200098
24775	0.0999475999269634	442	satiated	stimuli/non_foods\non-food_inanimate_hammer.jpg	1	4	1	non-food_inanimate_hammer	0	H	5	0	186	0		0	0	153.145714800106	153.245662400033
24812.5	0.0999857999850065	443	satiated	stimuli/non_foods\non-food_inanimate_soccer_ball.jpg	1	4	1	non-food_inanimate_soccer_ball	0	S	13	0	210	0		0	0	153.295688100043	153.395673900028
24850	0.0999718999955803	444	satiated	stimuli/foods\pear.jpg	1	4	1	pear	1	L	8	0	239	0		0	0	153.445685200044	153.54565710004
24887.5	0.1000015999889	445	satiated	stimuli/foods\hazelnuts.jpg	1	4	1	hazelnuts	1	R	12	0	65	0		0	0	153.595667900052	153.695669500041
24925	0.0999842999735847	446	satiated	stimuli/non_foods\non-food_inanimate_bowling_ball.jpg	1	4	1	non-food_inanimate_bowling_ball	0	G	4	0	162	0		0	0	153.745679300046	153.845663600019
24962.5	0.0999855999834836	447	satiated	stimuli/non_foods\non-food_animate_seahorse.jpg	1	4	1	non-food_animate_seahorse	0	N	10	0	145	0		0	0	153.895675600041	153.995661200024
25000	0.0999907000223175	448	satiated	stimuli/non_foods\non-food_animate_grasshopper.jpg	1	4	1	non-food_animate_grasshopper	0	C	1	0	117	0		0	0	154.045674500056	154.145665200078
25037.5	0.0999830999644473	449	satiated	stimuli/non_foods\non-food_animate_dachshund.jpg	1	4	1	non-food_animate_dachshund	0	F	3	0	104	0		0	0	154.195675600087	154.295658700052
25075	0.0999883000040427	450	satiated	stimuli/non_foods\non-food_animate_cow.jpg	1	4	1	non-food_animate_cow	0	C	1	0	103	0		0	0	154.345669200062	154.445657500066
25112.5	0.0999831999652088	451	satiated	stimuli/foods\stew_with_potatoes_and_carrots.jpg	1	4	1	stew_with_potatoes_and_carrots	1	P	11	0	271	0		0	0	154.495671800105	154.59565500007
25150	0.0999889000086114	452	satiated	stimuli/non_foods\non-food_inanimate_tree.jpg	1	4	1	non-food_inanimate_tree	0	A	19	1	223	0		0	0	154.645667200093	154.745656100102
25187.5	0.100013700081035	453	satiated	stimuli/non_foods\non-food_inanimate_folding_chair.jpg	1	4	1	non-food_inanimate_folding_chair	0	M	9	0	182	0		0	0	154.795666799997	154.895680500078
25225	0.0999373000813648	454	satiated	stimuli/non_foods\non-food_inanimate_hay.jpg	1	4	1	non-food_inanimate_hay	0	P	11	0	187	1	a	0.391868499922566	1	154.945712800021	155.045650100103
25262.5	0.0999838000861928	455	satiated	stimuli/non_foods\non-food_animate_monkey.jpg	1	4	1	non-food_animate_monkey	0	C	1	0	130	0		0	0	155.0956611	155.195644900086
25300	0.0999863999895751	456	satiated	stimuli/foods\lime.jpg	1	4	1	lime	1	F	3	0	76	0		0	0	155.245662900037	155.345649300027
25337.5	0.0999733000062406	457	satiated	stimuli/non_foods\non-food_animate_young_girl.jpg	1	4	1	non-food_animate_young_girl	0	T	14	0	157	0		0	0	155.395657300018	155.495630600024
25375	0.0999871999956667	458	satiated	stimuli/foods\brie.jpg	1	4	1	brie	1	P	11	0	12	0		0	0	155.5456497001	155.645636900095
25412.5	0.0999849999789149	459	satiated	stimuli/foods\potato_chips.jpg	1	4	1	potato_chips	1	T	14	0	247	0		0	0	155.695645700092	155.795630700071
25450	0.0999953000573441	460	satiated	stimuli/non_foods\non-food_animate_horse.jpg	1	4	1	non-food_animate_horse	0	Z	18	0	119	0		0	0	155.845646100002	155.94564140006
25487.5	0.0999850000953302	461	satiated	stimuli/foods\gnocchi.jpg	1	4	1	gnocchi	1	W	16	0	58	0		0	0	155.995644300012	156.095629300107
25525	0.0999885000055656	462	satiated	stimuli/non_foods\non-food_animate_sea_turtle.jpg	1	4	1	non-food_animate_sea_turtle	0	L	8	0	144	0		0	0	156.145641500014	156.245630000019
25562.5	0.0999830000801012	463	satiated	stimuli/non_foods\non-food_inanimate_bamboo.jpg	1	4	1	non-food_inanimate_bamboo	0	H	5	0	159	0		0	0	156.295637500007	156.395620500087
25600	0.100004500010982	464	satiated	stimuli/foods\dates.jpg	1	4	1	dates	1	Z	18	0	43	0		0	0	156.445626000059	156.54563050007
25637.5	0.100034000002779	465	satiated	stimuli/non_foods\non-food_animate_german_shepherd.jpg	1	4	1	non-food_animate_german_shepherd	0	G	4	0	114	0		0	0	156.595638100058	156.695672100061
25675	0.0999692999757826	466	satiated	stimuli/non_foods\non-food_animate_alligator.jpg	1	4	1	non-food_animate_alligator	0	R	12	0	90	0		0	0	156.745663200039	156.845632500015
25712.5	0.0999850000953302	467	satiated	stimuli/non_foods\non-food_inanimate_shell.jpg	1	4	1	non-food_inanimate_shell	0	N	10	0	206	0		0	0	156.895640700008	156.995625700103
25750	0.0999888000078499	468	satiated	stimuli/foods\chocolate_pralines.jpg	1	4	1	chocolate_pralines	1	K	7	0	28	0		0	0	157.045638500014	157.145627300022
25787.5	0.0999893998960033	469	satiated	stimuli/foods\banana.jpg	1	4	1	banana	1	Z	18	0	9	0		0	0	157.195632500108	157.295621900004
25825	0.0999859999865294	470	satiated	stimuli/foods\prawn.jpg	1	4	1	prawn	1	L	8	0	249	0		0	0	157.345633700024	157.445619700011
25862.5	0.0999884000048041	471	satiated	stimuli/foods\taco.jpg	1	4	1	taco	1	W	16	0	274	0		0	0	157.49563400005	157.595622400055
25900	0.0999858999857679	472	satiated	stimuli/foods\orange.jpg	1	4	1	orange	1	F	3	0	230	0		0	0	157.645633300068	157.745619200054
25937.5	0.0999928000383079	473	satiated	stimuli/foods\cauliflower.jpg	1	4	1	cauliflower	1	J	6	0	20	0		0	0	157.79563920002	157.895632000058
25975	0.0999707999872044	474	satiated	stimuli/foods\cannoli.jpg	1	4	1	cannoli	1	R	12	0	17	0		0	0	157.945638400037	158.045609200024
26012.5	0.0999974000733346	475	satiated	stimuli/foods\oven-roasted_tomatoes.jpg	1	4	1	oven-roasted_tomatoes	1	M	9	0	232	0		0	0	158.095604600036	158.195602000109
26050	0.0999776000389829	476	satiated	stimuli/foods\blackberry.jpg	1	4	1	blackberry	1	W	16	0	11	0		0	0	158.245617500041	158.34559510008
26087.5	0.0999711999902502	477	satiated	stimuli/non_foods\non-food_inanimate_button.jpg	1	4	1	non-food_inanimate_button	0	S	13	0	168	0		0	0	158.395626400015	158.495597600006
26125	0.0999678999651223	478	satiated	stimuli/foods\rockmelon.jpg	1	4	1	rockmelon	1	L	8	0	262	0		0	0	158.54563190008	158.645599800046
26162.5	0.100003200001083	479	satiated	stimuli/foods\brownie.jpg	1	4	1	brownie	1	B	0	0	14	0		0	0	158.695604400011	158.795607600012
26200	0.0999778000405058	480	satiated	stimuli/non_foods\non-food_inanimate_skateboard.jpg	1	4	1	non-food_inanimate_skateboard	0	S	13	0	208	0		0	0	158.845599099994	158.945576900034
26237.5	0.099986599991098	481	satiated	stimuli/foods\lentils.jpg	1	4	1	lentils	1	M	9	0	74	0		0	0	158.995615600026	159.095602200017
26275	0.0999883000040427	482	satiated	stimuli/non_foods\non-food_inanimate_short_sleeved_shirt.jpg	1	4	1	non-food_inanimate_short_sleeved_shirt	0	S	13	0	207	0		0	0	159.14561310003	159.245601400035
26312.5	0.0999834999674931	483	satiated	stimuli/non_foods\non-food_animate_millipede.jpg	1	4	1	non-food_animate_millipede	0	N	10	0	129	0		0	0	159.295613000053	159.39559650002
26350	0.0999873999971896	484	satiated	stimuli/non_foods\non-food_animate_seal.jpg	1	4	1	non-food_animate_seal	0	D	2	0	146	0		0	0	159.44561090006	159.545598300057
26387.5	0.099986599991098	485	satiated	stimuli/foods\smoked_ham.jpg	1	4	1	smoked_ham	1	S	13	0	266	0		0	0	159.595605600043	159.695592200034
26425	0.0999870999949053	486	satiated	stimuli/foods\eggplant.jpg	1	4	1	eggplant	1	N	10	0	46	0		0	0	159.745606500073	159.845593600068
26462.5	0.0999868999933824	487	satiated	stimuli/non_foods\non-food_animate_green_bug.jpg	1	4	1	non-food_animate_green_bug	0	H	5	0	118	0		0	0	159.895604500081	159.995591400075
26500	0.0999783999286592	488	satiated	stimuli/foods\linguine_with_clams.jpg	1	4	1	linguine_with_clams	1	C	1	0	77	0		0	0	160.045604500105	160.145582900033
26537.5	0.100003600004129	489	satiated	stimuli/non_foods\non-food_inanimate_highlighter.jpg	1	4	1	non-food_inanimate_highlighter	0	K	7	0	189	0		0	0	160.195576700033	160.295580300037
26575	0.0999746000161394	490	satiated	stimuli/foods\risotto_with_zucchini.jpg	1	4	1	risotto_with_zucchini	1	J	6	0	260	0		0	0	160.34560120001	160.445575800026
26612.5	0.0999863999895751	491	satiated	stimuli/foods\clams.jpg	1	4	1	clams	1	P	11	0	32	0		0	0	160.495586200035	160.595572600025
26650	0.0999814999522641	492	satiated	stimuli/non_foods\non-food_inanimate_clover.jpg	1	4	1	non-food_inanimate_clover	0	N	10	0	174	0		0	0	160.645590000087	160.74557150004
26687.5	0.0999824999598786	493	satiated	stimuli/foods\cereal.jpg	1	4	1	cereal	1	S	13	0	22	0		0	0	160.795587100089	160.895569600048
26725	0.0999849999789149	494	satiated	stimuli/non_foods\non-food_inanimate_socks.jpg	1	4	1	non-food_inanimate_socks	0	P	11	0	211	0		0	0	160.945585000096	161.045570000075
26762.5	0.0999866001075134	495	satiated	stimuli/non_foods\non-food_inanimate_headphones.jpg	1	4	1	non-food_inanimate_headphones	0	V	15	0	188	0		0	0	161.0955693	161.195555900107
26800	0.0999799999408424	496	satiated	stimuli/non_foods\non-food_animate_clown.jpg	1	4	1	non-food_animate_clown	0	F	3	0	102	0		0	0	161.245588500053	161.345568499994
26837.5	0.099994600052014	497	satiated	stimuli/non_foods\non-food_animate_snail.jpg	1	4	1	non-food_animate_snail	0	D	2	0	149	0		0	0	161.395577999996	161.495572600048
26875	0.0999901000177488	498	satiated	stimuli/foods\strawberry.jpg	1	4	1	strawberry	1	G	4	0	272	0		0	0	161.545586600085	161.645576700103
26912.5	0.0999663999537006	499	satiated	stimuli/foods\cream_donuts.jpg	1	4	1	cream_donuts	1	R	12	0	39	0		0	0	161.695582200075	161.795548600028
26950	0.100009000045247	500	satiated	stimuli/foods\lettuce.jpg	1	4	1	lettuce	1	E	20	1	75	0		0	0	161.845556900022	161.945565900067
26987.5	0.100000399979763	501	satiated	stimuli/foods\baked_cod_with_carrots_and_green_beans.jpg	1	4	1	baked_cod_with_carrots_and_green_beans	1	Z	18	0	7	0		0	0	161.995578500093	162.095578900073
27025	0.0999705999856815	502	satiated	stimuli/foods\onion.jpg	1	4	1	onion	1	W	16	0	229	0		0	0	162.145590800093	162.245561400079
27062.5	0.100009500049055	503	satiated	stimuli/non_foods\non-food_animate_rhino.jpg	1	4	1	non-food_animate_rhino	0	X	17	0	141	0		0	0	162.295552200056	162.395561700105
27100	0.0999980999622494	504	satiated	stimuli/non_foods\non-food_animate_lion.jpg	1	4	1	non-food_animate_lion	0	Z	18	0	125	1	a	0.593212899984792	1	162.445570900105	162.545569000067
27137.5	0.10000299999956	505	satiated	stimuli/non_foods\non-food_inanimate_tent.jpg	1	4	1	non-food_inanimate_tent	0	B	0	0	219	0		0	0	162.595555000007	162.695558000007
27175	0.0999860999872908	506	satiated	stimuli/non_foods\non-food_inanimate_table.jpg	1	4	1	non-food_inanimate_table	0	J	6	0	217	0		0	0	162.745562300086	162.845548400073
27212.5	0.0999866999918595	507	satiated	stimuli/non_foods\non-food_inanimate_protractor.jpg	1	4	1	non-food_inanimate_protractor	0	H	5	0	201	0		0	0	162.895559000084	162.995545700076
27250	0.100039200042374	508	satiated	stimuli/non_foods\non-food_animate_deer.jpg	1	4	1	non-food_animate_deer	0	X	17	0	105	0		0	0	163.045544499997	163.145583700039
27287.5	0.0999569999985397	509	satiated	stimuli/foods\egg.jpg	1	4	1	egg	1	N	10	0	45	0		0	0	163.195563500049	163.295520500047
27325	0.0999933000421152	510	satiated	stimuli/foods\fruit_pie.jpg	1	4	1	fruit_pie	1	T	14	0	54	0		0	0	163.345555200009	163.445548500051
27362.5	0.099981699953787	511	satiated	stimuli/non_foods\non-food_animate_dragonfly.jpg	1	4	1	non-food_animate_dragonfly	0	M	9	0	108	0		0	0	163.495562000084	163.595543700038
27400	0.0999974000733346	512	satiated	stimuli/foods\almonds.jpg	1	4	1	almonds	1	T	14	0	0	0		0	0	163.645550200017	163.745547600091
27437.5	0.0999497000593692	513	satiated	stimuli/non_foods\non-food_animate_lizard.jpg	1	4	1	non-food_animate_lizard	0	L	8	0	126	0		0	0	163.795594000025	163.895543700084
27475	0.099977899924852	514	satiated	stimuli/foods\pancakes.jpg	1	4	1	pancakes	1	F	3	0	234	0		0	0	163.945567400078	164.045545300003
27512.5	0.0999800000572577	515	satiated	stimuli/foods\red_beans.jpg	1	4	1	red_beans	1	V	15	0	255	0		0	0	164.095556200016	164.195536200074
27550	0.0999824000755325	516	satiated	stimuli/non_foods\non-food_inanimate_briefcase.jpg	1	4	1	non-food_inanimate_briefcase	0	H	5	0	163	0		0	0	164.245552400011	164.345534800086
27587.5	0.100005900021642	517	satiated	stimuli/non_foods\non-food_inanimate_suitcase.jpg	1	4	1	non-food_inanimate_suitcase	0	R	12	0	215	0		0	0	164.395528100082	164.495534000103
27625	0.0999815999530256	518	satiated	stimuli/non_foods\non-food_animate_peacock.jpg	1	4	1	non-food_animate_peacock	0	F	3	0	134	0		0	0	164.545552400057	164.64553400001
27662.5	0.0999874999979511	519	satiated	stimuli/foods\pork_and_rice.jpg	1	4	1	pork_and_rice	1	R	12	0	245	0		0	0	164.695542100002	164.7955296
27700	0.0999610000289977	520	satiated	stimuli/foods\savory_pie.jpg	1	4	1	savory_pie	1	P	11	0	265	0		0	0	164.845544500044	164.945505500073
27737.5	0.10002470004838	521	satiated	stimuli/foods\carrot.jpg	1	4	1	carrot	1	S	13	0	19	0		0	0	164.995511000045	165.095535700093
27775	0.0999866999918595	522	satiated	stimuli/non_foods\non-food_animate_porcupine.jpg	1	4	1	non-food_animate_porcupine	0	L	8	0	138	0		0	0	165.145538800047	165.245525500039
27812.5	0.0999869999941438	523	satiated	stimuli/foods\green_olives.jpg	1	4	1	green_olives	1	P	11	0	62	0		0	0	165.295538400067	165.395525400061
27850	0.0999755000229925	524	satiated	stimuli/foods\kiwi.jpg	1	4	1	kiwi	1	Z	18	0	69	0		0	0	165.445534100058	165.545509600081
27887.5	0.100001699989662	525	satiated	stimuli/foods\fries.jpg	1	4	1	fries	1	J	6	0	52	0		0	0	165.595520400093	165.695522100083
27925	0.0999740000115708	526	satiated	stimuli/foods\coconut.jpg	1	4	1	coconut	1	B	0	0	33	0		0	0	165.745529300068	165.845503300079
27962.5	0.0999873999971896	527	satiated	stimuli/foods\artichoke.jpg	1	4	1	artichoke	1	T	14	0	3	0		0	0	165.895530700102	165.995518100099
28000	0.099985699984245	528	satiated	stimuli/foods\corncob.jpg	1	4	1	corncob	1	H	5	0	37	0		0	0	166.045522900065	166.14550860005
28037.5	0.0999812999507412	529	satiated	stimuli/non_foods\non-food_animate_swan.jpg	1	4	1	non-food_animate_swan	0	L	8	0	152	0		0	0	166.195517200045	166.295498499996
28075	0.099986599991098	530	satiated	stimuli/foods\apricot.jpg	1	4	1	apricot	1	F	3	0	2	0		0	0	166.34551740007	166.445504000061
28112.5	0.099984799977392	531	satiated	stimuli/non_foods\non-food_inanimate_moss.jpg	1	4	1	non-food_inanimate_moss	0	P	11	0	194	0		0	0	166.49551170005	166.595496500027
28150	0.0999942999333143	532	satiated	stimuli/non_foods\non-food_inanimate_bicycle.jpg	1	4	1	non-food_inanimate_bicycle	0	V	15	0	161	0		0	0	166.645516200108	166.745510500041
28187.5	0.0999814999522641	533	satiated	stimuli/non_foods\non-food_animate_bat.jpg	1	4	1	non-food_animate_bat	0	S	13	0	94	0		0	0	166.795513400109	166.895494900062
28225	0.0999958999454975	534	satiated	stimuli/non_foods\non-food_inanimate_canoe.jpg	1	4	1	non-food_inanimate_canoe	0	B	0	0	170	0		0	0	166.945508700097	167.045504600042
28262.5	0.0999866999918595	535	satiated	stimuli/foods\capsicum.jpg	1	4	1	capsicum	1	W	16	0	18	0		0	0	167.095516800066	167.195503500057
28300	0.100014299969189	536	satiated	stimuli/non_foods\non-food_animate_owl.jpg	1	4	1	non-food_animate_owl	0	L	8	0	132	0		0	0	167.245518500102	167.345532800071
28337.5	0.10003339999821	537	satiated	stimuli/foods\raw_sausage.jpg	1	4	1	raw_sausage	1	T	14	0	254	0		0	0	167.395482600085	167.495516000083
28375	0.09998430009	538	satiated	stimuli/non_foods\non-food_animate_kangaroo.jpg	1	4	1	non-food_animate_kangaroo	0	Z	18	0	122	0		0	0	167.545513799996	167.645498100086
28412.5	0.0999717999948189	539	satiated	stimuli/foods\roasted_chicken.jpg	1	4	1	roasted_chicken	1	P	11	0	261	0		0	0	167.695509900106	167.795481700101
28450	0.0999878000002354	540	satiated	stimuli/non_foods\non-food_animate_runner.jpg	1	4	1	non-food_animate_runner	0	X	17	0	142	0		0	0	167.845497100032	167.945484900032
28487.5	0.0999794999370351	541	satiated	stimuli/non_foods\non-food_inanimate_nailpolish.jpg	1	4	1	non-food_inanimate_nailpolish	0	Z	18	0	195	0		0	0	167.995498800068	168.095478300005
28525	0.0999846999766305	542	satiated	stimuli/non_foods\non-food_inanimate_skirt.jpg	1	4	1	non-food_inanimate_skirt	0	W	16	0	209	0		0	0	168.145496600075	168.245481300051
28562.5	0.0999904000200331	543	satiated	stimuli/foods\peach.jpg	1	4	1	peach	1	N	10	0	238	0		0	0	168.295491300058	168.395481700078
28600	0.0999878000002354	544	satiated	stimuli/non_foods\non-food_animate_yellow_bug.jpg	1	4	1	non-food_animate_yellow_bug	0	Z	18	0	155	0		0	0	168.445490200073	168.545478000073
28637.5	0.100005600019358	545	satiated	stimuli/non_foods\non-food_animate_Causasian_man.jpg	1	4	1	non-food_animate_Causasian_man	0	L	8	0	89	0		0	0	168.595484700054	168.695490300073
28675	0.100008899928071	546	satiated	stimuli/foods\museli_bars.jpg	1	4	1	museli_bars	1	J	6	0	84	0		0	0	168.745484100073	168.845493000001
28712.5	0.100017999997362	547	satiated	stimuli/foods\brussel_sprouts.jpg	1	4	1	brussel_sprouts	1	T	14	0	15	0		0	0	168.895459900028	168.995477900025
28750	0.100014999974519	548	satiated	stimuli/foods\baked_lamb_with_potatoes.jpg	1	4	1	baked_lamb_with_potatoes	1	Z	18	0	8	0		0	0	169.04549030005	169.145505300025
28787.5	0.0999600000213832	549	satiated	stimuli/non_foods\non-food_animate_young_boy.jpg	1	4	1	non-food_animate_young_boy	0	C	1	0	156	0		0	0	169.195516800042	169.295476800064
28825	0.0999855999834836	550	satiated	stimuli/non_foods\non-food_inanimate_cactus_pot_plant.jpg	1	4	1	non-food_inanimate_cactus_pot_plant	0	F	3	0	169	0		0	0	169.345487100072	169.445472700056
28862.5	0.0999844000907615	551	satiated	stimuli/non_foods\non-food_inanimate_lighter.jpg	1	4	1	non-food_inanimate_lighter	0	K	7	0	193	0		0	0	169.495488999994	169.595473400084
28900	0.0999880000017583	552	satiated	stimuli/foods\asparagus.jpg	1	4	1	asparagus	1	C	1	0	4	0		0	0	169.645482300082	169.745470300084
28937.5	0.0999915999127552	553	satiated	stimuli/non_foods\non-food_animate_ram.jpg	1	4	1	non-food_animate_ram	0	H	5	0	140	0		0	0	169.7954816001	169.895473200013
28975	0.0999839999713004	554	satiated	stimuli/foods\lemon_meringue_pie.jpg	1	4	1	lemon_meringue_pie	1	G	4	0	73	0		0	0	169.945484200027	170.045468199998
29012.5	0.0999858999857679	555	satiated	stimuli/foods\mushroom.jpg	1	4	1	mushroom	1	V	15	0	85	0		0	0	170.095479200012	170.195465099998
29050	0.0999681999674067	556	satiated	stimuli/non_foods\non-food_animate_skunk.jpg	1	4	1	non-food_animate_skunk	0	Z	18	0	147	0		0	0	170.245497100055	170.345465300023
29087.5	0.0999797000549734	557	satiated	stimuli/foods\chestnut.jpg	1	4	1	chestnut	1	F	3	0	24	0		0	0	170.395477600046	170.495457300101
29125	0.0999845999758691	558	satiated	stimuli/non_foods\non-food_animate_chicken.jpg	1	4	1	non-food_animate_chicken	0	D	2	0	101	0		0	0	170.545474200044	170.64545880002
29162.5	0.0999782000435516	559	satiated	stimuli/non_foods\non-food_animate_donkey.jpg	1	4	1	non-food_animate_donkey	0	N	10	0	107	0		0	0	170.695469600032	170.795447800076
29908.25	0.0999815999530256	560	satiated	stimuli/non_foods\non-food_inanimate_clover.jpg	1	5	1	non-food_inanimate_clover	0	K	7	0	174	0		0	0	173.678761900053	173.778743500006
29945.75	0.100002899998799	561	satiated	stimuli/foods\red_beans.jpg	1	5	1	red_beans	1	B	0	0	255	0		0	0	173.828751599998	173.928754499997
29983.25	0.0999851999804378	562	satiated	stimuli/foods\linguine_with_clams.jpg	1	5	1	linguine_with_clams	1	S	13	0	77	0		0	0	173.978772700066	174.078757900046
30020.75	0.0999829999636859	563	satiated	stimuli/foods\nectarine.jpg	1	5	1	nectarine	1	X	17	0	87	0		0	0	174.12876760005	174.228750600014
30058.25	0.0999820000724867	564	satiated	stimuli/non_foods\non-food_animate_sea_lion.jpg	1	5	1	non-food_animate_sea_lion	0	P	11	0	143	0		0	0	174.278777800035	174.378759800107
30095.75	0.0999833999667317	565	satiated	stimuli/foods\blackberry.jpg	1	5	1	blackberry	1	X	17	0	11	0		0	0	174.428764900076	174.528748300043
30133.25	0.0999863999895751	566	satiated	stimuli/non_foods\non-food_animate_green_bug.jpg	1	5	1	non-food_animate_green_bug	0	B	0	0	118	0		0	0	174.578761100071	174.67874750006
30170.75	0.0999680999666452	567	satiated	stimuli/foods\potato_chips.jpg	1	5	1	potato_chips	1	F	3	0	247	0		0	0	174.728760800092	174.828728900058
30208.25	0.099980799946934	568	satiated	stimuli/foods\grilled_chicken_breast.jpg	1	5	1	grilled_chicken_breast	1	M	9	0	63	0		0	0	174.878759200103	174.97874000005
30245.75	0.0999750000191852	569	satiated	stimuli/foods\rice.jpg	1	5	1	rice	1	K	7	0	257	0		0	0	175.028757099994	175.128732100013
30283.25	0.0999844999751076	570	satiated	stimuli/foods\tomato.jpg	1	5	1	tomato	1	F	3	0	276	0		0	0	175.17874480004	175.278729300015
30320.75	0.0999846999766305	571	satiated	stimuli/foods\museli_bars.jpg	1	5	1	museli_bars	1	R	12	0	84	0		0	0	175.32874180004	175.428726500017
30358.25	0.0999904000200331	572	satiated	stimuli/foods\pickles.jpg	1	5	1	pickles	1	H	5	0	242	0		0	0	175.478739400045	175.578729800065
30395.75	0.0999800999416038	573	satiated	stimuli/foods\lemon.jpg	1	5	1	lemon	1	L	8	0	72	0		0	0	175.62875360006	175.728733700002
30433.25	0.100009800051339	574	satiated	stimuli/foods\mango.jpg	1	5	1	mango	1	V	15	0	80	0		0	0	175.778718400048	175.878728200099
30470.75	0.0999874999979511	575	satiated	stimuli/non_foods\non-food_animate_penguin.jpg	1	5	1	non-food_animate_penguin	0	S	13	0	135	0		0	0	175.928743200027	176.028730700025
30508.25	0.0999819999560714	576	satiated	stimuli/foods\lasagna.jpg	1	5	1	lasagna	1	B	0	0	71	0		0	0	176.078743300051	176.178725300007
30545.75	0.0999712999910116	577	satiated	stimuli/foods\garlic.jpg	1	5	1	garlic	1	G	4	0	56	0		0	0	176.228741600062	176.328712900053
30583.25	0.0999891998944804	578	satiated	stimuli/non_foods\non-food_inanimate_cactus_pot_plant.jpg	1	5	1	non-food_inanimate_cactus_pot_plant	0	C	1	0	169	0		0	0	176.378728500102	176.478717699996
30620.75	0.0999894000124186	579	satiated	stimuli/non_foods\non-food_animate_mammoth.jpg	1	5	1	non-food_animate_mammoth	0	N	10	0	128	0		0	0	176.528724600095	176.628714000108
30658.25	0.099992600036785	580	satiated	stimuli/non_foods\non-food_animate_young_girl.jpg	1	5	1	non-food_animate_young_girl	0	E	20	1	157	0		0	0	176.678725400008	176.778718000045
30695.75	0.0999572000000626	581	satiated	stimuli/foods\cream_donuts.jpg	1	5	1	cream_donuts	1	X	17	0	39	0		0	0	176.828734700102	176.928691900102
30733.25	0.0999893000116572	582	satiated	stimuli/foods\pomegranate.jpg	1	5	1	pomegranate	1	Z	18	0	244	0		0	0	176.978728900081	177.078718200093
30770.75	0.099982300074771	583	satiated	stimuli/non_foods\non-food_animate_grasshopper.jpg	1	5	1	non-food_animate_grasshopper	0	C	1	0	117	1	a	0.443227800074965	1	177.12873170001	177.228714000084
30808.25	0.0999860999872908	584	satiated	stimuli/foods\lemon_meringue_pie.jpg	1	5	1	lemon_meringue_pie	1	F	3	0	73	0		0	0	177.278728900012	177.378714999999
30845.75	0.099987699999474	585	satiated	stimuli/foods\grapefruits.jpg	1	5	1	grapefruits	1	X	17	0	59	0		0	0	177.428726200014	177.528713900014
30883.25	0.100002099992707	586	satiated	stimuli/non_foods\non-food_inanimate_folding_chair.jpg	1	5	1	non-food_inanimate_folding_chair	0	N	10	0	182	0		0	0	177.578703300096	177.678705400089
30920.75	0.0999861999880522	587	satiated	stimuli/non_foods\non-food_animate_clown.jpg	1	5	1	non-food_animate_clown	0	S	13	0	102	0		0	0	177.728719000006	177.828705199994
30958.25	0.0999835999682546	588	satiated	stimuli/foods\lentils.jpg	1	5	1	lentils	1	V	15	0	74	0		0	0	177.878721900051	177.97870550002
30995.75	0.0999579000053927	589	satiated	stimuli/foods\ice_cream.jpg	1	5	1	ice_cream	1	K	7	0	68	0		0	0	178.028718400048	178.128676300053
31033.25	0.0999894000124186	590	satiated	stimuli/foods\pancakes.jpg	1	5	1	pancakes	1	N	10	0	234	0		0	0	178.178705200087	178.2786946001
31070.75	0.0999919000314549	591	satiated	stimuli/non_foods\non-food_animate_skunk.jpg	1	5	1	non-food_animate_skunk	0	V	15	0	147	0		0	0	178.328693600022	178.428685500054
31108.25	0.0999875999987125	592	satiated	stimuli/foods\pear.jpg	1	5	1	pear	1	X	17	0	239	0		0	0	178.478701800108	178.578689400107
31145.75	0.0999842999735847	593	satiated	stimuli/foods\cannoli.jpg	1	5	1	cannoli	1	T	14	0	17	0		0	0	178.628703500028	178.728687800001
31183.25	0.0999874999979511	594	satiated	stimuli/non_foods\non-food_animate_baby_sitting.jpg	1	5	1	non-food_animate_baby_sitting	0	D	2	0	93	0		0	0	178.778699700022	178.87868720002
31220.75	0.0999833999667317	595	satiated	stimuli/non_foods\non-food_inanimate_soccer_ball.jpg	1	5	1	non-food_inanimate_soccer_ball	0	H	5	0	210	0		0	0	178.928699400043	179.02868280001
31258.25	0.100007700035349	596	satiated	stimuli/non_foods\non-food_inanimate_tent.jpg	1	5	1	non-food_inanimate_tent	0	M	9	0	219	0		0	0	179.078681100043	179.178688800079
31295.75	0.099967300076969	597	satiated	stimuli/foods\asparagus.jpg	1	5	1	asparagus	1	C	1	0	4	0		0	0	179.228703800007	179.328671100084
31333.25	0.100005799904466	598	satiated	stimuli/non_foods\non-food_inanimate_jeans.jpg	1	5	1	non-food_inanimate_jeans	0	D	2	0	191	0		0	0	179.378681500093	179.478687299998
31370.75	0.0999800000572577	599	satiated	stimuli/non_foods\non-food_animate_alligator.jpg	1	5	1	non-food_animate_alligator	0	A	19	1	90	0		0	0	179.528701100033	179.62868110009
31408.25	0.0999730000039563	600	satiated	stimuli/foods\fennel.jpg	1	5	1	fennel	1	D	2	0	47	0		0	0	179.678694900009	179.778667900013
31445.75	0.099983699969016	601	satiated	stimuli/foods\spring_onions.jpg	1	5	1	spring_onions	1	R	12	0	269	0		0	0	179.828698200057	179.928681900026
31483.25	0.0999852999811992	602	satiated	stimuli/foods\baked_cod_with_carrots_and_green_beans.jpg	1	5	1	baked_cod_with_carrots_and_green_beans	1	V	15	0	7	1	a	0.443239800049923	1	179.97869810008	180.078683400061
31520.75	0.0999771999195218	603	satiated	stimuli/non_foods\non-food_inanimate_speakers.jpg	1	5	1	non-food_inanimate_speakers	0	Z	18	0	212	0		0	0	180.128694400075	180.228671599994
31558.25	0.0999841000884771	604	satiated	stimuli/non_foods\non-food_inanimate_nettle.jpg	1	5	1	non-food_inanimate_nettle	0	V	15	0	197	0		0	0	180.278682600008	180.378666700097
31595.75	0.0999840999720618	605	satiated	stimuli/non_foods\non-food_inanimate_watering_can.jpg	1	5	1	non-food_inanimate_watering_can	0	J	6	0	225	0		0	0	180.428683500038	180.528667600011
31633.25	0.0999821000732481	606	satiated	stimuli/foods\hazelnuts.jpg	1	5	1	hazelnuts	1	D	2	0	65	0		0	0	180.578679800034	180.678661900107
31670.75	0.0999861999880522	607	satiated	stimuli/non_foods\non-food_animate_ladybug.jpg	1	5	1	non-food_animate_ladybug	0	S	13	0	124	0		0	0	180.728680000058	180.828666200046
31708.25	0.0999831999652088	608	satiated	stimuli/foods\pork_and_rice.jpg	1	5	1	pork_and_rice	1	G	4	0	245	0		0	0	180.878676600056	180.978659800021
31745.75	0.0999882000032812	609	satiated	stimuli/non_foods\non-food_animate_butterfly.jpg	1	5	1	non-food_animate_butterfly	0	H	5	0	96	0		0	0	181.028672000044	181.128660200047
31783.25	0.0999860999872908	610	satiated	stimuli/foods\bagel.jpg	1	5	1	bagel	1	N	10	0	6	0		0	0	181.178671400063	181.27865750005
31820.75	0.0999774999218062	611	satiated	stimuli/non_foods\non-food_inanimate_scissors.jpg	1	5	1	non-food_inanimate_scissors	0	T	14	0	205	0		0	0	181.3286732001	181.428650700022
31858.25	0.0999645999399945	612	satiated	stimuli/non_foods\non-food_inanimate_bush.jpg	1	5	1	non-food_inanimate_bush	0	D	2	0	167	0		0	0	181.478669100092	181.578633700032
31895.75	0.0999848999781534	613	satiated	stimuli/non_foods\non-food_inanimate_gloves.jpg	1	5	1	non-food_inanimate_gloves	0	W	16	0	183	0		0	0	181.628673400031	181.72865830001
31933.25	0.0999804000603035	614	satiated	stimuli/foods\celery.jpg	1	5	1	celery	1	F	3	0	21	0		0	0	181.778668500017	181.878648900078
31970.75	0.0999875999987125	615	satiated	stimuli/foods\mandarin.jpg	1	5	1	mandarin	1	V	15	0	79	0		0	0	181.928671200061	182.02865880006
32008.25	0.0999743000138551	616	satiated	stimuli/foods\eggplant.jpg	1	5	1	eggplant	1	R	12	0	46	0		0	0	182.07867930003	182.178653600044
32045.75	0.099967599962838	617	satiated	stimuli/foods\artichoke.jpg	1	5	1	artichoke	1	B	0	0	3	0		0	0	182.228666100069	182.328633700032
32083.25	0.100014199968427	618	satiated	stimuli/foods\frankfurter_and_provolone_salad.jpg	1	5	1	frankfurter_and_provolone_salad	1	J	6	0	49	0		0	0	182.378636000096	182.478650200064
32120.75	0.0999770999187604	619	satiated	stimuli/non_foods\non-food_inanimate_cupboard.jpg	1	5	1	non-food_inanimate_cupboard	0	X	17	0	177	0		0	0	182.528663600096	182.628640700015
32158.25	0.0999853999819607	620	satiated	stimuli/foods\egg.jpg	1	5	1	egg	1	Z	18	0	45	0		0	0	182.678652800038	182.778638200019
32195.75	0.0999707999872044	621	satiated	stimuli/foods\pasta_carbonara.jpg	1	5	1	pasta_carbonara	1	S	13	0	236	0		0	0	182.828652600059	182.928623400046
32233.25	0.0999864999903366	622	satiated	stimuli/foods\mushroom.jpg	1	5	1	mushroom	1	H	5	0	85	0		0	0	182.978658500011	183.078645000001
32270.75	0.0999466000357643	623	satiated	stimuli/non_foods\non-food_animate_peacock.jpg	1	5	1	non-food_animate_peacock	0	W	16	0	134	0		0	0	183.128673700034	183.228620300069
32308.25	0.099984799977392	624	satiated	stimuli/non_foods\non-food_animate_parrot.jpg	1	5	1	non-food_animate_parrot	0	K	7	0	133	0		0	0	183.27864610008	183.378630900057
32345.75	0.0999872999964282	625	satiated	stimuli/foods\risotto_with_zucchini.jpg	1	5	1	risotto_with_zucchini	1	M	9	0	260	0		0	0	183.42864310008	183.528630400077
32383.25	0.0999912000261247	626	satiated	stimuli/foods\onion.jpg	1	5	1	onion	1	I	21	1	229	0		0	0	183.578649600036	183.678640800063
32420.75	0.0999776000389829	627	satiated	stimuli/non_foods\non-food_animate_young_boy.jpg	1	5	1	non-food_animate_young_boy	0	L	8	0	156	0		0	0	183.728657300002	183.828634900041
32458.25	0.0999985000817105	628	satiated	stimuli/non_foods\non-food_animate_student_female.jpg	1	5	1	non-food_animate_student_female	0	J	6	0	151	0		0	0	183.878638199996	183.978636700078
32495.75	0.0999851999804378	629	satiated	stimuli/non_foods\non-food_inanimate_buds.jpg	1	5	1	non-food_inanimate_buds	0	M	9	0	166	0		0	0	184.028645800077	184.128631000058
32533.25	0.0999893000116572	630	satiated	stimuli/non_foods\non-food_animate_donkey.jpg	1	5	1	non-food_animate_donkey	0	R	12	0	107	0		0	0	184.17864050006	184.278629800072
32570.75	0.0999905000207946	631	satiated	stimuli/non_foods\non-food_animate_cheetah.jpg	1	5	1	non-food_animate_cheetah	0	Z	18	0	100	0		0	0	184.328640300082	184.428630800103
32608.25	0.0999870999949053	632	satiated	stimuli/foods\prawn.jpg	1	5	1	prawn	1	K	7	0	249	0		0	0	184.478640100104	184.578627200099
32645.75	0.099978500045836	633	satiated	stimuli/non_foods\non-food_animate_eagle.jpg	1	5	1	non-food_animate_eagle	0	R	12	0	110	0		0	0	184.628637999995	184.728616500041
32683.25	0.0999810999492183	634	satiated	stimuli/foods\lettuce.jpg	1	5	1	lettuce	1	Z	18	0	75	0		0	0	184.778628900065	184.878610000014
32720.75	0.0999830999644473	635	satiated	stimuli/foods\oven-roasted_tomatoes.jpg	1	5	1	oven-roasted_tomatoes	1	D	2	0	232	0		0	0	184.928627700079	185.028610800044
32758.25	0.0999804999446496	636	satiated	stimuli/non_foods\non-food_animate_owl.jpg	1	5	1	non-food_animate_owl	0	H	5	0	132	0		0	0	185.078628200106	185.178608700051
32795.75	0.0999940999317914	637	satiated	stimuli/non_foods\non-food_inanimate_canoe.jpg	1	5	1	non-food_inanimate_canoe	0	L	8	0	170	0		0	0	185.228623800096	185.328617900028
32833.25	0.0999701999826357	638	satiated	stimuli/non_foods\non-food_inanimate_protractor.jpg	1	5	1	non-food_inanimate_protractor	0	W	16	0	201	0		0	0	185.378627700033	185.478597900015
32870.75	0.0999803000595421	639	satiated	stimuli/foods\cereal.jpg	1	5	1	cereal	1	B	0	0	22	0		0	0	185.528610600042	185.628590900102
32908.25	0.0999878000002354	640	satiated	stimuli/non_foods\non-food_animate_raccoon.jpg	1	5	1	non-food_animate_raccoon	0	T	14	0	139	0		0	0	185.678614500095	185.778602300095
32945.75	0.0999859999865294	641	satiated	stimuli/foods\apricot.jpg	1	5	1	apricot	1	J	6	0	2	0		0	0	185.828615300008	185.928601299995
