onset	duration	eventnumber	hunger_condition	stimfilename	blockno	trialno	is_faststream	stim	food_idx	letter	letter_idx	istarget	image_number	response	keypressed	rt	correct	time_stimon	time_stimoff
12553.75	0.09998	0	satiated	stimuli/non_foods\non-food_animate_frog.jpg	1	1	1	non-food_animate_frog	0	K	7	0	113	0		0	0	82.8464336	82.9464136
12591.25	0.1000339	1	satiated	stimuli/non_foods\non-food_inanimate_construction_helment.jpg	1	1	1	non-food_inanimate_construction_helment	0	W	16	0	175	0		0	0	82.996432	83.0964659
12628.75	0.0999833	2	satiated	stimuli/non_foods\non-food_animate_killer_whale.jpg	1	1	1	non-food_animate_killer_whale	0	J	6	0	123	0		0	0	83.1464259	83.2464092
12666.25	0.0999386	3	satiated	stimuli/foods\fruit_pie.jpg	1	1	1	fruit_pie	1	K	7	0	54	0		0	0	83.2964687	83.3964073
12703.75	0.0999819	4	satiated	stimuli/foods\coffee_beans.jpg	1	1	1	coffee_beans	1	R	12	0	34	0		0	0	83.4464213	83.5464032
12741.25	0.0999883	5	satiated	stimuli/non_foods\non-food_inanimate_stoplight.jpg	1	1	1	non-food_inanimate_stoplight	0	K	7	0	214	0		0	0	83.5964174	83.6964057
12778.75	0.0999832	6	satiated	stimuli/foods\apricot.jpg	1	1	1	apricot	1	H	5	0	2	0		0	0	83.7464196	83.8464028
12816.25	0.1000259	7	satiated	stimuli/non_foods\non-food_animate_german_shepherd.jpg	1	1	1	non-food_animate_german_shepherd	0	X	17	0	114	0		0	0	83.8964185	83.9964444
12853.75	0.0999614	8	satiated	stimuli/non_foods\non-food_animate_polar_bear.jpg	1	1	1	non-food_animate_polar_bear	0	R	12	0	137	0		0	0	84.0464406	84.146402
12891.25	0.0999838	9	satiated	stimuli/non_foods\non-food_inanimate_hammer.jpg	1	1	1	non-food_inanimate_hammer	0	Z	18	0	186	0		0	0	84.1964156	84.2963994
12928.75	0.1000115	10	satiated	stimuli/non_foods\non-food_inanimate_canoe.jpg	1	1	1	non-food_inanimate_canoe	0	S	13	0	170	0		0	0	84.3463851	84.4463966
12966.25	0.0999858	11	satiated	stimuli/foods\papaya.jpg	1	1	1	papaya	1	H	5	0	235	0		0	0	84.4964135	84.5963993
13003.75	0.0999872	12	satiated	stimuli/foods\cannoli.jpg	1	1	1	cannoli	1	N	10	0	17	0		0	0	84.646409	84.7463962
13041.25	0.0997868	13	satiated	stimuli/foods\lemon.jpg	1	1	1	lemon	1	V	15	0	72	0		0	0	84.796616	84.8964028
13078.75	0.0999819	14	satiated	stimuli/non_foods\non-food_animate_pigeon.jpg	1	1	1	non-food_animate_pigeon	0	P	11	0	136	0		0	0	84.9464125	85.0463944
13116.25	0.0999691	15	satiated	stimuli/foods\egg.jpg	1	1	1	egg	1	C	1	0	45	0		0	0	85.0964203	85.1963894
13153.75	0.0999875	16	satiated	stimuli/foods\fries.jpg	1	1	1	fries	1	F	3	0	52	0		0	0	85.2464064	85.3463939
13191.25	0.0999847	17	satiated	stimuli/foods\mango.jpg	1	1	1	mango	1	Z	18	0	80	0		0	0	85.3964038	85.4963885
13228.75	0.0999836	18	satiated	stimuli/foods\eggplant.jpg	1	1	1	eggplant	1	T	14	0	46	0		0	0	85.546405	85.6463886
13266.25	0.1000217	19	satiated	stimuli/foods\pumpkin.jpg	1	1	1	pumpkin	1	W	16	0	250	0		0	0	85.6964088	85.7964305
13303.75	0.099984	20	satiated	stimuli/non_foods\non-food_inanimate_protractor.jpg	1	1	1	non-food_inanimate_protractor	0	B	0	0	201	0		0	0	85.8464189	85.9464029
13341.25	0.0999828	21	satiated	stimuli/foods\hotdog.jpg	1	1	1	hotdog	1	J	6	0	67	0		0	0	85.9964024	86.0963852
13378.75	0.0999849	22	satiated	stimuli/non_foods\non-food_animate_owl.jpg	1	1	1	non-food_animate_owl	0	M	9	0	132	0		0	0	86.1463983	86.2463832
13416.25	0.0999873	23	satiated	stimuli/non_foods\non-food_inanimate_moss.jpg	1	1	1	non-food_inanimate_moss	0	X	17	0	194	0		0	0	86.2963993	86.3963866
13453.75	0.0999785	24	satiated	stimuli/non_foods\non-food_animate_elephant.jpg	1	1	1	non-food_animate_elephant	0	S	13	0	111	0		0	0	86.4464003	86.5463788
13491.25	0.0999856	25	satiated	stimuli/non_foods\non-food_inanimate_suitcase.jpg	1	1	1	non-food_inanimate_suitcase	0	W	16	0	215	0		0	0	86.596394	86.6963796
13528.75	0.0999842	26	satiated	stimuli/foods\prawn.jpg	1	1	1	prawn	1	K	7	0	249	0		0	0	86.7463961	86.8463803
13566.25	0.0999684	27	satiated	stimuli/non_foods\non-food_inanimate_bowling_ball.jpg	1	1	1	non-food_inanimate_bowling_ball	0	S	13	0	162	0		0	0	86.8964079	86.9963763
13603.75	0.0999871	28	satiated	stimuli/non_foods\non-food_animate_baby_sitting.jpg	1	1	1	non-food_animate_baby_sitting	0	X	17	0	93	0		0	0	87.0463922	87.1463793
13641.25	0.0999804	29	satiated	stimuli/non_foods\non-food_animate_clown.jpg	1	1	1	non-food_animate_clown	0	V	15	0	102	0		0	0	87.1963924	87.2963728
13678.75	0.0999809	30	satiated	stimuli/non_foods\non-food_inanimate_leaf.jpg	1	1	1	non-food_inanimate_leaf	0	P	11	0	192	0		0	0	87.346389	87.4463699
13716.25	0.0999952	31	satiated	stimuli/foods\oyster.jpg	1	1	1	oyster	1	S	13	0	233	0		0	0	87.4964028	87.596398
13753.75	0.0999496	32	satiated	stimuli/non_foods\non-food_animate_millipede.jpg	1	1	1	non-food_animate_millipede	0	W	16	0	129	0		0	0	87.64642	87.7463696
13791.25	0.0999883	33	satiated	stimuli/foods\lemon_meringue_pie.jpg	1	1	1	lemon_meringue_pie	1	H	5	0	73	0		0	0	87.7963841	87.8963724
13828.75	0.0999866	34	satiated	stimuli/foods\rice.jpg	1	1	1	rice	1	F	3	0	257	0		0	0	87.9463876	88.0463742
13866.25	0.0999767	35	satiated	stimuli/foods\red_cabbage.jpg	1	1	1	red_cabbage	1	T	14	0	256	0		0	0	88.0963845	88.1963612
13903.75	0.0999986	36	satiated	stimuli/non_foods\non-food_inanimate_guitar.jpg	1	1	1	non-food_inanimate_guitar	0	N	10	0	185	0		0	0	88.2463752	88.3463738
13941.25	0.0999792	37	satiated	stimuli/foods\orange.jpg	1	1	1	orange	1	G	4	0	230	0		0	0	88.3963841	88.4963633
13978.75	0.1000127	38	satiated	stimuli/non_foods\non-food_animate_deer.jpg	1	1	1	non-food_animate_deer	0	P	11	0	105	0		0	0	88.5463716	88.6463843
14016.25	0.0999662	39	satiated	stimuli/foods\tomato.jpg	1	1	1	tomato	1	F	3	0	276	0		0	0	88.6963994	88.7963656
14053.75	0.0999851	40	satiated	stimuli/non_foods\non-food_inanimate_skirt.jpg	1	1	1	non-food_inanimate_skirt	0	R	12	0	209	0		0	0	88.8463751	88.9463602
14091.25	0.0999915	41	satiated	stimuli/non_foods\non-food_animate_penguin.jpg	1	1	1	non-food_animate_penguin	0	X	17	0	135	0		0	0	88.9963718	89.0963633
14128.75	0.0999806	42	satiated	stimuli/foods\swordfish.jpg	1	1	1	swordfish	1	G	4	0	273	0		0	0	89.1463787	89.2463593
14166.25	0.1000242	43	satiated	stimuli/foods\fruit_salad.jpg	1	1	1	fruit_salad	1	N	10	0	55	0		0	0	89.296367	89.3963912
14203.75	0.0999621	44	satiated	stimuli/non_foods\non-food_inanimate_table.jpg	1	1	1	non-food_inanimate_table	0	W	16	0	217	0		0	0	89.4463947	89.5463568
14241.25	0.0999838	45	satiated	stimuli/foods\celery.jpg	1	1	1	celery	1	Z	18	0	21	0		0	0	89.5963703	89.6963541
14278.75	0.0999868	46	satiated	stimuli/foods\watermelon.jpg	1	1	1	watermelon	1	G	4	0	279	0		0	0	89.7463684	89.8463552
14316.25	0.0999841	47	satiated	stimuli/non_foods\non-food_animate_hummingbird.jpg	1	1	1	non-food_animate_hummingbird	0	V	15	0	120	0		0	0	89.8963671	89.9963512
14353.75	0.0999867	48	satiated	stimuli/foods\brussel_sprouts.jpg	1	1	1	brussel_sprouts	1	P	11	0	15	0		0	0	90.0463675	90.1463542
14391.25	0.0999922	49	satiated	stimuli/non_foods\non-food_animate_sea_turtle.jpg	1	1	1	non-food_animate_sea_turtle	0	W	16	0	144	0		0	0	90.1963673	90.2963595
14428.75	0.0999992	50	satiated	stimuli/foods\coconut.jpg	1	1	1	coconut	1	C	1	0	33	0		0	0	90.3463662	90.4463654
14466.25	0.0999745	51	satiated	stimuli/foods\pomegranate.jpg	1	1	1	pomegranate	1	R	12	0	244	0		0	0	90.4963747	90.5963492
14503.75	0.0999977	52	satiated	stimuli/foods\spaghetti_with_meat_sauce.jpg	1	1	1	spaghetti_with_meat_sauce	1	J	6	0	267	0		0	0	90.6463615	90.7463592
14541.25	0.0999847	53	satiated	stimuli/foods\cucumber.jpg	1	1	1	cucumber	1	D	2	0	41	0		0	0	90.7963608	90.8963455
14578.75	0.0999881	54	satiated	stimuli/foods\fried_calamari.jpg	1	1	1	fried_calamari	1	Z	18	0	50	0		0	0	90.9463599	91.046348
14616.25	0.0999525	55	satiated	stimuli/foods\chocolate_chip_cookies.jpg	1	1	1	chocolate_chip_cookies	1	M	9	0	27	0		0	0	91.0963925	91.196345
14653.75	0.0999509	56	satiated	stimuli/non_foods\non-food_animate_butterfly.jpg	1	1	1	non-food_animate_butterfly	0	N	10	0	96	0		0	0	91.2463734	91.3463243
14691.25	0.0999865	57	satiated	stimuli/non_foods\non-food_animate_seal.jpg	1	1	1	non-food_animate_seal	0	Z	18	0	146	0		0	0	91.3963558	91.4963423
14728.75	0.0999857	58	satiated	stimuli/foods\honey.jpg	1	1	1	honey	1	N	10	0	66	0		0	0	91.5463541	91.6463398
14766.25	0.0999878	59	satiated	stimuli/foods\cooked_ham.jpg	1	1	1	cooked_ham	1	T	14	0	35	0		0	0	91.6963502	91.796338
14803.75	0.0999862	60	satiated	stimuli/non_foods\non-food_animate_fox.jpg	1	1	1	non-food_animate_fox	0	M	9	0	112	0		0	0	91.8463514	91.9463376
14841.25	0.0999873	61	satiated	stimuli/non_foods\non-food_animate_tortoise.jpg	1	1	1	non-food_animate_tortoise	0	B	0	0	153	0		0	0	91.9963488	92.0963361
14878.75	0.0999862	62	satiated	stimuli/foods\risotto_with_zucchini.jpg	1	1	1	risotto_with_zucchini	1	T	14	0	260	0		0	0	92.1463496	92.2463358
14916.25	0.0999855	63	satiated	stimuli/foods\mortadella.jpg	1	1	1	mortadella	1	Z	18	0	83	0		0	0	92.2963487	92.3963342
14953.75	0.0999893	64	satiated	stimuli/foods\toasted_bread_with_tomatoes.jpg	1	1	1	toasted_bread_with_tomatoes	1	P	11	0	275	0		0	0	92.4463453	92.5463346
14991.25	0.0999855	65	satiated	stimuli/non_foods\non-food_animate_bat.jpg	1	1	1	non-food_animate_bat	0	T	14	0	94	0		0	0	92.5963473	92.6963328
15028.75	0.0999887	66	satiated	stimuli/non_foods\non-food_inanimate_bed.jpg	1	1	1	non-food_inanimate_bed	0	W	16	0	160	0		0	0	92.7463444	92.8463331
15066.25	0.0999426	67	satiated	stimuli/non_foods\non-food_inanimate_speakers.jpg	1	1	1	non-food_inanimate_speakers	0	P	11	0	212	0		0	0	92.8963871	92.9963297
15103.75	0.0999873	68	satiated	stimuli/foods\cracker.jpg	1	1	1	cracker	1	H	5	0	38	0		0	0	93.0463402	93.1463275
15141.25	0.0999856	69	satiated	stimuli/foods\smoked_ham.jpg	1	1	1	smoked_ham	1	L	8	0	266	0		0	0	93.196341	93.2963266
15178.75	0.1000093	70	satiated	stimuli/foods\waffle.jpg	1	1	1	waffle	1	N	10	0	278	0		0	0	93.3463175	93.4463268
15216.25	0.0999806	71	satiated	stimuli/foods\kiwi.jpg	1	1	1	kiwi	1	J	6	0	69	0		0	0	93.4963353	93.5963159
15253.75	0.0999865	72	satiated	stimuli/non_foods\non-food_inanimate_socks.jpg	1	1	1	non-food_inanimate_socks	0	I	21	1	211	0		0	0	93.6463375	93.746324
15291.25	0.099985	73	satiated	stimuli/non_foods\non-food_animate_seahorse.jpg	1	1	1	non-food_animate_seahorse	0	F	3	0	145	0		0	0	93.7963383	93.8963233
15328.75	0.0999852	74	satiated	stimuli/non_foods\non-food_animate_skunk.jpg	1	1	1	non-food_animate_skunk	0	P	11	0	147	0		0	0	93.9463348	94.04632
15366.25	0.0999831	75	satiated	stimuli/non_foods\non-food_inanimate_orchid.jpg	1	1	1	non-food_inanimate_orchid	0	Z	18	0	198	0		0	0	94.0963366	94.1963197
15403.75	0.0999838	76	satiated	stimuli/foods\corncob.jpg	1	1	1	corncob	1	H	5	0	37	1	a	0.593293	1	94.2463324	94.3463162
15441.25	0.0999852	77	satiated	stimuli/foods\pasta_carbonara.jpg	1	1	1	pasta_carbonara	1	P	11	0	236	0		0	0	94.3963326	94.4963178
15478.75	0.0999838	78	satiated	stimuli/foods\ginger_root.jpg	1	1	1	ginger_root	1	W	16	0	57	0		0	0	94.5463334	94.6463172
15516.25	0.0999406	79	satiated	stimuli/foods\potato_chips.jpg	1	1	1	potato_chips	1	H	5	0	247	0		0	0	94.6963729	94.7963135
15553.75	0.0999869	80	satiated	stimuli/non_foods\non-food_animate_ram.jpg	1	1	1	non-food_animate_ram	0	Z	18	0	140	0		0	0	94.8463275	94.9463144
15591.25	0.099983	81	satiated	stimuli/non_foods\non-food_animate_horse.jpg	1	1	1	non-food_animate_horse	0	R	12	0	119	0		0	0	94.9963281	95.0963111
15628.75	0.0999843	82	satiated	stimuli/foods\green_olives.jpg	1	1	1	green_olives	1	V	15	0	62	0		0	0	95.1463241	95.2463084
15666.25	0.0999689	83	satiated	stimuli/non_foods\non-food_animate_raccoon.jpg	1	1	1	non-food_animate_raccoon	0	J	6	0	139	0		0	0	95.2963359	95.3963048
15703.75	0.0999704	84	satiated	stimuli/non_foods\non-food_animate_porcupine.jpg	1	1	1	non-food_animate_porcupine	0	T	14	0	138	0		0	0	95.446315	95.5462854
15741.25	0.0999851	85	satiated	stimuli/non_foods\non-food_inanimate_folding_chair.jpg	1	1	1	non-food_inanimate_folding_chair	0	Z	18	0	182	0		0	0	95.5963211	95.6963062
15778.75	0.0999663	86	satiated	stimuli/foods\raw_sausage.jpg	1	1	1	raw_sausage	1	P	11	0	254	0		0	0	95.7463392	95.8463055
15816.25	0.0999885	87	satiated	stimuli/non_foods\non-food_animate_sea_lion.jpg	1	1	1	non-food_animate_sea_lion	0	F	3	0	143	0		0	0	95.896316	95.9963045
15853.75	0.0999854	88	satiated	stimuli/foods\pepperoni_pizza.jpg	1	1	1	pepperoni_pizza	1	C	1	0	241	0		0	0	96.0463163	96.1463017
15891.25	0.099988	89	satiated	stimuli/non_foods\non-food_animate_slug.jpg	1	1	1	non-food_animate_slug	0	W	16	0	148	0		0	0	96.1963134	96.2963014
15928.75	0.1000346	90	satiated	stimuli/non_foods\non-food_animate_green_bug.jpg	1	1	1	non-food_animate_green_bug	0	J	6	0	118	0		0	0	96.346313	96.4463476
15966.25	0.0999447	91	satiated	stimuli/foods\clams.jpg	1	1	1	clams	1	H	5	0	32	0		0	0	96.4963525	96.5962972
16003.75	0.0999843	92	satiated	stimuli/foods\chilli.jpg	1	1	1	chilli	1	X	17	0	25	0		0	0	96.646312	96.7462963
16041.25	0.0999849	93	satiated	stimuli/non_foods\non-food_inanimate_chandelier.jpg	1	1	1	non-food_inanimate_chandelier	0	H	5	0	173	0		0	0	96.796313	96.8962979
16078.75	0.0999848	94	satiated	stimuli/foods\artichoke.jpg	1	1	1	artichoke	1	F	3	0	3	0		0	0	96.9463083	97.0462931
16116.25	0.0999845	95	satiated	stimuli/non_foods\non-food_inanimate_couch.jpg	1	1	1	non-food_inanimate_couch	0	U	23	1	176	0		0	0	97.0963104	97.1962949
16153.75	0.0999841	96	satiated	stimuli/foods\rice_cake.jpg	1	1	1	rice_cake	1	Z	18	0	258	0		0	0	97.2463102	97.3462943
16191.25	0.0999837	97	satiated	stimuli/non_foods\non-food_animate_cat.jpg	1	1	1	non-food_animate_cat	0	X	17	0	98	0		0	0	97.3963071	97.4962908
16228.75	0.0999715	98	satiated	stimuli/non_foods\non-food_animate_chicken.jpg	1	1	1	non-food_animate_chicken	0	F	3	0	101	0		0	0	97.5463202	97.6462917
16266.25	0.0999868	99	satiated	stimuli/foods\strawberry.jpg	1	1	1	strawberry	1	S	13	0	272	0		0	0	97.6963011	97.7962879
16303.75	0.0999887	100	satiated	stimuli/non_foods\non-food_animate_monkey.jpg	1	1	1	non-food_animate_monkey	0	Z	18	0	130	0		0	0	97.846301	97.9462897
16341.25	0.0999833	101	satiated	stimuli/foods\grapefruits.jpg	1	1	1	grapefruits	1	W	16	0	59	0		0	0	97.9963052	98.0962885
16378.75	0.100018	102	satiated	stimuli/non_foods\non-food_animate_bee.jpg	1	1	1	non-food_animate_bee	0	N	10	0	95	0		0	0	98.1463105	98.2463285
16416.25	0.0999747	103	satiated	stimuli/non_foods\non-food_animate_llama.jpg	1	1	1	non-food_animate_llama	0	S	13	0	127	0		0	0	98.2963197	98.3962944
16453.75	0.0999811	104	satiated	stimuli/non_foods\non-food_inanimate_horn.jpg	1	1	1	non-food_inanimate_horn	0	L	8	0	190	0		0	0	98.4462935	98.5462746
16491.25	0.0999652	105	satiated	stimuli/non_foods\non-food_animate_mouse.jpg	1	1	1	non-food_animate_mouse	0	D	2	0	131	1	a	0	0	98.5962911	98.6962563
16528.75	0.0999845	106	satiated	stimuli/foods\croissant.jpg	1	1	1	croissant	1	W	16	0	40	0		0	0	98.7462992	98.8462837
16566.25	0.0999745	107	satiated	stimuli/foods\linguine_with_clams.jpg	1	1	1	linguine_with_clams	1	L	8	0	77	0		0	0	98.8962979	98.9962724
16603.75	0.099992	108	satiated	stimuli/non_foods\non-food_animate_dachshund.jpg	1	1	1	non-food_animate_dachshund	0	P	11	0	104	0		0	0	99.046288	99.14628
16641.25	0.0999596	109	satiated	stimuli/foods\hamburger.jpg	1	1	1	hamburger	1	K	7	0	64	0		0	0	99.1962955	99.2962551
16678.75	0.0999779	110	satiated	stimuli/non_foods\non-food_inanimate_rope.jpg	1	1	1	non-food_inanimate_rope	0	M	9	0	204	0		0	0	99.3462989	99.4462768
16716.25	0.0999739	111	satiated	stimuli/foods\hazelnuts.jpg	1	1	1	hazelnuts	1	F	3	0	65	0		0	0	99.4963033	99.5962772
16753.75	0.0999854	112	satiated	stimuli/non_foods\non-food_inanimate_towel.jpg	1	1	1	non-food_inanimate_towel	0	K	7	0	221	0		0	0	99.6462868	99.7462722
16791.25	0.099986	113	satiated	stimuli/foods\potatoes.jpg	1	1	1	potatoes	1	F	3	0	248	0		0	0	99.7962872	99.8962732
16828.75	0.0999935	114	satiated	stimuli/foods\stew_with_potatoes_and_carrots.jpg	1	1	1	stew_with_potatoes_and_carrots	1	W	16	0	271	0		0	0	99.9463012	100.0462947
16866.25	0.0999433	115	satiated	stimuli/foods\taco.jpg	1	1	1	taco	1	P	11	0	274	0		0	0	100.096323	100.1962663
16903.75	0.0999696	116	satiated	stimuli/foods\cooked_prawn.jpg	1	1	1	cooked_prawn	1	T	14	0	36	0		0	0	100.2462864	100.346256
16941.25	0.0999842	117	satiated	stimuli/non_foods\non-food_animate_lizard.jpg	1	1	1	non-food_animate_lizard	0	G	4	0	126	0		0	0	100.3962811	100.4962653
16978.75	0.0999868	118	satiated	stimuli/non_foods\non-food_animate_baby_crawling.jpg	1	1	1	non-food_animate_baby_crawling	0	M	9	0	92	0		0	0	100.5462801	100.6462669
17016.25	0.0999878	119	satiated	stimuli/foods\apple.jpg	1	1	1	apple	1	R	12	0	1	0		0	0	100.6962797	100.7962675
17053.75	0.0999828	120	satiated	stimuli/non_foods\non-food_inanimate_hay.jpg	1	1	1	non-food_inanimate_hay	0	H	5	0	187	0		0	0	100.8462783	100.9462611
17091.25	0.0999848	121	satiated	stimuli/non_foods\non-food_animate_iguana.jpg	1	1	1	non-food_animate_iguana	0	M	9	0	121	0		0	0	100.996278	101.0962628
17128.75	0.0999553	122	satiated	stimuli/foods\minestrone_soup.jpg	1	1	1	minestrone_soup	1	X	17	0	82	0		0	0	101.1463031	101.2462584
17166.25	0.0999845	123	satiated	stimuli/non_foods\non-food_animate_grasshopper.jpg	1	1	1	non-food_animate_grasshopper	0	J	6	0	117	0		0	0	101.2962743	101.3962588
17203.75	0.0999862	124	satiated	stimuli/foods\carrot.jpg	1	1	1	carrot	1	L	8	0	19	0		0	0	101.446274	101.5462602
17241.25	0.0999869	125	satiated	stimuli/non_foods\non-food_inanimate_rack.jpg	1	1	1	non-food_inanimate_rack	0	K	7	0	202	0		0	0	101.5962714	101.6962583
17278.75	0.0999984	126	satiated	stimuli/non_foods\non-food_animate_dragonfly.jpg	1	1	1	non-food_animate_dragonfly	0	M	9	0	108	0		0	0	101.7462731	101.8462715
17316.25	0.0999556	127	satiated	stimuli/non_foods\non-food_inanimate_nettle.jpg	1	1	1	non-food_inanimate_nettle	0	R	12	0	197	0		0	0	101.8962967	101.9962523
17353.75	0.0999856	128	satiated	stimuli/foods\fruit_flan.jpg	1	1	1	fruit_flan	1	N	10	0	53	0		0	0	102.0462675	102.1462531
17391.25	0.0999906	129	satiated	stimuli/non_foods\non-food_inanimate_tulip.jpg	1	1	1	non-food_inanimate_tulip	0	F	3	0	224	0		0	0	102.1962719	102.2962625
17428.75	0.099982	130	satiated	stimuli/non_foods\non-food_animate_alligator.jpg	1	1	1	non-food_animate_alligator	0	G	4	0	90	0		0	0	102.3462674	102.4462494
17466.25	0.0999853	131	satiated	stimuli/foods\chocolate_pralines.jpg	1	1	1	chocolate_pralines	1	H	5	0	28	0		0	0	102.4962641	102.5962494
17503.75	0.0999837	132	satiated	stimuli/foods\mandarin.jpg	1	1	1	mandarin	1	D	2	0	79	0		0	0	102.6462661	102.7462498
17541.25	0.1000038	133	satiated	stimuli/non_foods\non-food_inanimate_cactus_pot_plant.jpg	1	1	1	non-food_inanimate_cactus_pot_plant	0	L	8	0	169	0		0	0	102.7962616	102.8962654
17578.75	0.0999692	134	satiated	stimuli/non_foods\non-food_animate_young_girl.jpg	1	1	1	non-food_animate_young_girl	0	V	15	0	157	0		0	0	102.9462788	103.046248
17616.25	0.0999836	135	satiated	stimuli/foods\pickles.jpg	1	1	1	pickles	1	N	10	0	242	0		0	0	103.0962599	103.1962435
17653.75	0.0999848	136	satiated	stimuli/foods\frankfurter_and_provolone_salad.jpg	1	1	1	frankfurter_and_provolone_salad	1	F	3	0	49	0		0	0	103.246259	103.3462438
17691.25	0.0999862	137	satiated	stimuli/foods\capsicum.jpg	1	1	1	capsicum	1	P	11	0	18	0		0	0	103.3962576	103.4962438
17728.75	0.0999923	138	satiated	stimuli/non_foods\non-food_inanimate_alarm_clock.jpg	1	1	1	non-food_inanimate_alarm_clock	0	G	4	0	158	0		0	0	103.5462459	103.6462382
17766.25	0.0999715	139	satiated	stimuli/non_foods\non-food_inanimate_sun_flower.jpg	1	1	1	non-food_inanimate_sun_flower	0	J	6	0	216	0		0	0	103.6962685	103.79624
18374.5	0.0999779	140	satiated	stimuli/non_foods\non-food_animate_yellow_bug.jpg	1	2	1	non-food_animate_yellow_bug	0	G	4	0	155	0		0	0	106.1295755	106.2295534
18412	0.0999768	141	satiated	stimuli/non_foods\non-food_animate_camel.jpg	1	2	1	non-food_animate_camel	0	R	12	0	97	0		0	0	106.2795641	106.3795409
18449.5	0.0999824	142	satiated	stimuli/foods\red_beans.jpg	1	2	1	red_beans	1	V	15	0	255	0		0	0	106.4295673	106.5295497
18487	0.0999829	143	satiated	stimuli/foods\brie.jpg	1	2	1	brie	1	S	13	0	12	0		0	0	106.5795657	106.6795486
18524.5	0.0999851	144	satiated	stimuli/non_foods\non-food_inanimate_broom.jpg	1	2	1	non-food_inanimate_broom	0	X	17	0	164	0		0	0	106.7295626	106.8295477
18562	0.0999852	145	satiated	stimuli/foods\grapes.jpg	1	2	1	grapes	1	S	13	0	60	0		0	0	106.8795644	106.9795496
18599.5	0.0999945	146	satiated	stimuli/non_foods\non-food_inanimate_buds.jpg	1	2	1	non-food_inanimate_buds	0	T	14	0	166	0		0	0	107.0295604	107.1295549
18637	0.0999707	147	satiated	stimuli/non_foods\non-food_inanimate_nest.jpg	1	2	1	non-food_inanimate_nest	0	L	8	0	196	0		0	0	107.1795721	107.2795428
18674.5	0.0999834	148	satiated	stimuli/non_foods\non-food_inanimate_gloves.jpg	1	2	1	non-food_inanimate_gloves	0	N	10	0	183	0		0	0	107.3295595	107.4295429
18712	0.0999833	149	satiated	stimuli/non_foods\non-food_inanimate_desk.jpg	1	2	1	non-food_inanimate_desk	0	Z	18	0	178	0		0	0	107.4795564	107.5795397
18749.5	0.0999527	150	satiated	stimuli/foods\avocado.jpg	1	2	1	avocado	1	L	8	0	5	0		0	0	107.6295681	107.7295208
18787	0.099982	151	satiated	stimuli/non_foods\non-food_inanimate_bamboo.jpg	1	2	1	non-food_inanimate_bamboo	0	S	13	0	159	0		0	0	107.7795544	107.8795364
18824.5	0.099985	152	satiated	stimuli/foods\cream_donuts.jpg	1	2	1	cream_donuts	1	G	4	0	39	0		0	0	107.9295529	108.0295379
18862	0.0999836	153	satiated	stimuli/foods\beetroots.jpg	1	2	1	beetroots	1	C	1	0	10	0		0	0	108.0795513	108.1795349
18899.5	0.0999748	154	satiated	stimuli/foods\salmon.jpg	1	2	1	salmon	1	D	2	0	264	0		0	0	108.2295599	108.3295347
18937	0.0999903	155	satiated	stimuli/non_foods\non-food_animate_ladybug.jpg	1	2	1	non-food_animate_ladybug	0	J	6	0	124	0		0	0	108.3795445	108.4795348
18974.5	0.0999815	156	satiated	stimuli/non_foods\non-food_animate_parrot.jpg	1	2	1	non-food_animate_parrot	0	I	21	1	133	0		0	0	108.529549	108.6295305
19012	0.099989	157	satiated	stimuli/non_foods\non-food_animate_lion.jpg	1	2	1	non-food_animate_lion	0	B	0	0	125	0		0	0	108.679546	108.779535
19049.5	0.0999885	158	satiated	stimuli/non_foods\non-food_animate_swan.jpg	1	2	1	non-food_animate_swan	0	K	7	0	152	0		0	0	108.8295483	108.9295368
19087	0.0999471	159	satiated	stimuli/non_foods\non-food_inanimate_chair.jpg	1	2	1	non-food_inanimate_chair	0	G	4	0	172	0		0	0	108.9795568	109.0795039
19124.5	0.0999866	160	satiated	stimuli/non_foods\non-food_inanimate_bush.jpg	1	2	1	non-food_inanimate_bush	0	X	17	0	167	1	a	0.6918176	1	109.1295423	109.2295289
19162	0.0999868	161	satiated	stimuli/non_foods\non-food_inanimate_drum_set.jpg	1	2	1	non-food_inanimate_drum_set	0	J	6	0	179	0		0	0	109.2795424	109.3795292
19199.5	0.1000143	162	satiated	stimuli/foods\raw_ham.jpg	1	2	1	raw_ham	1	R	12	0	253	0		0	0	109.4295443	109.5295586
19237	0.099983	163	satiated	stimuli/foods\gnocchi.jpg	1	2	1	gnocchi	1	L	8	0	58	0		0	0	109.5795421	109.6795251
19274.5	0.099985	164	satiated	stimuli/foods\raisins.jpg	1	2	1	raisins	1	C	1	0	252	0		0	0	109.7295376	109.8295226
19312	0.0999834	165	satiated	stimuli/foods\potato_and_green_bean_salad.jpg	1	2	1	potato_and_green_bean_salad	1	Z	18	0	246	0		0	0	109.8795386	109.979522
19349.5	0.0999645	166	satiated	stimuli/foods\oven-roasted_tomatoes.jpg	1	2	1	oven-roasted_tomatoes	1	P	11	0	232	0		0	0	110.0295552	110.1295197
19387	0.0999919	167	satiated	stimuli/non_foods\non-food_animate_mammoth.jpg	1	2	1	non-food_animate_mammoth	0	J	6	0	128	0		0	0	110.1795309	110.2795228
19424.5	0.099987	168	satiated	stimuli/foods\oregano.jpg	1	2	1	oregano	1	F	3	0	231	0		0	0	110.3295329	110.4295199
19462	0.0999859	169	satiated	stimuli/non_foods\non-food_animate_Causasian_man.jpg	1	2	1	non-food_animate_Causasian_man	0	J	6	0	89	0		0	0	110.4795339	110.5795198
19499.5	0.0999946	170	satiated	stimuli/foods\peach.jpg	1	2	1	peach	1	K	7	0	238	0		0	0	110.6295428	110.7295374
19537	0.0999609	171	satiated	stimuli/foods\donut.jpg	1	2	1	donut	1	D	2	0	44	0		0	0	110.7795539	110.8795148
19574.5	0.0999862	172	satiated	stimuli/foods\pineapple.jpg	1	2	1	pineapple	1	W	16	0	243	0		0	0	110.9295283	111.0295145
19612	0.0999913	173	satiated	stimuli/foods\wafer.jpg	1	2	1	wafer	1	S	13	0	277	0		0	0	111.0795257	111.179517
19649.5	0.0999865	174	satiated	stimuli/non_foods\non-food_inanimate_jeans.jpg	1	2	1	non-food_inanimate_jeans	0	M	9	0	191	0		0	0	111.2295253	111.3295118
19687	0.0999886	175	satiated	stimuli/non_foods\non-food_animate_Asian_man.jpg	1	2	1	non-food_animate_Asian_man	0	G	4	0	88	0		0	0	111.379523	111.4795116
19724.5	0.0999836	176	satiated	stimuli/non_foods\non-food_inanimate_ring.jpg	1	2	1	non-food_inanimate_ring	0	F	3	0	203	0		0	0	111.5295242	111.6295078
19762	0.0999864	177	satiated	stimuli/foods\spring_onions.jpg	1	2	1	spring_onions	1	Z	18	0	269	0		0	0	111.679523	111.7795094
19799.5	0.0999635	178	satiated	stimuli/non_foods\non-food_inanimate_highlighter.jpg	1	2	1	non-food_inanimate_highlighter	0	N	10	0	189	0		0	0	111.829543	111.9295065
19837	0.0999852	179	satiated	stimuli/foods\pork_and_rice.jpg	1	2	1	pork_and_rice	1	H	5	0	245	0		0	0	111.9795185	112.0795037
19874.5	0.0999929	180	satiated	stimuli/foods\fennel.jpg	1	2	1	fennel	1	M	9	0	47	0		0	0	112.1295174	112.2295103
19912	0.0999857	181	satiated	stimuli/foods\lettuce.jpg	1	2	1	lettuce	1	G	4	0	75	0		0	0	112.2795198	112.3795055
19949.5	0.1000081	182	satiated	stimuli/non_foods\non-food_inanimate_bicycle.jpg	1	2	1	non-food_inanimate_bicycle	0	D	2	0	161	0		0	0	112.4295275	112.5295356
19987	0.0999574	183	satiated	stimuli/foods\peas.jpg	1	2	1	peas	1	F	3	0	240	0		0	0	112.5795441	112.6795015
20024.5	0.0999763	184	satiated	stimuli/non_foods\non-food_inanimate_button.jpg	1	2	1	non-food_inanimate_button	0	H	5	0	168	0		0	0	112.729513	112.8294893
20062	0.0999868	185	satiated	stimuli/non_foods\non-food_animate_cow.jpg	1	2	1	non-food_animate_cow	0	F	3	0	103	0		0	0	112.8795067	112.9794935
20099.5	0.0999961	186	satiated	stimuli/foods\lollies.jpg	1	2	1	lollies	1	B	0	0	78	0		0	0	113.0294978	113.1294939
20137	0.0999843	187	satiated	stimuli/foods\pea_pod.jpg	1	2	1	pea_pod	1	F	3	0	237	0		0	0	113.1795094	113.2794937
20174.5	0.099986	188	satiated	stimuli/foods\baked_lamb_with_potatoes.jpg	1	2	1	baked_lamb_with_potatoes	1	X	17	0	8	0		0	0	113.3295099	113.4294959
20212	0.0999854	189	satiated	stimuli/non_foods\non-food_animate_gorilla.jpg	1	2	1	non-food_animate_gorilla	0	R	12	0	116	0		0	0	113.4795065	113.5794919
20249.5	0.0999889	190	satiated	stimuli/foods\onion.jpg	1	2	1	onion	1	V	15	0	229	0		0	0	113.6295057	113.7294946
20287	0.0999864	191	satiated	stimuli/non_foods\non-food_animate_runner.jpg	1	2	1	non-food_animate_runner	0	Z	18	0	142	0		0	0	113.779505	113.8794914
20324.5	0.0999892	192	satiated	stimuli/non_foods\non-food_inanimate_waterlily.jpg	1	2	1	non-food_inanimate_waterlily	0	T	14	0	226	0		0	0	113.9295018	114.029491
20362	0.099983	193	satiated	stimuli/non_foods\non-food_inanimate_short_sleeved_shirt.jpg	1	2	1	non-food_inanimate_short_sleeved_shirt	0	L	8	0	207	0		0	0	114.0795065	114.1794895
20399.5	0.0999985	194	satiated	stimuli/non_foods\non-food_animate_rhino.jpg	1	2	1	non-food_animate_rhino	0	I	21	1	141	0		0	0	114.2295091	114.3295076
20437	0.0999591	195	satiated	stimuli/foods\fried_zucchini.jpg	1	2	1	fried_zucchini	1	B	0	0	51	0		0	0	114.3795291	114.4794882
20474.5	0.0999873	196	satiated	stimuli/foods\museli_bars.jpg	1	2	1	museli_bars	1	F	3	0	84	0		0	0	114.5294992	114.6294865
20512	0.0999835	197	satiated	stimuli/foods\steak.jpg	1	2	1	steak	1	N	10	0	270	1	a	0.45524	1	114.679497	114.7794805
20549.5	0.0999875	198	satiated	stimuli/non_foods\non-food_animate_giraffe.jpg	1	2	1	non-food_animate_giraffe	0	T	14	0	115	0		0	0	114.8294961	114.9294836
20587	0.0999855	199	satiated	stimuli/non_foods\non-food_inanimate_lighter.jpg	1	2	1	non-food_inanimate_lighter	0	H	5	0	193	0		0	0	114.9794949	115.0794804
20624.5	0.0999865	200	satiated	stimuli/non_foods\non-food_inanimate_grass.jpg	1	2	1	non-food_inanimate_grass	0	B	0	0	184	0		0	0	115.1294964	115.2294829
20662	0.1000076	201	satiated	stimuli/foods\salami.jpg	1	2	1	salami	1	D	2	0	263	0		0	0	115.2794928	115.3795004
20699.5	0.099984	202	satiated	stimuli/foods\banana.jpg	1	2	1	banana	1	P	11	0	9	0		0	0	115.4294915	115.5294755
20737	0.0999859	203	satiated	stimuli/foods\spinach.jpg	1	2	1	spinach	1	X	17	0	268	0		0	0	115.5794916	115.6794775
20774.5	0.0999848	204	satiated	stimuli/foods\dates.jpg	1	2	1	dates	1	N	10	0	43	0		0	0	115.7294889	115.8294737
20812	0.100002	205	satiated	stimuli/foods\asparagus.jpg	1	2	1	asparagus	1	R	12	0	4	0		0	0	115.8794776	115.9794796
20849.5	0.0999894	206	satiated	stimuli/non_foods\non-food_inanimate_bucket.jpg	1	2	1	non-food_inanimate_bucket	0	F	3	0	165	0		0	0	116.0294862	116.1294756
20887	0.0999669	207	satiated	stimuli/non_foods\non-food_inanimate_briefcase.jpg	1	2	1	non-food_inanimate_briefcase	0	C	1	0	163	0		0	0	116.1795017	116.2794686
20924.5	0.0999874	208	satiated	stimuli/non_foods\non-food_inanimate_cap.jpg	1	2	1	non-food_inanimate_cap	0	K	7	0	171	0		0	0	116.329484	116.4294714
20962	0.0999842	209	satiated	stimuli/non_foods\non-food_inanimate_skateboard.jpg	1	2	1	non-food_inanimate_skateboard	0	S	13	0	208	0		0	0	116.4794844	116.5794686
20999.5	0.0999819	210	satiated	stimuli/foods\almonds.jpg	1	2	1	almonds	1	B	0	0	0	0		0	0	116.6294869	116.7294688
21037	0.0999863	211	satiated	stimuli/non_foods\non-food_animate_dolphin.jpg	1	2	1	non-food_animate_dolphin	0	Z	18	0	106	0		0	0	116.7794803	116.8794666
21074.5	0.0999876	212	satiated	stimuli/non_foods\non-food_animate_caterpillar.jpg	1	2	1	non-food_animate_caterpillar	0	T	14	0	99	0		0	0	116.9294772	117.0294648
21112	0.1000017	213	satiated	stimuli/foods\cereal.jpg	1	2	1	cereal	1	N	10	0	22	0		0	0	117.0794773	117.179479
21149.5	0.0999833	214	satiated	stimuli/foods\radish.jpg	1	2	1	radish	1	K	7	0	251	0		0	0	117.2294785	117.3294618
21187	0.0999853	215	satiated	stimuli/non_foods\non-food_animate_kangaroo.jpg	1	2	1	non-food_animate_kangaroo	0	V	15	0	122	0		0	0	117.379476	117.4794613
21224.5	0.0999826	216	satiated	stimuli/non_foods\non-food_inanimate_toy_airplane.jpg	1	2	1	non-food_inanimate_toy_airplane	0	T	14	0	222	0		0	0	117.5294777	117.6294603
21262	0.1000017	217	satiated	stimuli/foods\cherry.jpg	1	2	1	cherry	1	K	7	0	23	0		0	0	117.6794701	117.7794718
21299.5	0.0999678	218	satiated	stimuli/foods\meatballs.jpg	1	2	1	meatballs	1	B	0	0	81	0		0	0	117.8294929	117.9294607
21337	0.0999851	219	satiated	stimuli/non_foods\non-food_inanimate_headphones.jpg	1	2	1	non-food_inanimate_headphones	0	R	12	0	188	0		0	0	117.9794704	118.0794555
21374.5	0.0999851	220	satiated	stimuli/non_foods\non-food_animate_duck.jpg	1	2	1	non-food_animate_duck	0	J	6	0	109	0		0	0	118.1294693	118.2294544
21412	0.0999874	221	satiated	stimuli/non_foods\non-food_inanimate_tent.jpg	1	2	1	non-food_inanimate_tent	0	L	8	0	219	0		0	0	118.2794695	118.3794569
21449.5	0.0999871	222	satiated	stimuli/non_foods\non-food_inanimate_soccer_ball.jpg	1	2	1	non-food_inanimate_soccer_ball	0	H	5	0	210	0		0	0	118.4294653	118.5294524
21487	0.0999872	223	satiated	stimuli/foods\baked_cod_with_carrots_and_green_beans.jpg	1	2	1	baked_cod_with_carrots_and_green_beans	1	T	14	0	7	0		0	0	118.5794651	118.6794523
21524.5	0.099986	224	satiated	stimuli/foods\ice_cream.jpg	1	2	1	ice_cream	1	R	12	0	68	0		0	0	118.7294664	118.8294524
21562	0.0999817	225	satiated	stimuli/non_foods\non-food_animate_ant.jpg	1	2	1	non-food_animate_ant	0	F	3	0	91	0		0	0	118.879464	118.9794457
21599.5	0.0999891	226	satiated	stimuli/foods\grilled_chicken_breast.jpg	1	2	1	grilled_chicken_breast	1	S	13	0	63	0		0	0	119.0294617	119.1294508
21637	0.100046	227	satiated	stimuli/foods\savory_pie.jpg	1	2	1	savory_pie	1	N	10	0	265	0		0	0	119.1794608	119.2795068
21674.5	0.0999848	228	satiated	stimuli/foods\lime.jpg	1	2	1	lime	1	F	3	0	76	0		0	0	119.3294634	119.4294482
21712	0.0999943	229	satiated	stimuli/non_foods\non-food_animate_squirrel.jpg	1	2	1	non-food_animate_squirrel	0	Z	18	0	150	0		0	0	119.4794602	119.5794545
21749.5	0.0999668	230	satiated	stimuli/foods\risotto_with_peas_and_asparagus_tips.jpg	1	2	1	risotto_with_peas_and_asparagus_tips	1	K	7	0	259	0		0	0	119.6294737	119.7294405
21787	0.099984	231	satiated	stimuli/non_foods\non-food_animate_snail.jpg	1	2	1	non-food_animate_snail	0	N	10	0	149	0		0	0	119.7794584	119.8794424
21824.5	0.099983	232	satiated	stimuli/foods\lamb_chops.jpg	1	2	1	lamb_chops	1	F	3	0	70	0		0	0	119.9294558	120.0294388
21862	0.0999872	233	satiated	stimuli/foods\lentils.jpg	1	2	1	lentils	1	B	0	0	74	0		0	0	120.0794535	120.1794407
21899.5	0.0999844	234	satiated	stimuli/non_foods\non-food_animate_peacock.jpg	1	2	1	non-food_animate_peacock	0	S	13	0	134	0		0	0	120.2294536	120.329438
21937	0.0999882	235	satiated	stimuli/non_foods\non-food_inanimate_shell.jpg	1	2	1	non-food_inanimate_shell	0	B	0	0	206	0		0	0	120.3794487	120.4794369
21974.5	0.0999883	236	satiated	stimuli/foods\broccoli.jpg	1	2	1	broccoli	1	P	11	0	13	0		0	0	120.5294485	120.6294368
22012	0.0999913	237	satiated	stimuli/non_foods\non-food_animate_cheetah.jpg	1	2	1	non-food_animate_cheetah	0	K	7	0	100	0		0	0	120.6794426	120.7794339
22049.5	0.0999986	238	satiated	stimuli/foods\cinnamon_sroll.jpg	1	2	1	cinnamon_sroll	1	J	6	0	31	0		0	0	120.8294461	120.9294447
22087	0.0999881	239	satiated	stimuli/non_foods\non-food_inanimate_fire_extinguisher.jpg	1	2	1	non-food_inanimate_fire_extinguisher	0	V	15	0	181	0		0	0	120.9794472	121.0794353
22124.5	0.099991	240	satiated	stimuli/foods\omelette.jpg	1	2	1	omelette	1	X	17	0	228	0		0	0	121.1294401	121.2294311
22162	0.1000205	241	satiated	stimuli/foods\chocolate_pudding.jpg	1	2	1	chocolate_pudding	1	L	8	0	29	0		0	0	121.2794436	121.3794641
22199.5	0.0999681	242	satiated	stimuli/non_foods\non-food_animate_donkey.jpg	1	2	1	non-food_animate_donkey	0	S	13	0	107	0		0	0	121.4294596	121.5294277
22237	0.0999777	243	satiated	stimuli/foods\mushroom.jpg	1	2	1	mushroom	1	J	6	0	85	0		0	0	121.5794412	121.6794189
22274.5	0.099968	244	satiated	stimuli/foods\cupcake.jpg	1	2	1	cupcake	1	X	17	0	42	0		0	0	121.7294355	121.8294035
22312	0.0999854	245	satiated	stimuli/foods\figs.jpg	1	2	1	figs	1	S	13	0	48	0		0	0	121.8794406	121.979426
22349.5	0.0999868	246	satiated	stimuli/foods\roasted_chicken.jpg	1	2	1	roasted_chicken	1	M	9	0	261	0		0	0	122.0294372	122.129424
22387	0.0999882	247	satiated	stimuli/foods\pear.jpg	1	2	1	pear	1	D	2	0	239	0		0	0	122.1794349	122.2794231
22424.5	0.0999863	248	satiated	stimuli/foods\chestnut.jpg	1	2	1	chestnut	1	J	6	0	24	0		0	0	122.3294337	122.42942
22462	0.0999681	249	satiated	stimuli/foods\green_beans.jpg	1	2	1	green_beans	1	V	15	0	61	0		0	0	122.4794526	122.5794207
22499.5	0.0999849	250	satiated	stimuli/non_foods\non-food_inanimate_toilet.jpg	1	2	1	non-food_inanimate_toilet	0	X	17	0	220	0		0	0	122.6294323	122.7294172
22537	0.0999865	251	satiated	stimuli/non_foods\non-food_inanimate_teddy_bear.jpg	1	2	1	non-food_inanimate_teddy_bear	0	W	16	0	218	0		0	0	122.7794302	122.8794167
22574.5	0.0999872	252	satiated	stimuli/non_foods\non-food_inanimate_nailpolish.jpg	1	2	1	non-food_inanimate_nailpolish	0	F	3	0	195	0		0	0	122.9294305	123.0294177
22612	0.1000021	253	satiated	stimuli/non_foods\non-food_inanimate_fern.jpg	1	2	1	non-food_inanimate_fern	0	N	10	0	180	0		0	0	123.0794308	123.1794329
22649.5	0.0999655	254	satiated	stimuli/foods\bagel.jpg	1	2	1	bagel	1	G	4	0	6	0		0	0	123.2294489	123.3294144
22687	0.0999839	255	satiated	stimuli/non_foods\non-food_inanimate_pine_cone.jpg	1	2	1	non-food_inanimate_pine_cone	0	V	15	0	200	0		0	0	123.3794265	123.4794104
22724.5	0.0999913	256	satiated	stimuli/non_foods\non-food_animate_student_female.jpg	1	2	1	non-food_animate_student_female	0	X	17	0	151	0		0	0	123.5294172	123.6294085
22762	0.0999836	257	satiated	stimuli/foods\cauliflower.jpg	1	2	1	cauliflower	1	G	4	0	20	0		0	0	123.6794269	123.7794105
22799.5	0.0999835	258	satiated	stimuli/non_foods\non-food_inanimate_stapler.jpg	1	2	1	non-food_inanimate_stapler	0	N	10	0	213	0		0	0	123.8294236	123.9294071
22837	0.09999	259	satiated	stimuli/foods\rockmelon.jpg	1	2	1	rockmelon	1	X	17	0	262	0		0	0	123.9794211	124.0794111
22874.5	0.0999799	260	satiated	stimuli/foods\chocolate_bar.jpg	1	2	1	chocolate_bar	1	H	5	0	26	0		0	0	124.1294247	124.2294046
22912	0.0999806	261	satiated	stimuli/foods\cabbage.jpg	1	2	1	cabbage	1	L	8	0	16	0		0	0	124.2794273	124.3794079
22949.5	0.0999843	262	satiated	stimuli/non_foods\non-food_animate_young_boy.jpg	1	2	1	non-food_animate_young_boy	0	R	12	0	156	0		0	0	124.4294204	124.5294047
22987	0.0999854	263	satiated	stimuli/non_foods\non-food_animate_eagle.jpg	1	2	1	non-food_animate_eagle	0	X	17	0	110	0		0	0	124.5794182	124.6794036
23024.5	0.0999884	264	satiated	stimuli/non_foods\non-food_inanimate_cupboard.jpg	1	2	1	non-food_inanimate_cupboard	0	M	9	0	177	0		0	0	124.7294171	124.8294055
23062	0.1000007	265	satiated	stimuli/non_foods\non-food_inanimate_watering_can.jpg	1	2	1	non-food_inanimate_watering_can	0	F	3	0	225	0		0	0	124.8794195	124.9794202
23099.5	0.099973	266	satiated	stimuli/non_foods\non-food_inanimate_wrench.jpg	1	2	1	non-food_inanimate_wrench	0	D	2	0	227	0		0	0	125.0294267	125.1293997
23137	0.0999822	267	satiated	stimuli/foods\cinnamon.jpg	1	2	1	cinnamon	1	W	16	0	30	0		0	0	125.1794153	125.2793975
23174.5	0.0999837	268	satiated	stimuli/foods\pancakes.jpg	1	2	1	pancakes	1	D	2	0	234	0		0	0	125.3294111	125.4293948
23212	0.0999893	269	satiated	stimuli/non_foods\non-food_inanimate_padlock.jpg	1	2	1	non-food_inanimate_padlock	0	W	16	0	199	0		0	0	125.4794122	125.5794015
23249.5	0.0999857	270	satiated	stimuli/non_foods\non-food_inanimate_clover.jpg	1	2	1	non-food_inanimate_clover	0	K	7	0	174	0		0	0	125.6294108	125.7293965
23287	0.0999871	271	satiated	stimuli/non_foods\non-food_inanimate_tree.jpg	1	2	1	non-food_inanimate_tree	0	T	14	0	223	0		0	0	125.7794053	125.8793924
23324.5	0.0999992	272	satiated	stimuli/foods\garlic.jpg	1	2	1	garlic	1	B	0	0	56	0		0	0	125.9294019	126.0294011
23362	0.0999828	273	satiated	stimuli/foods\lasagna.jpg	1	2	1	lasagna	1	C	1	0	71	0		0	0	126.0794046	126.1793874
23399.5	0.0999848	274	satiated	stimuli/foods\brownie.jpg	1	2	1	brownie	1	B	0	0	14	0		0	0	126.2294049	126.3293897
23437	0.0999842	275	satiated	stimuli/foods\mussels.jpg	1	2	1	mussels	1	W	16	0	86	0		0	0	126.3794042	126.4793884
23474.5	0.0999842	276	satiated	stimuli/non_foods\non-food_inanimate_scissors.jpg	1	2	1	non-food_inanimate_scissors	0	B	0	0	205	0		0	0	126.5294003	126.6293845
23512	0.1000059	277	satiated	stimuli/non_foods\non-food_animate_woman.jpg	1	2	1	non-food_animate_woman	0	D	2	0	154	0		0	0	126.6794027	126.7794086
23549.5	0.0999489	278	satiated	stimuli/foods\nectarine.jpg	1	2	1	nectarine	1	X	17	0	87	0		0	0	126.8294342	126.9293831
23587	0.0999866	279	satiated	stimuli/foods\blackberry.jpg	1	2	1	blackberry	1	V	15	0	11	0		0	0	126.979397	127.0793836
24316.25	0.0999688	280	satiated	stimuli/foods\fruit_pie.jpg	1	3	1	fruit_pie	1	V	15	0	54	0		0	0	129.8960547	129.9960235
24353.75	0.0999894	281	satiated	stimuli/non_foods\non-food_animate_killer_whale.jpg	1	3	1	non-food_animate_killer_whale	0	W	16	0	123	0		0	0	130.0460391	130.1460285
24391.25	0.0999664	282	satiated	stimuli/foods\egg.jpg	1	3	1	egg	1	M	9	0	45	0		0	0	130.1960648	130.2960312
24428.75	0.0999692	283	satiated	stimuli/foods\pear.jpg	1	3	1	pear	1	N	10	0	239	0		0	0	130.3460515	130.4460207
24466.25	0.0999848	284	satiated	stimuli/foods\cauliflower.jpg	1	3	1	cauliflower	1	G	4	0	20	0		0	0	130.4960366	130.5960214
24503.75	0.0999556	285	satiated	stimuli/foods\gnocchi.jpg	1	3	1	gnocchi	1	N	10	0	58	0		0	0	130.646038	130.7459936
24541.25	0.0999852	286	satiated	stimuli/non_foods\non-food_animate_dachshund.jpg	1	3	1	non-food_animate_dachshund	0	D	2	0	104	0		0	0	130.7960313	130.8960165
24578.75	0.0999846	287	satiated	stimuli/non_foods\non-food_animate_lizard.jpg	1	3	1	non-food_animate_lizard	0	S	13	0	126	0		0	0	130.9460352	131.0460198
24616.25	0.0999816	288	satiated	stimuli/non_foods\non-food_animate_gorilla.jpg	1	3	1	non-food_animate_gorilla	0	C	1	0	116	0		0	0	131.0960316	131.1960132
24653.75	0.0999888	289	satiated	stimuli/foods\omelette.jpg	1	3	1	omelette	1	G	4	0	228	0		0	0	131.2460274	131.3460162
24691.25	0.0999824	290	satiated	stimuli/foods\pea_pod.jpg	1	3	1	pea_pod	1	K	7	0	237	0		0	0	131.3960308	131.4960132
24728.75	0.0999851	291	satiated	stimuli/non_foods\non-food_inanimate_gloves.jpg	1	3	1	non-food_inanimate_gloves	0	L	8	0	183	0		0	0	131.5460261	131.6460112
24766.25	0.099984	292	satiated	stimuli/foods\chocolate_pralines.jpg	1	3	1	chocolate_pralines	1	D	2	0	28	0		0	0	131.6960288	131.7960128
24803.75	0.0999976	293	satiated	stimuli/non_foods\non-food_animate_young_boy.jpg	1	3	1	non-food_animate_young_boy	0	J	6	0	156	0		0	0	131.8460237	131.9460213
24841.25	0.0999659	294	satiated	stimuli/non_foods\non-food_animate_frog.jpg	1	3	1	non-food_animate_frog	0	S	13	0	113	0		0	0	131.9960414	132.0960073
24878.75	0.099983	295	satiated	stimuli/non_foods\non-food_inanimate_padlock.jpg	1	3	1	non-food_inanimate_padlock	0	X	17	0	199	0		0	0	132.1460221	132.2460051
24916.25	0.0999919	296	satiated	stimuli/foods\smoked_ham.jpg	1	3	1	smoked_ham	1	W	16	0	266	0		0	0	132.2960157	132.3960076
24953.75	0.099985	297	satiated	stimuli/non_foods\non-food_inanimate_clover.jpg	1	3	1	non-food_inanimate_clover	0	G	4	0	174	0		0	0	132.4460198	132.5460048
24991.25	0.0999792	298	satiated	stimuli/non_foods\non-food_inanimate_skirt.jpg	1	3	1	non-food_inanimate_skirt	0	J	6	0	209	0		0	0	132.5960224	132.6960016
25028.5	0.099984	299	satiated	stimuli/foods\cinnamon_sroll.jpg	1	3	1	cinnamon_sroll	1	D	2	0	31	0		0	0	132.7460161	132.8460001
25066	0.0999865	300	satiated	stimuli/non_foods\non-food_animate_rhino.jpg	1	3	1	non-food_animate_rhino	0	N	10	0	141	0		0	0	132.8960153	132.9960018
25103.75	0.0999801	301	satiated	stimuli/non_foods\non-food_animate_camel.jpg	1	3	1	non-food_animate_camel	0	I	21	1	97	0		0	0	133.0460166	133.1459967
25141	0.0999898	302	satiated	stimuli/non_foods\non-food_animate_penguin.jpg	1	3	1	non-food_animate_penguin	0	W	16	0	135	0		0	0	133.1960124	133.2960022
25178.5	0.0999849	303	satiated	stimuli/non_foods\non-food_inanimate_wrench.jpg	1	3	1	non-food_inanimate_wrench	0	B	0	0	227	0		0	0	133.3460119	133.4459968
25216	0.0999861	304	satiated	stimuli/foods\lentils.jpg	1	3	1	lentils	1	W	16	0	74	1	a	0.5418202	1	133.4960094	133.5959955
25253.5	0.0999921	305	satiated	stimuli/foods\museli_bars.jpg	1	3	1	museli_bars	1	D	2	0	84	0		0	0	133.6460085	133.7460006
25291.25	0.0999421	306	satiated	stimuli/non_foods\non-food_inanimate_nest.jpg	1	3	1	non-food_inanimate_nest	0	R	12	0	196	0		0	0	133.7960511	133.8959932
25328.5	0.0999854	307	satiated	stimuli/non_foods\non-food_inanimate_skateboard.jpg	1	3	1	non-food_inanimate_skateboard	0	W	16	0	208	0		0	0	133.9460074	134.0459928
25366	0.0999817	308	satiated	stimuli/foods\waffle.jpg	1	3	1	waffle	1	D	2	0	278	0		0	0	134.0960063	134.195988
25403.5	0.099985	309	satiated	stimuli/foods\oyster.jpg	1	3	1	oyster	1	T	14	0	233	0		0	0	134.246005	134.34599
25441	0.100027	310	satiated	stimuli/foods\roasted_chicken.jpg	1	3	1	roasted_chicken	1	N	10	0	261	0		0	0	134.3960043	134.4960313
25478.5	0.0999823	311	satiated	stimuli/foods\peach.jpg	1	3	1	peach	1	Z	18	0	238	0		0	0	134.5460033	134.6459856
25516	0.0999872	312	satiated	stimuli/non_foods\non-food_inanimate_toy_airplane.jpg	1	3	1	non-food_inanimate_toy_airplane	0	R	12	0	222	0		0	0	134.6959999	134.7959871
25553.75	0.0999612	313	satiated	stimuli/non_foods\non-food_inanimate_rope.jpg	1	3	1	non-food_inanimate_rope	0	T	14	0	204	0		0	0	134.8460223	134.9459835
25591	0.0999847	314	satiated	stimuli/non_foods\non-food_inanimate_cactus_pot_plant.jpg	1	3	1	non-food_inanimate_cactus_pot_plant	0	V	15	0	169	0		0	0	134.9959995	135.0959842
25628.5	0.0999907	315	satiated	stimuli/non_foods\non-food_inanimate_sun_flower.jpg	1	3	1	non-food_inanimate_sun_flower	0	N	10	0	216	0		0	0	135.145996	135.2459867
25666	0.0999821	316	satiated	stimuli/foods\fried_zucchini.jpg	1	3	1	fried_zucchini	1	B	0	0	51	0		0	0	135.2959981	135.3959802
25703.5	0.1000077	317	satiated	stimuli/non_foods\non-food_animate_german_shepherd.jpg	1	3	1	non-food_animate_german_shepherd	0	P	11	0	114	0		0	0	135.4459896	135.5459973
25741.25	0.0999411	318	satiated	stimuli/foods\cannoli.jpg	1	3	1	cannoli	1	M	9	0	17	0		0	0	135.5960366	135.6959777
25778.5	0.0999866	319	satiated	stimuli/non_foods\non-food_animate_grasshopper.jpg	1	3	1	non-food_animate_grasshopper	0	W	16	0	117	0		0	0	135.7459912	135.8459778
25816	0.0999865	320	satiated	stimuli/foods\garlic.jpg	1	3	1	garlic	1	L	8	0	56	0		0	0	135.8959921	135.9959786
25853.5	0.0999859	321	satiated	stimuli/non_foods\non-food_inanimate_rack.jpg	1	3	1	non-food_inanimate_rack	0	W	16	0	202	0		0	0	136.0459884	136.1459743
25891	0.0999916	322	satiated	stimuli/foods\potatoes.jpg	1	3	1	potatoes	1	L	8	0	248	0		0	0	136.1959869	136.2959785
25928.5	0.0999808	323	satiated	stimuli/non_foods\non-food_inanimate_watering_can.jpg	1	3	1	non-food_inanimate_watering_can	0	J	6	0	225	0		0	0	136.3459904	136.4459712
25966	0.0999871	324	satiated	stimuli/foods\risotto_with_zucchini.jpg	1	3	1	risotto_with_zucchini	1	R	12	0	260	0		0	0	136.4959828	136.5959699
26003.75	0.0999455	325	satiated	stimuli/non_foods\non-food_inanimate_bowling_ball.jpg	1	3	1	non-food_inanimate_bowling_ball	0	F	3	0	162	0		0	0	136.6460251	136.7459706
26041	0.0999837	326	satiated	stimuli/foods\linguine_with_clams.jpg	1	3	1	linguine_with_clams	1	M	9	0	77	0		0	0	136.7959856	136.8959693
26078.5	0.0999852	327	satiated	stimuli/foods\hamburger.jpg	1	3	1	hamburger	1	W	16	0	64	0		0	0	136.9459821	137.0459673
26116	0.0999838	328	satiated	stimuli/non_foods\non-food_inanimate_headphones.jpg	1	3	1	non-food_inanimate_headphones	0	S	13	0	188	0		0	0	137.0959845	137.1959683
26153.5	0.1000195	329	satiated	stimuli/foods\grapes.jpg	1	3	1	grapes	1	W	16	0	60	0		0	0	137.2459915	137.346011
26191	0.0999616	330	satiated	stimuli/non_foods\non-food_inanimate_buds.jpg	1	3	1	non-food_inanimate_buds	0	J	6	0	166	0		0	0	137.396002	137.4959636
26228.5	0.0999859	331	satiated	stimuli/non_foods\non-food_animate_swan.jpg	1	3	1	non-food_animate_swan	0	P	11	0	152	0		0	0	137.5459767	137.6459626
26266	0.0999814	332	satiated	stimuli/non_foods\non-food_inanimate_canoe.jpg	1	3	1	non-food_inanimate_canoe	0	E	20	1	170	0		0	0	137.6959778	137.7959592
26303.5	0.1000017	333	satiated	stimuli/foods\cucumber.jpg	1	3	1	cucumber	1	L	8	0	41	0		0	0	137.8459612	137.9459629
26341	0.0999836	334	satiated	stimuli/non_foods\non-food_inanimate_fire_extinguisher.jpg	1	3	1	non-food_inanimate_fire_extinguisher	0	C	1	0	181	0		0	0	137.995975	138.0959586
26378.5	0.0999803	335	satiated	stimuli/non_foods\non-food_animate_dolphin.jpg	1	3	1	non-food_animate_dolphin	0	S	13	0	106	1	a	0.4431576	1	138.1459768	138.2459571
26416	0.099981	336	satiated	stimuli/non_foods\non-food_animate_runner.jpg	1	3	1	non-food_animate_runner	0	K	7	0	142	0		0	0	138.2959769	138.3959579
26453.5	0.0999826	337	satiated	stimuli/foods\salami.jpg	1	3	1	salami	1	S	13	0	263	0		0	0	138.4459726	138.5459552
26491	0.0999877	338	satiated	stimuli/foods\figs.jpg	1	3	1	figs	1	H	5	0	48	0		0	0	138.5959695	138.6959572
26528.5	0.0999811	339	satiated	stimuli/non_foods\non-food_animate_millipede.jpg	1	3	1	non-food_animate_millipede	0	P	11	0	129	0		0	0	138.7459715	138.8459526
26566	0.099984	340	satiated	stimuli/non_foods\non-food_inanimate_bush.jpg	1	3	1	non-food_inanimate_bush	0	F	3	0	167	0		0	0	138.8959689	138.9959529
26603.5	0.0999963	341	satiated	stimuli/non_foods\non-food_inanimate_chandelier.jpg	1	3	1	non-food_inanimate_chandelier	0	J	6	0	173	0		0	0	139.0459813	139.1459776
26641	0.0999485	342	satiated	stimuli/non_foods\non-food_inanimate_suitcase.jpg	1	3	1	non-food_inanimate_suitcase	0	X	17	0	215	0		0	0	139.1960013	139.2959498
26678.5	0.0999868	343	satiated	stimuli/foods\apple.jpg	1	3	1	apple	1	T	14	0	1	0		0	0	139.3459617	139.4459485
26716	0.0999831	344	satiated	stimuli/foods\pineapple.jpg	1	3	1	pineapple	1	L	8	0	243	0		0	0	139.4959634	139.5959465
26753.5	0.0999875	345	satiated	stimuli/non_foods\non-food_inanimate_soccer_ball.jpg	1	3	1	non-food_inanimate_soccer_ball	0	T	14	0	210	0		0	0	139.6459598	139.7459473
26791	0.0999857	346	satiated	stimuli/non_foods\non-food_animate_cheetah.jpg	1	3	1	non-food_animate_cheetah	0	S	13	0	100	0		0	0	139.7959602	139.8959459
26828.5	0.0999842	347	satiated	stimuli/non_foods\non-food_animate_pigeon.jpg	1	3	1	non-food_animate_pigeon	0	N	10	0	136	0		0	0	139.9459593	140.0459435
26866	0.0999862	348	satiated	stimuli/non_foods\non-food_animate_elephant.jpg	1	3	1	non-food_animate_elephant	0	S	13	0	111	0		0	0	140.0959565	140.1959427
26903.5	0.0999853	349	satiated	stimuli/foods\celery.jpg	1	3	1	celery	1	T	14	0	21	0		0	0	140.2459554	140.3459407
26941	0.0999876	350	satiated	stimuli/non_foods\non-food_inanimate_moss.jpg	1	3	1	non-food_inanimate_moss	0	C	1	0	194	0		0	0	140.3959559	140.4959435
26978.5	0.0999858	351	satiated	stimuli/foods\cinnamon.jpg	1	3	1	cinnamon	1	R	12	0	30	0		0	0	140.5459535	140.6459393
27016	0.0999849	352	satiated	stimuli/foods\cereal.jpg	1	3	1	cereal	1	S	13	0	22	0		0	0	140.6959546	140.7959395
27053.5	0.1000315	353	satiated	stimuli/non_foods\non-food_inanimate_bucket.jpg	1	3	1	non-food_inanimate_bucket	0	P	11	0	165	0		0	0	140.8459532	140.9459847
27091	0.0999698	354	satiated	stimuli/foods\pickles.jpg	1	3	1	pickles	1	S	13	0	242	0		0	0	140.9959645	141.0959343
27128.5	0.0999854	355	satiated	stimuli/non_foods\non-food_animate_giraffe.jpg	1	3	1	non-food_animate_giraffe	0	L	8	0	115	0		0	0	141.1459481	141.2459335
27166	0.0999859	356	satiated	stimuli/foods\corncob.jpg	1	3	1	corncob	1	X	17	0	37	0		0	0	141.2959485	141.3959344
27203.5	0.0999835	357	satiated	stimuli/foods\mushroom.jpg	1	3	1	mushroom	1	K	7	0	85	0		0	0	141.4459449	141.5459284
27241	0.0999904	358	satiated	stimuli/non_foods\non-food_animate_alligator.jpg	1	3	1	non-food_animate_alligator	0	G	4	0	90	0		0	0	141.5959412	141.6959316
27278.5	0.0999863	359	satiated	stimuli/non_foods\non-food_inanimate_socks.jpg	1	3	1	non-food_inanimate_socks	0	L	8	0	211	0		0	0	141.7459431	141.8459294
27316	0.1000067	360	satiated	stimuli/non_foods\non-food_inanimate_desk.jpg	1	3	1	non-food_inanimate_desk	0	J	6	0	178	0		0	0	141.8959402	141.9959469
27353.5	0.0999727	361	satiated	stimuli/foods\fruit_salad.jpg	1	3	1	fruit_salad	1	U	23	1	55	0		0	0	142.045954	142.1459267
27391	0.0999817	362	satiated	stimuli/foods\spinach.jpg	1	3	1	spinach	1	T	14	0	268	0		0	0	142.1959429	142.2959246
27428.5	0.0999827	363	satiated	stimuli/foods\pepperoni_pizza.jpg	1	3	1	pepperoni_pizza	1	F	3	0	241	0		0	0	142.3459418	142.4459245
27466	0.0999885	364	satiated	stimuli/non_foods\non-food_inanimate_fern.jpg	1	3	1	non-food_inanimate_fern	0	S	13	0	180	0		0	0	142.4959379	142.5959264
27503.5	0.0999523	365	satiated	stimuli/foods\nectarine.jpg	1	3	1	nectarine	1	W	16	0	87	0		0	0	142.64597	142.7459223
27541	0.0999717	366	satiated	stimuli/non_foods\non-food_animate_lion.jpg	1	3	1	non-food_animate_lion	0	V	15	0	125	0		0	0	142.795948	142.8959197
27578.5	0.0999844	367	satiated	stimuli/non_foods\non-food_animate_butterfly.jpg	1	3	1	non-food_animate_butterfly	0	R	12	0	96	0		0	0	142.9459323	143.0459167
27616	0.0999883	368	satiated	stimuli/foods\brownie.jpg	1	3	1	brownie	1	X	17	0	14	0		0	0	143.0959293	143.1959176
27653.5	0.0999881	369	satiated	stimuli/non_foods\non-food_inanimate_bamboo.jpg	1	3	1	non-food_inanimate_bamboo	0	W	16	0	159	0		0	0	143.2459306	143.3459187
27691	0.0999883	370	satiated	stimuli/foods\onion.jpg	1	3	1	onion	1	Z	18	0	229	0		0	0	143.3959298	143.4959181
27728.5	0.099985	371	satiated	stimuli/foods\spring_onions.jpg	1	3	1	spring_onions	1	S	13	0	269	0		0	0	143.5459276	143.6459126
27766	0.099996	372	satiated	stimuli/foods\chilli.jpg	1	3	1	chilli	1	J	6	0	25	0		0	0	143.6959292	143.7959252
27803.5	0.0999839	373	satiated	stimuli/non_foods\non-food_inanimate_grass.jpg	1	3	1	non-food_inanimate_grass	0	W	16	0	184	0		0	0	143.84592	143.9459039
27841	0.0999847	374	satiated	stimuli/non_foods\non-food_inanimate_nailpolish.jpg	1	3	1	non-food_inanimate_nailpolish	0	R	12	0	195	0		0	0	143.9959204	144.0959051
27878.5	0.0999908	375	satiated	stimuli/foods\beetroots.jpg	1	3	1	beetroots	1	C	1	0	10	0		0	0	144.1459219	144.2459127
27916	0.0999975	376	satiated	stimuli/non_foods\non-food_inanimate_drum_set.jpg	1	3	1	non-food_inanimate_drum_set	0	Z	18	0	179	0		0	0	144.295924	144.3959215
27953.5	0.0999825	377	satiated	stimuli/non_foods\non-food_animate_caterpillar.jpg	1	3	1	non-food_animate_caterpillar	0	H	5	0	99	0		0	0	144.4459274	144.5459099
27991	0.0999826	378	satiated	stimuli/foods\fruit_flan.jpg	1	3	1	fruit_flan	1	B	0	0	53	0		0	0	144.5959205	144.6959031
28028.5	0.0999887	379	satiated	stimuli/foods\cabbage.jpg	1	3	1	cabbage	1	K	7	0	16	0		0	0	144.7459187	144.8459074
28066	0.0999862	380	satiated	stimuli/non_foods\non-food_inanimate_cupboard.jpg	1	3	1	non-food_inanimate_cupboard	0	F	3	0	177	0		0	0	144.8959211	144.9959073
28103.5	0.0999865	381	satiated	stimuli/foods\cooked_prawn.jpg	1	3	1	cooked_prawn	1	H	5	0	36	0		0	0	145.0459169	145.1459034
28141	0.0999877	382	satiated	stimuli/foods\taco.jpg	1	3	1	taco	1	S	13	0	274	0		0	0	145.1959142	145.2959019
28178.5	0.099987	383	satiated	stimuli/foods\raisins.jpg	1	3	1	raisins	1	X	17	0	252	0		0	0	145.3459119	145.4458989
28216	0.0999918	384	satiated	stimuli/non_foods\non-food_inanimate_table.jpg	1	3	1	non-food_inanimate_table	0	F	3	0	217	0		0	0	145.4959105	145.5959023
28253.5	0.0999881	385	satiated	stimuli/non_foods\non-food_animate_deer.jpg	1	3	1	non-food_animate_deer	0	G	4	0	105	0		0	0	145.6459114	145.7458995
28291	0.099982	386	satiated	stimuli/non_foods\non-food_animate_horse.jpg	1	3	1	non-food_animate_horse	0	F	3	0	119	0		0	0	145.7959132	145.8958952
28328.5	0.0999883	387	satiated	stimuli/non_foods\non-food_animate_mammoth.jpg	1	3	1	non-food_animate_mammoth	0	K	7	0	128	0		0	0	145.9459062	146.0458945
28366	0.0999824	388	satiated	stimuli/foods\chocolate_chip_cookies.jpg	1	3	1	chocolate_chip_cookies	1	N	10	0	27	0		0	0	146.0959064	146.1958888
28403.5	0.0999413	389	satiated	stimuli/non_foods\non-food_animate_squirrel.jpg	1	3	1	non-food_animate_squirrel	0	Z	18	0	150	0		0	0	146.2459516	146.3458929
28441	0.0999823	390	satiated	stimuli/foods\bagel.jpg	1	3	1	bagel	1	G	4	0	6	0		0	0	146.3959081	146.4958904
28478.5	0.0999871	391	satiated	stimuli/foods\croissant.jpg	1	3	1	croissant	1	T	14	0	40	0		0	0	146.5459021	146.6458892
28516	0.0999836	392	satiated	stimuli/foods\fried_calamari.jpg	1	3	1	fried_calamari	1	S	13	0	50	0		0	0	146.6959052	146.7958888
28553.5	0.099987	393	satiated	stimuli/non_foods\non-food_animate_iguana.jpg	1	3	1	non-food_animate_iguana	0	G	4	0	121	0		0	0	146.8458997	146.9458867
28591	0.0999877	394	satiated	stimuli/foods\frankfurter_and_provolone_salad.jpg	1	3	1	frankfurter_and_provolone_salad	1	J	6	0	49	0		0	0	146.9959004	147.0958881
28628.5	0.0999831	395	satiated	stimuli/foods\mortadella.jpg	1	3	1	mortadella	1	K	7	0	83	0		0	0	147.1459011	147.2458842
28666	0.0999681	396	satiated	stimuli/foods\cherry.jpg	1	3	1	cherry	1	T	14	0	23	0		0	0	147.2959175	147.3958856
28703.5	0.0999672	397	satiated	stimuli/foods\donut.jpg	1	3	1	donut	1	W	16	0	44	0		0	0	147.4459131	147.5458803
28741	0.0999851	398	satiated	stimuli/non_foods\non-food_animate_peacock.jpg	1	3	1	non-food_animate_peacock	0	N	10	0	134	0		0	0	147.5958979	147.695883
28778.5	0.0999865	399	satiated	stimuli/non_foods\non-food_animate_cat.jpg	1	3	1	non-food_animate_cat	0	V	15	0	98	0		0	0	147.7458952	147.8458817
28816	0.1000092	400	satiated	stimuli/non_foods\non-food_inanimate_towel.jpg	1	3	1	non-food_inanimate_towel	0	X	17	0	221	0		0	0	147.8958955	147.9959047
28853.5	0.0999419	401	satiated	stimuli/foods\ginger_root.jpg	1	3	1	ginger_root	1	B	0	0	57	0		0	0	148.0459355	148.1458774
28891	0.0999844	402	satiated	stimuli/non_foods\non-food_inanimate_speakers.jpg	1	3	1	non-food_inanimate_speakers	0	M	9	0	212	0		0	0	148.195892	148.2958764
28928.5	0.0999897	403	satiated	stimuli/non_foods\non-food_inanimate_stoplight.jpg	1	3	1	non-food_inanimate_stoplight	0	Z	18	0	214	0		0	0	148.3458888	148.4458785
28966	0.0999871	404	satiated	stimuli/foods\rockmelon.jpg	1	3	1	rockmelon	1	B	0	0	262	0		0	0	148.4958884	148.5958755
29003.5	0.0999838	405	satiated	stimuli/foods\pasta_carbonara.jpg	1	3	1	pasta_carbonara	1	E	20	1	236	0		0	0	148.64589	148.7458738
29041	0.0999848	406	satiated	stimuli/foods\raw_sausage.jpg	1	3	1	raw_sausage	1	N	10	0	254	0		0	0	148.7958848	148.8958696
29078.5	0.099986	407	satiated	stimuli/foods\tomato.jpg	1	3	1	tomato	1	Z	18	0	276	0		0	0	148.9458856	149.0458716
29116	0.0999675	408	satiated	stimuli/non_foods\non-food_inanimate_cap.jpg	1	3	1	non-food_inanimate_cap	0	R	12	0	171	0		0	0	149.095901	149.1958685
29153.5	0.0999859	409	satiated	stimuli/non_foods\non-food_inanimate_protractor.jpg	1	3	1	non-food_inanimate_protractor	0	J	6	0	201	0		0	0	149.2458832	149.3458691
29191	0.0999852	410	satiated	stimuli/foods\carrot.jpg	1	3	1	carrot	1	F	3	0	19	1	a	0.8418217	1	149.3958838	149.495869
29228.5	0.099987	411	satiated	stimuli/foods\radish.jpg	1	3	1	radish	1	N	10	0	251	0		0	0	149.5458789	149.6458659
29266	0.1000329	412	satiated	stimuli/non_foods\non-food_animate_sea_lion.jpg	1	3	1	non-food_animate_sea_lion	0	J	6	0	143	0		0	0	149.6958798	149.7959127
29303.5	0.099955	413	satiated	stimuli/foods\ice_cream.jpg	1	3	1	ice_cream	1	D	2	0	68	0		0	0	149.8459104	149.9458654
29341	0.0999839	414	satiated	stimuli/non_foods\non-food_animate_cow.jpg	1	3	1	non-food_animate_cow	0	K	7	0	103	0		0	0	149.9958784	150.0958623
29378.5	0.0999827	415	satiated	stimuli/foods\clams.jpg	1	3	1	clams	1	S	13	0	32	0		0	0	150.1458788	150.2458615
29416	0.099984	416	satiated	stimuli/non_foods\non-food_animate_ant.jpg	1	3	1	non-food_animate_ant	0	K	7	0	91	0		0	0	150.295878	150.395862
29453.5	0.0999864	417	satiated	stimuli/foods\chocolate_pudding.jpg	1	3	1	chocolate_pudding	1	L	8	0	29	0		0	0	150.4458729	150.5458593
29491	0.0999884	418	satiated	stimuli/foods\meatballs.jpg	1	3	1	meatballs	1	P	11	0	81	0		0	0	150.595876	150.6958644
29528.5	0.099991	419	satiated	stimuli/non_foods\non-food_animate_seal.jpg	1	3	1	non-food_animate_seal	0	K	7	0	146	0		0	0	150.745865	150.845856
30057.75	0.0999764	420	satiated	stimuli/foods\kiwi.jpg	1	4	1	kiwi	1	X	17	0	69	0		0	0	152.8625281	152.9625045
30095.25	0.0999837	421	satiated	stimuli/non_foods\non-food_animate_ladybug.jpg	1	4	1	non-food_animate_ladybug	0	R	12	0	124	0		0	0	153.012519	153.1125027
30132.75	0.0999894	422	satiated	stimuli/foods\grapefruits.jpg	1	4	1	grapefruits	1	B	0	0	59	0		0	0	153.1625191	153.2625085
30170.25	0.0999933	423	satiated	stimuli/non_foods\non-food_animate_llama.jpg	1	4	1	non-food_animate_llama	0	X	17	0	127	0		0	0	153.3125108	153.4125041
30207.75	0.0999981	424	satiated	stimuli/non_foods\non-food_animate_polar_bear.jpg	1	4	1	non-food_animate_polar_bear	0	M	9	0	137	0		0	0	153.4625207	153.5625188
30245.25	0.0999741	425	satiated	stimuli/non_foods\non-food_animate_sea_turtle.jpg	1	4	1	non-food_animate_sea_turtle	0	K	7	0	144	0		0	0	153.6125285	153.7125026
30282.75	0.0999564	426	satiated	stimuli/non_foods\non-food_animate_kangaroo.jpg	1	4	1	non-food_animate_kangaroo	0	G	4	0	122	0		0	0	153.762513	153.8624694
30320.25	0.0999897	427	satiated	stimuli/non_foods\non-food_animate_eagle.jpg	1	4	1	non-food_animate_eagle	0	M	9	0	110	0		0	0	153.9125115	154.0125012
30357.75	0.0999819	428	satiated	stimuli/foods\mango.jpg	1	4	1	mango	1	D	2	0	80	0		0	0	154.0625125	154.1624944
30395.25	0.0999818	429	satiated	stimuli/non_foods\non-food_inanimate_scissors.jpg	1	4	1	non-food_inanimate_scissors	0	M	9	0	205	0		0	0	154.2125093	154.3124911
30432.75	0.0999881	430	satiated	stimuli/non_foods\non-food_inanimate_tent.jpg	1	4	1	non-food_inanimate_tent	0	R	12	0	219	0		0	0	154.3625078	154.4624959
30470.25	0.0999828	431	satiated	stimuli/non_foods\non-food_inanimate_lighter.jpg	1	4	1	non-food_inanimate_lighter	0	O	22	1	193	0		0	0	154.5125065	154.6124893
30507.75	0.0999833	432	satiated	stimuli/foods\lemon.jpg	1	4	1	lemon	1	N	10	0	72	0		0	0	154.6625074	154.7624907
30545.25	0.0999846	433	satiated	stimuli/non_foods\non-food_animate_young_girl.jpg	1	4	1	non-food_animate_young_girl	0	G	4	0	157	0		0	0	154.8125071	154.9124917
30582.75	0.0999827	434	satiated	stimuli/foods\hazelnuts.jpg	1	4	1	hazelnuts	1	R	12	0	65	0		0	0	154.9625011	155.0624838
30620.25	0.0999987	435	satiated	stimuli/non_foods\non-food_inanimate_shell.jpg	1	4	1	non-food_inanimate_shell	0	J	6	0	206	0		0	0	155.112501	155.2124997
30657.75	0.0999623	436	satiated	stimuli/foods\red_cabbage.jpg	1	4	1	red_cabbage	1	K	7	0	256	0		0	0	155.2625232	155.3624855
30695.25	0.0999847	437	satiated	stimuli/non_foods\non-food_inanimate_short_sleeved_shirt.jpg	1	4	1	non-food_inanimate_short_sleeved_shirt	0	Z	18	0	207	0		0	0	155.4124998	155.5124845
30732.75	0.0999852	438	satiated	stimuli/non_foods\non-food_inanimate_pine_cone.jpg	1	4	1	non-food_inanimate_pine_cone	0	F	3	0	200	0		0	0	155.5624996	155.6624848
30770.25	0.099983	439	satiated	stimuli/foods\pomegranate.jpg	1	4	1	pomegranate	1	V	15	0	244	0		0	0	155.7124967	155.8124797
30807.75	0.0999868	440	satiated	stimuli/foods\chocolate_bar.jpg	1	4	1	chocolate_bar	1	S	13	0	26	0		0	0	155.8624947	155.9624815
30845.25	0.0999857	441	satiated	stimuli/non_foods\non-food_animate_Asian_man.jpg	1	4	1	non-food_animate_Asian_man	0	L	8	0	88	0		0	0	156.0124938	156.1124795
30882.75	0.0999884	442	satiated	stimuli/foods\cooked_ham.jpg	1	4	1	cooked_ham	1	C	1	0	35	0		0	0	156.1624902	156.2624786
30920.25	0.0999803	443	satiated	stimuli/foods\capsicum.jpg	1	4	1	capsicum	1	Z	18	0	18	0		0	0	156.3124892	156.4124695
30957.75	0.0999804	444	satiated	stimuli/foods\eggplant.jpg	1	4	1	eggplant	1	R	12	0	46	0		0	0	156.4624948	156.5624752
30995.25	0.099996	445	satiated	stimuli/foods\lettuce.jpg	1	4	1	lettuce	1	L	8	0	75	0		0	0	156.61248	156.712476
31032.75	0.099998	446	satiated	stimuli/non_foods\non-food_animate_monkey.jpg	1	4	1	non-food_animate_monkey	0	N	10	0	130	0		0	0	156.7624806	156.8624786
31070.25	0.1000103	447	satiated	stimuli/non_foods\non-food_inanimate_hay.jpg	1	4	1	non-food_inanimate_hay	0	X	17	0	187	0		0	0	156.9124862	157.0124965
31107.75	0.0999379	448	satiated	stimuli/foods\strawberry.jpg	1	4	1	strawberry	1	J	6	0	272	0		0	0	157.0625335	157.1624714
31145.25	0.0999803	449	satiated	stimuli/foods\pancakes.jpg	1	4	1	pancakes	1	V	15	0	234	0		0	0	157.2124893	157.3124696
31182.75	0.0999882	450	satiated	stimuli/foods\potato_and_green_bean_salad.jpg	1	4	1	potato_and_green_bean_salad	1	J	6	0	246	0		0	0	157.3624832	157.4624714
31220.25	0.0999851	451	satiated	stimuli/foods\stew_with_potatoes_and_carrots.jpg	1	4	1	stew_with_potatoes_and_carrots	1	N	10	0	271	0		0	0	157.5124852	157.6124703
31257.75	0.0999915	452	satiated	stimuli/non_foods\non-food_inanimate_briefcase.jpg	1	4	1	non-food_inanimate_briefcase	0	R	12	0	163	0		0	0	157.6624847	157.7624762
31295.25	0.0999816	453	satiated	stimuli/non_foods\non-food_animate_green_bug.jpg	1	4	1	non-food_animate_green_bug	0	D	2	0	118	0		0	0	157.8124843	157.9124659
31332.75	0.0999866	454	satiated	stimuli/non_foods\non-food_inanimate_jeans.jpg	1	4	1	non-food_inanimate_jeans	0	G	4	0	191	0		0	0	157.9624789	158.0624655
31370.25	0.0999694	455	satiated	stimuli/non_foods\non-food_inanimate_couch.jpg	1	4	1	non-food_inanimate_couch	0	T	14	0	176	0		0	0	158.1124982	158.2124676
31407.75	0.0999821	456	satiated	stimuli/foods\rice.jpg	1	4	1	rice	1	R	12	0	257	0		0	0	158.2624811	158.3624632
31445.25	0.0999875	457	satiated	stimuli/non_foods\non-food_inanimate_ring.jpg	1	4	1	non-food_inanimate_ring	0	E	20	1	203	0		0	0	158.4124749	158.5124624
31482.75	0.0999845	458	satiated	stimuli/non_foods\non-food_animate_fox.jpg	1	4	1	non-food_animate_fox	0	K	7	0	112	0		0	0	158.5624752	158.6624597
31520.25	0.0999911	459	satiated	stimuli/foods\salmon.jpg	1	4	1	salmon	1	M	9	0	264	0		0	0	158.7124814	158.8124725
31557.75	0.0999616	460	satiated	stimuli/non_foods\non-food_animate_mouse.jpg	1	4	1	non-food_animate_mouse	0	F	3	0	131	1	a	0.556344	1	158.8624969	158.9624585
31595.25	0.0999786	461	satiated	stimuli/non_foods\non-food_animate_skunk.jpg	1	4	1	non-food_animate_skunk	0	G	4	0	147	0		0	0	159.012476	159.1124546
31632.75	0.0999822	462	satiated	stimuli/foods\dates.jpg	1	4	1	dates	1	B	0	0	43	0		0	0	159.1624702	159.2624524
31670.25	0.0999858	463	satiated	stimuli/foods\asparagus.jpg	1	4	1	asparagus	1	J	6	0	4	0		0	0	159.3124687	159.4124545
31707.75	0.0999926	464	satiated	stimuli/foods\lasagna.jpg	1	4	1	lasagna	1	P	11	0	71	0		0	0	159.4624588	159.5624514
31745.25	0.0999837	465	satiated	stimuli/non_foods\non-food_inanimate_stapler.jpg	1	4	1	non-food_inanimate_stapler	0	R	12	0	213	0		0	0	159.6124688	159.7124525
31782.75	0.0999821	466	satiated	stimuli/non_foods\non-food_inanimate_chair.jpg	1	4	1	non-food_inanimate_chair	0	H	5	0	172	0		0	0	159.7624684	159.8624505
31820.25	0.0999823	467	satiated	stimuli/non_foods\non-food_animate_slug.jpg	1	4	1	non-food_animate_slug	0	L	8	0	148	0		0	0	159.9124653	160.0124476
31857.75	0.0999818	468	satiated	stimuli/foods\steak.jpg	1	4	1	steak	1	P	11	0	270	0		0	0	160.0624675	160.1624493
31895.25	0.0999806	469	satiated	stimuli/non_foods\non-food_inanimate_teddy_bear.jpg	1	4	1	non-food_inanimate_teddy_bear	0	C	1	0	218	0		0	0	160.2124637	160.3124443
31932.75	0.0999866	470	satiated	stimuli/foods\coffee_beans.jpg	1	4	1	coffee_beans	1	G	4	0	34	0		0	0	160.3624599	160.4624465
31970.25	0.0999705	471	satiated	stimuli/non_foods\non-food_inanimate_leaf.jpg	1	4	1	non-food_inanimate_leaf	0	P	11	0	192	0		0	0	160.5124741	160.6124446
32007.75	0.0999692	472	satiated	stimuli/non_foods\non-food_animate_baby_crawling.jpg	1	4	1	non-food_animate_baby_crawling	0	Z	18	0	92	0		0	0	160.6624743	160.7624435
32045.25	0.0999872	473	satiated	stimuli/non_foods\non-food_inanimate_folding_chair.jpg	1	4	1	non-food_inanimate_folding_chair	0	D	2	0	182	0		0	0	160.8124575	160.9124447
32082.75	0.0999765	474	satiated	stimuli/non_foods\non-food_animate_tortoise.jpg	1	4	1	non-food_animate_tortoise	0	T	14	0	153	0		0	0	160.9624636	161.0624401
32120.25	0.0999872	475	satiated	stimuli/non_foods\non-food_animate_dragonfly.jpg	1	4	1	non-food_animate_dragonfly	0	N	10	0	108	0		0	0	161.1124543	161.2124415
32157.75	0.0999925	476	satiated	stimuli/foods\banana.jpg	1	4	1	banana	1	Z	18	0	9	0		0	0	161.2624573	161.3624498
32195.25	0.0999891	477	satiated	stimuli/foods\prawn.jpg	1	4	1	prawn	1	M	9	0	249	0		0	0	161.4124503	161.5124394
32232.75	0.099987	478	satiated	stimuli/foods\baked_cod_with_carrots_and_green_beans.jpg	1	4	1	baked_cod_with_carrots_and_green_beans	1	B	0	0	7	0		0	0	161.5624432	161.6624302
32270.25	0.0999658	479	satiated	stimuli/foods\blackberry.jpg	1	4	1	blackberry	1	W	16	0	11	0		0	0	161.7124456	161.8124114
32307.75	0.099984	480	satiated	stimuli/non_foods\non-food_inanimate_broom.jpg	1	4	1	non-food_inanimate_broom	0	T	14	0	164	0		0	0	161.8624478	161.9624318
32345.25	0.0999851	481	satiated	stimuli/foods\honey.jpg	1	4	1	honey	1	V	15	0	66	0		0	0	162.0124494	162.1124345
32382.75	0.0999895	482	satiated	stimuli/non_foods\non-food_animate_parrot.jpg	1	4	1	non-food_animate_parrot	0	H	5	0	133	0		0	0	162.162442	162.2624315
32420.25	0.1000036	483	satiated	stimuli/foods\potato_chips.jpg	1	4	1	potato_chips	1	W	16	0	247	0		0	0	162.3124481	162.4124517
32457.75	0.0999519	484	satiated	stimuli/foods\spaghetti_with_meat_sauce.jpg	1	4	1	spaghetti_with_meat_sauce	1	B	0	0	267	0		0	0	162.4624779	162.5624298
32495.25	0.099984	485	satiated	stimuli/non_foods\non-food_animate_hummingbird.jpg	1	4	1	non-food_animate_hummingbird	0	G	4	0	120	0		0	0	162.6124426	162.7124266
32532.75	0.0999849	486	satiated	stimuli/foods\grilled_chicken_breast.jpg	1	4	1	grilled_chicken_breast	1	J	6	0	63	0		0	0	162.762442	162.8624269
32570.25	0.0999824	487	satiated	stimuli/foods\hotdog.jpg	1	4	1	hotdog	1	R	12	0	67	0		0	0	162.912441	163.0124234
32607.75	0.0999866	488	satiated	stimuli/foods\mandarin.jpg	1	4	1	mandarin	1	W	16	0	79	0		0	0	163.0624368	163.1624234
32645.25	0.0999891	489	satiated	stimuli/foods\red_beans.jpg	1	4	1	red_beans	1	L	8	0	255	0		0	0	163.2124394	163.3124285
32682.75	0.1000094	490	satiated	stimuli/foods\chestnut.jpg	1	4	1	chestnut	1	S	13	0	24	0		0	0	163.3624349	163.4624443
32720.25	0.0999851	491	satiated	stimuli/non_foods\non-food_animate_yellow_bug.jpg	1	4	1	non-food_animate_yellow_bug	0	X	17	0	155	0		0	0	163.5124354	163.6124205
32757.75	0.0999813	492	satiated	stimuli/foods\watermelon.jpg	1	4	1	watermelon	1	J	6	0	279	0		0	0	163.6624362	163.7624175
32795.25	0.0999764	493	satiated	stimuli/non_foods\non-food_animate_clown.jpg	1	4	1	non-food_animate_clown	0	V	15	0	102	0		0	0	163.8124326	163.912409
32832.75	0.0999928	494	satiated	stimuli/foods\broccoli.jpg	1	4	1	broccoli	1	R	12	0	13	0		0	0	163.9624337	164.0624265
32870.25	0.0999832	495	satiated	stimuli/non_foods\non-food_inanimate_bicycle.jpg	1	4	1	non-food_inanimate_bicycle	0	W	16	0	161	0		0	0	164.1124319	164.2124151
32907.75	0.0999694	496	satiated	stimuli/foods\mussels.jpg	1	4	1	mussels	1	P	11	0	86	0		0	0	164.262448	164.3624174
32945.25	0.0999854	497	satiated	stimuli/foods\pumpkin.jpg	1	4	1	pumpkin	1	R	12	0	250	0		0	0	164.4124278	164.5124132
32982.75	0.0999868	498	satiated	stimuli/foods\lamb_chops.jpg	1	4	1	lamb_chops	1	B	0	0	70	0		0	0	164.562426	164.6624128
33020.25	0.0999852	499	satiated	stimuli/non_foods\non-food_inanimate_highlighter.jpg	1	4	1	non-food_inanimate_highlighter	0	Z	18	0	189	0		0	0	164.7124266	164.8124118
33057.75	0.0999852	500	satiated	stimuli/foods\green_beans.jpg	1	4	1	green_beans	1	N	10	0	61	0		0	0	164.8624227	164.9624079
33095.25	0.0999887	501	satiated	stimuli/foods\fennel.jpg	1	4	1	fennel	1	W	16	0	47	0		0	0	165.0124231	165.1124118
33132.75	0.0999993	502	satiated	stimuli/foods\savory_pie.jpg	1	4	1	savory_pie	1	V	15	0	265	0		0	0	165.1624227	165.262422
33170.25	0.0999843	503	satiated	stimuli/foods\baked_lamb_with_potatoes.jpg	1	4	1	baked_lamb_with_potatoes	1	Z	18	0	8	0		0	0	165.312421	165.4124053
33207.75	0.0999828	504	satiated	stimuli/non_foods\non-food_animate_Causasian_man.jpg	1	4	1	non-food_animate_Causasian_man	0	T	14	0	89	0		0	0	165.4624222	165.562405
33245.25	0.0999852	505	satiated	stimuli/foods\oven-roasted_tomatoes.jpg	1	4	1	oven-roasted_tomatoes	1	I	21	1	232	0		0	0	165.6124173	165.7124025
33282.75	0.0999942	506	satiated	stimuli/non_foods\non-food_animate_snail.jpg	1	4	1	non-food_animate_snail	0	W	16	0	149	0		0	0	165.7624212	165.8624154
33320.25	0.0999765	507	satiated	stimuli/foods\orange.jpg	1	4	1	orange	1	D	2	0	230	0		0	0	165.9124251	166.0124016
33357.75	0.0999833	508	satiated	stimuli/foods\risotto_with_peas_and_asparagus_tips.jpg	1	4	1	risotto_with_peas_and_asparagus_tips	1	N	10	0	259	1	a	0.5501564	1	166.062413	166.1623963
33395.25	0.0999926	509	satiated	stimuli/non_foods\non-food_animate_student_female.jpg	1	4	1	non-food_animate_student_female	0	H	5	0	151	0		0	0	166.2124055	166.3123981
33432.75	0.0999837	510	satiated	stimuli/non_foods\non-food_animate_seahorse.jpg	1	4	1	non-food_animate_seahorse	0	L	8	0	145	0		0	0	166.3624128	166.4623965
33470.25	0.0999844	511	satiated	stimuli/non_foods\non-food_inanimate_tulip.jpg	1	4	1	non-food_inanimate_tulip	0	Z	18	0	224	0		0	0	166.5124121	166.6123965
33507.75	0.0999845	512	satiated	stimuli/foods\almonds.jpg	1	4	1	almonds	1	F	3	0	0	0		0	0	166.66241	166.7623945
33545.25	0.0999878	513	satiated	stimuli/foods\brie.jpg	1	4	1	brie	1	J	6	0	12	0		0	0	166.8124065	166.9123943
33582.75	0.0999864	514	satiated	stimuli/foods\cupcake.jpg	1	4	1	cupcake	1	H	5	0	42	0		0	0	166.9624065	167.0623929
33620.25	0.0999834	515	satiated	stimuli/foods\avocado.jpg	1	4	1	avocado	1	M	9	0	5	0		0	0	167.1124079	167.2123913
33657.75	0.099989	516	satiated	stimuli/foods\wafer.jpg	1	4	1	wafer	1	P	11	0	277	0		0	0	167.2624052	167.3623942
33695.25	0.0999851	517	satiated	stimuli/foods\cracker.jpg	1	4	1	cracker	1	D	2	0	38	0		0	0	167.4124049	167.51239
33732.75	0.0999948	518	satiated	stimuli/foods\toasted_bread_with_tomatoes.jpg	1	4	1	toasted_bread_with_tomatoes	1	R	12	0	275	0		0	0	167.5624013	167.6623961
33770.25	0.0999646	519	satiated	stimuli/non_foods\non-food_animate_duck.jpg	1	4	1	non-food_animate_duck	0	Z	18	0	109	0		0	0	167.7124219	167.8123865
33807.75	0.0999866	520	satiated	stimuli/foods\coconut.jpg	1	4	1	coconut	1	B	0	0	33	0		0	0	167.8623996	167.9623862
33845.25	0.0999872	521	satiated	stimuli/foods\artichoke.jpg	1	4	1	artichoke	1	L	8	0	3	0		0	0	168.0123991	168.1123863
33882.75	0.0999837	522	satiated	stimuli/foods\apricot.jpg	1	4	1	apricot	1	P	11	0	2	0		0	0	168.1623978	168.2623815
33920.25	0.0999842	523	satiated	stimuli/foods\swordfish.jpg	1	4	1	swordfish	1	B	0	0	273	0		0	0	168.3123992	168.4123834
33957.75	0.0999832	524	satiated	stimuli/non_foods\non-food_inanimate_orchid.jpg	1	4	1	non-food_inanimate_orchid	0	D	2	0	198	0		0	0	168.4623974	168.5623806
33995.25	0.099984	525	satiated	stimuli/non_foods\non-food_inanimate_hammer.jpg	1	4	1	non-food_inanimate_hammer	0	S	13	0	186	0		0	0	168.6123951	168.7123791
34032.75	0.0999899	526	satiated	stimuli/foods\green_olives.jpg	1	4	1	green_olives	1	O	22	1	62	0		0	0	168.7623931	168.862383
34070.25	0.0999824	527	satiated	stimuli/non_foods\non-food_animate_raccoon.jpg	1	4	1	non-food_animate_raccoon	0	F	3	0	139	0		0	0	168.9123952	169.0123776
34107.75	0.0999868	528	satiated	stimuli/foods\lime.jpg	1	4	1	lime	1	X	17	0	76	0		0	0	169.0623893	169.1623761
34145.25	0.0999849	529	satiated	stimuli/non_foods\non-food_inanimate_bed.jpg	1	4	1	non-food_inanimate_bed	0	T	14	0	160	0		0	0	169.2123902	169.3123751
34182.75	0.1000076	530	satiated	stimuli/non_foods\non-food_animate_woman.jpg	1	4	1	non-food_animate_woman	0	P	11	0	154	0		0	0	169.3623914	169.462399
34220.25	0.0999405	531	satiated	stimuli/foods\oregano.jpg	1	4	1	oregano	1	W	16	0	231	0		0	0	169.5124336	169.6123741
34257.75	0.0999814	532	satiated	stimuli/non_foods\non-food_inanimate_toilet.jpg	1	4	1	non-food_inanimate_toilet	0	B	0	0	220	0		0	0	169.6623892	169.7623706
34295.25	0.0999869	533	satiated	stimuli/foods\papaya.jpg	1	4	1	papaya	1	V	15	0	235	0		0	0	169.8123834	169.9123703
34332.75	0.0999962	534	satiated	stimuli/foods\rice_cake.jpg	1	4	1	rice_cake	1	S	13	0	258	0		0	0	169.9623845	170.0623807
34370.25	0.1000127	535	satiated	stimuli/foods\brussel_sprouts.jpg	1	4	1	brussel_sprouts	1	Z	18	0	15	0		0	0	170.1123576	170.2123703
34407.75	0.0999793	536	satiated	stimuli/non_foods\non-food_animate_bat.jpg	1	4	1	non-food_animate_bat	0	D	2	0	94	0		0	0	170.2623836	170.3623629
34445.25	0.0999875	537	satiated	stimuli/non_foods\non-food_inanimate_waterlily.jpg	1	4	1	non-food_inanimate_waterlily	0	G	4	0	226	0		0	0	170.4123815	170.512369
34482.75	0.0999647	538	satiated	stimuli/non_foods\non-food_animate_owl.jpg	1	4	1	non-food_animate_owl	0	D	2	0	132	0		0	0	170.5623997	170.6623644
34520.25	0.0999843	539	satiated	stimuli/foods\raw_ham.jpg	1	4	1	raw_ham	1	F	3	0	253	0		0	0	170.7123792	170.8123635
34557.75	0.0999879	540	satiated	stimuli/non_foods\non-food_inanimate_horn.jpg	1	4	1	non-food_inanimate_horn	0	K	7	0	190	0		0	0	170.8623757	170.9623636
34595.25	0.0999836	541	satiated	stimuli/non_foods\non-food_inanimate_guitar.jpg	1	4	1	non-food_inanimate_guitar	0	F	3	0	185	0		0	0	171.0123776	171.1123612
34632.75	0.1000061	542	satiated	stimuli/non_foods\non-food_animate_donkey.jpg	1	4	1	non-food_animate_donkey	0	M	9	0	107	0		0	0	171.1623775	171.2623836
34670.25	0.0999561	543	satiated	stimuli/non_foods\non-food_inanimate_button.jpg	1	4	1	non-food_inanimate_button	0	D	2	0	168	0		0	0	171.3124015	171.4123576
34707.75	0.0999855	544	satiated	stimuli/foods\minestrone_soup.jpg	1	4	1	minestrone_soup	1	P	11	0	82	0		0	0	171.4623716	171.5623571
34745.25	0.0999827	545	satiated	stimuli/non_foods\non-food_animate_porcupine.jpg	1	4	1	non-food_animate_porcupine	0	B	0	0	138	0		0	0	171.6123738	171.7123565
34782.75	0.0999775	546	satiated	stimuli/non_foods\non-food_animate_ram.jpg	1	4	1	non-food_animate_ram	0	K	7	0	140	0		0	0	171.7623777	171.8623552
34820.25	0.0999847	547	satiated	stimuli/non_foods\non-food_animate_baby_sitting.jpg	1	4	1	non-food_animate_baby_sitting	0	C	1	0	93	0		0	0	171.9123689	172.0123536
34857.75	0.0999819	548	satiated	stimuli/non_foods\non-food_inanimate_nettle.jpg	1	4	1	non-food_inanimate_nettle	0	V	15	0	197	0		0	0	172.0623697	172.1623516
34895.25	0.0999861	549	satiated	stimuli/foods\lollies.jpg	1	4	1	lollies	1	C	1	0	78	0		0	0	172.2123649	172.312351
34932.75	0.0999733	550	satiated	stimuli/foods\pork_and_rice.jpg	1	4	1	pork_and_rice	1	G	4	0	245	0		0	0	172.3623771	172.4623504
34970.25	0.0999944	551	satiated	stimuli/foods\cream_donuts.jpg	1	4	1	cream_donuts	1	X	17	0	39	0		0	0	172.5123638	172.6123582
35007.75	0.0999851	552	satiated	stimuli/non_foods\non-food_inanimate_tree.jpg	1	4	1	non-food_inanimate_tree	0	J	6	0	223	0		0	0	172.6623642	172.7623493
35045.25	0.0999818	553	satiated	stimuli/non_foods\non-food_inanimate_alarm_clock.jpg	1	4	1	non-food_inanimate_alarm_clock	0	P	11	0	158	0		0	0	172.8123653	172.9123471
35082.75	0.1000108	554	satiated	stimuli/non_foods\non-food_animate_chicken.jpg	1	4	1	non-food_animate_chicken	0	V	15	0	101	0		0	0	172.9623634	173.0623742
35120.25	0.0999745	555	satiated	stimuli/non_foods\non-food_inanimate_construction_helment.jpg	1	4	1	non-food_inanimate_construction_helment	0	M	9	0	175	0		0	0	173.1123721	173.2123466
35157.75	0.0999842	556	satiated	stimuli/foods\fries.jpg	1	4	1	fries	1	P	11	0	52	0		0	0	173.26236	173.3623442
35195.25	0.0999871	557	satiated	stimuli/foods\lemon_meringue_pie.jpg	1	4	1	lemon_meringue_pie	1	B	0	0	73	0		0	0	173.4123553	173.5123424
35232.75	0.0999857	558	satiated	stimuli/non_foods\non-food_animate_bee.jpg	1	4	1	non-food_animate_bee	0	K	7	0	95	0		0	0	173.5623572	173.6623429
35270.25	0.0999829	559	satiated	stimuli/foods\peas.jpg	1	4	1	peas	1	Z	18	0	240	0		0	0	173.7123551	173.812338
35799.5	0.0999763	560	satiated	stimuli/foods\grapefruits.jpg	1	5	1	grapefruits	1	W	16	0	59	0		0	0	175.8290131	175.9289894
35837	0.0999844	561	satiated	stimuli/foods\raw_sausage.jpg	1	5	1	raw_sausage	1	X	17	0	254	0		0	0	175.9790036	176.078988
35874.5	0.0999846	562	satiated	stimuli/foods\banana.jpg	1	5	1	banana	1	S	13	0	9	0		0	0	176.1290048	176.2289894
35912	0.0999856	563	satiated	stimuli/foods\dates.jpg	1	5	1	dates	1	W	16	0	43	0		0	0	176.2790026	176.3789882
35949.5	0.0999811	564	satiated	stimuli/non_foods\non-food_animate_pigeon.jpg	1	5	1	non-food_animate_pigeon	0	G	4	0	136	0		0	0	176.4290008	176.5289819
35987	0.0999642	565	satiated	stimuli/non_foods\non-food_animate_Causasian_man.jpg	1	5	1	non-food_animate_Causasian_man	0	N	10	0	89	0		0	0	176.5790193	176.6789835
36024.5	0.0999828	566	satiated	stimuli/non_foods\non-food_inanimate_lighter.jpg	1	5	1	non-food_inanimate_lighter	0	M	9	0	193	0		0	0	176.7289984	176.8289812
36062	0.0999857	567	satiated	stimuli/non_foods\non-food_inanimate_desk.jpg	1	5	1	non-food_inanimate_desk	0	D	2	0	178	0		0	0	176.8789982	176.9789839
36099.5	0.0999842	568	satiated	stimuli/foods\risotto_with_zucchini.jpg	1	5	1	risotto_with_zucchini	1	L	8	0	260	0		0	0	177.0289961	177.1289803
36137	0.1000032	569	satiated	stimuli/non_foods\non-food_animate_gorilla.jpg	1	5	1	non-food_animate_gorilla	0	H	5	0	116	0		0	0	177.179004	177.2790072
36174.5	0.0999872	570	satiated	stimuli/non_foods\non-food_inanimate_towel.jpg	1	5	1	non-food_inanimate_towel	0	Z	18	0	221	0		0	0	177.3289936	177.4289808
36212	0.0999857	571	satiated	stimuli/foods\orange.jpg	1	5	1	orange	1	N	10	0	230	0		0	0	177.478991	177.5789767
36249.5	0.099983	572	satiated	stimuli/foods\taco.jpg	1	5	1	taco	1	V	15	0	274	0		0	0	177.6289914	177.7289744
36287	0.0999832	573	satiated	stimuli/foods\asparagus.jpg	1	5	1	asparagus	1	R	12	0	4	0		0	0	177.7789913	177.8789745
36324.5	0.0999832	574	satiated	stimuli/foods\apricot.jpg	1	5	1	apricot	1	K	7	0	2	0		0	0	177.9289882	178.0289714
36362	0.0999914	575	satiated	stimuli/non_foods\non-food_inanimate_folding_chair.jpg	1	5	1	non-food_inanimate_folding_chair	0	X	17	0	182	0		0	0	178.0789853	178.1789767
36399.5	0.0999792	576	satiated	stimuli/foods\capsicum.jpg	1	5	1	capsicum	1	Z	18	0	18	0		0	0	178.2289871	178.3289663
36437	0.0999745	577	satiated	stimuli/foods\savory_pie.jpg	1	5	1	savory_pie	1	N	10	0	265	0		0	0	178.3789928	178.4789673
36474.5	0.0999851	578	satiated	stimuli/foods\lamb_chops.jpg	1	5	1	lamb_chops	1	M	9	0	70	0		0	0	178.5289832	178.6289683
36512	0.0999783	579	satiated	stimuli/foods\fried_zucchini.jpg	1	5	1	fried_zucchini	1	O	22	1	51	0		0	0	178.6789861	178.7789644
36549.5	0.0999848	580	satiated	stimuli/non_foods\non-food_animate_cow.jpg	1	5	1	non-food_animate_cow	0	R	12	0	103	0		0	0	178.8289826	178.9289674
36587	0.0999927	581	satiated	stimuli/foods\pork_and_rice.jpg	1	5	1	pork_and_rice	1	H	5	0	245	0		0	0	178.9789866	179.0789793
36624.5	0.0999589	582	satiated	stimuli/non_foods\non-food_inanimate_shell.jpg	1	5	1	non-food_inanimate_shell	0	N	10	0	206	0		0	0	179.1290057	179.2289646
36662	0.0999863	583	satiated	stimuli/non_foods\non-food_inanimate_hay.jpg	1	5	1	non-food_inanimate_hay	0	R	12	0	187	0		0	0	179.2789783	179.3789646
36699.5	0.0999829	584	satiated	stimuli/foods\mandarin.jpg	1	5	1	mandarin	1	D	2	0	79	0		0	0	179.4289774	179.5289603
36737	0.0999813	585	satiated	stimuli/foods\spaghetti_with_meat_sauce.jpg	1	5	1	spaghetti_with_meat_sauce	1	J	6	0	267	0		0	0	179.5789751	179.6789564
36774.5	0.0999845	586	satiated	stimuli/foods\chestnut.jpg	1	5	1	chestnut	1	S	13	0	24	0		0	0	179.7289743	179.8289588
36812	0.0999806	587	satiated	stimuli/foods\avocado.jpg	1	5	1	avocado	1	M	9	0	5	0		0	0	179.8789725	179.9789531
36849.5	0.100007	588	satiated	stimuli/non_foods\non-food_inanimate_cap.jpg	1	5	1	non-food_inanimate_cap	0	V	15	0	171	0		0	0	180.0289711	180.1289781
36887	0.099969	589	satiated	stimuli/foods\waffle.jpg	1	5	1	waffle	1	R	12	0	278	0		0	0	180.1789855	180.2789545
36924.5	0.0999829	590	satiated	stimuli/foods\rice_cake.jpg	1	5	1	rice_cake	1	X	17	0	258	0		0	0	180.3289704	180.4289533
36962	0.0999861	591	satiated	stimuli/non_foods\non-food_inanimate_grass.jpg	1	5	1	non-food_inanimate_grass	0	S	13	0	184	0		0	0	180.4789695	180.5789556
36999.5	0.0999849	592	satiated	stimuli/foods\clams.jpg	1	5	1	clams	1	J	6	0	32	0		0	0	180.6289683	180.7289532
37037	0.1000084	593	satiated	stimuli/non_foods\non-food_inanimate_gloves.jpg	1	5	1	non-food_inanimate_gloves	0	F	3	0	183	0		0	0	180.7789761	180.8789845
37074.5	0.0999688	594	satiated	stimuli/foods\hamburger.jpg	1	5	1	hamburger	1	R	12	0	64	0		0	0	180.9289807	181.0289495
37112	0.0999848	595	satiated	stimuli/non_foods\non-food_animate_bat.jpg	1	5	1	non-food_animate_bat	0	B	0	0	94	0		0	0	181.0789627	181.1789475
37149.5	0.0999852	596	satiated	stimuli/foods\potato_chips.jpg	1	5	1	potato_chips	1	R	12	0	247	0		0	0	181.2289612	181.3289464
37187	0.0999846	597	satiated	stimuli/non_foods\non-food_inanimate_alarm_clock.jpg	1	5	1	non-food_inanimate_alarm_clock	0	V	15	0	158	0		0	0	181.3789608	181.4789454
37224.5	0.0999877	598	satiated	stimuli/non_foods\non-food_inanimate_couch.jpg	1	5	1	non-food_inanimate_couch	0	C	1	0	176	0		0	0	181.5289597	181.6289474
37262	0.0999881	599	satiated	stimuli/non_foods\non-food_animate_mammoth.jpg	1	5	1	non-food_animate_mammoth	0	V	15	0	128	0		0	0	181.6789554	181.7789435
37299.5	0.0999929	600	satiated	stimuli/foods\croissant.jpg	1	5	1	croissant	1	X	17	0	40	0		0	0	181.8289605	181.9289534
37337	0.0999826	601	satiated	stimuli/foods\peas.jpg	1	5	1	peas	1	L	8	0	240	0		0	0	181.9789577	182.0789403
37374.5	0.0999817	602	satiated	stimuli/non_foods\non-food_inanimate_table.jpg	1	5	1	non-food_inanimate_table	0	W	16	0	217	0		0	0	182.1289576	182.2289393
37412	0.0999856	603	satiated	stimuli/non_foods\non-food_animate_butterfly.jpg	1	5	1	non-food_animate_butterfly	0	Z	18	0	96	0		0	0	182.2789556	182.3789412
37449.5	0.1000011	604	satiated	stimuli/non_foods\non-food_animate_millipede.jpg	1	5	1	non-food_animate_millipede	0	W	16	0	129	0		0	0	182.4289514	182.5289525
37487	0.099939	605	satiated	stimuli/non_foods\non-food_animate_swan.jpg	1	5	1	non-food_animate_swan	0	V	15	0	152	0		0	0	182.5789972	182.6789362
37524.5	0.0999859	606	satiated	stimuli/foods\fries.jpg	1	5	1	fries	1	J	6	0	52	0		0	0	182.7289495	182.8289354
37562	0.0999864	607	satiated	stimuli/non_foods\non-food_inanimate_cupboard.jpg	1	5	1	non-food_inanimate_cupboard	0	N	10	0	177	0		0	0	182.8789485	182.9789349
37599.5	0.099985	608	satiated	stimuli/non_foods\non-food_animate_kangaroo.jpg	1	5	1	non-food_animate_kangaroo	0	D	2	0	122	0		0	0	183.0289504	183.1289354
37637	0.0999837	609	satiated	stimuli/foods\risotto_with_peas_and_asparagus_tips.jpg	1	5	1	risotto_with_peas_and_asparagus_tips	1	F	3	0	259	0		0	0	183.1789464	183.2789301
37674.5	0.0999828	610	satiated	stimuli/non_foods\non-food_animate_tortoise.jpg	1	5	1	non-food_animate_tortoise	0	W	16	0	153	0		0	0	183.3289465	183.4289293
37712	0.0999839	611	satiated	stimuli/foods\cereal.jpg	1	5	1	cereal	1	T	14	0	22	0		0	0	183.4789434	183.5789273
37749.5	0.0999863	612	satiated	stimuli/non_foods\non-food_inanimate_briefcase.jpg	1	5	1	non-food_inanimate_briefcase	0	R	12	0	163	0		0	0	183.6289414	183.7289277
37787	0.0999825	613	satiated	stimuli/foods\cream_donuts.jpg	1	5	1	cream_donuts	1	H	5	0	39	0		0	0	183.7789469	183.8789294
37824.5	0.0999863	614	satiated	stimuli/non_foods\non-food_inanimate_construction_helment.jpg	1	5	1	non-food_inanimate_construction_helment	0	K	7	0	175	0		0	0	183.9289412	184.0289275
37862	0.0999854	615	satiated	stimuli/foods\coffee_beans.jpg	1	5	1	coffee_beans	1	M	9	0	34	0		0	0	184.0789403	184.1789257
37899.5	0.0999814	616	satiated	stimuli/foods\linguine_with_clams.jpg	1	5	1	linguine_with_clams	1	G	4	0	77	0		0	0	184.2289388	184.3289202
37937	0.0999474	617	satiated	stimuli/non_foods\non-food_animate_runner.jpg	1	5	1	non-food_animate_runner	0	Z	18	0	142	0		0	0	184.3789757	184.4789231
37974.5	0.0999803	618	satiated	stimuli/non_foods\non-food_animate_giraffe.jpg	1	5	1	non-food_animate_giraffe	0	L	8	0	115	0		0	0	184.5289392	184.6289195
38012	0.0999859	619	satiated	stimuli/foods\watermelon.jpg	1	5	1	watermelon	1	B	0	0	279	0		0	0	184.6789344	184.7789203
38049.5	0.0999879	620	satiated	stimuli/non_foods\non-food_animate_porcupine.jpg	1	5	1	non-food_animate_porcupine	0	J	6	0	138	0		0	0	184.8289305	184.9289184
38087	0.0999849	621	satiated	stimuli/non_foods\non-food_animate_ram.jpg	1	5	1	non-food_animate_ram	0	K	7	0	140	0		0	0	184.9789342	185.0789191
38124.5	0.0999842	622	satiated	stimuli/non_foods\non-food_animate_lizard.jpg	1	5	1	non-food_animate_lizard	0	L	8	0	126	0		0	0	185.1289322	185.2289164
38162	0.0999833	623	satiated	stimuli/non_foods\non-food_inanimate_horn.jpg	1	5	1	non-food_inanimate_horn	0	V	15	0	190	0		0	0	185.2789322	185.3789155
38199.5	0.0999853	624	satiated	stimuli/foods\lasagna.jpg	1	5	1	lasagna	1	F	3	0	71	0		0	0	185.4289273	185.5289126
38237	0.0999826	625	satiated	stimuli/non_foods\non-food_inanimate_stapler.jpg	1	5	1	non-food_inanimate_stapler	0	N	10	0	213	0		0	0	185.5789281	185.6789107
38274.5	0.099987	626	satiated	stimuli/foods\strawberry.jpg	1	5	1	strawberry	1	R	12	0	272	0		0	0	185.7289284	185.8289154
38312	0.0999842	627	satiated	stimuli/foods\prawn.jpg	1	5	1	prawn	1	J	6	0	249	0		0	0	185.8789248	185.978909
38349.5	0.1000064	628	satiated	stimuli/foods\mortadella.jpg	1	5	1	mortadella	1	X	17	0	83	0		0	0	186.0289245	186.1289309
38387	0.099941	629	satiated	stimuli/non_foods\non-food_inanimate_bucket.jpg	1	5	1	non-food_inanimate_bucket	0	F	3	0	165	0		0	0	186.1789644	186.2789054
38424.5	0.099987	630	satiated	stimuli/non_foods\non-food_inanimate_bowling_ball.jpg	1	5	1	non-food_inanimate_bowling_ball	0	B	0	0	162	0		0	0	186.3289217	186.4289087
38462	0.0999869	631	satiated	stimuli/non_foods\non-food_inanimate_sun_flower.jpg	1	5	1	non-food_inanimate_sun_flower	0	P	11	0	216	0		0	0	186.4789224	186.5789093
38499.5	0.0999837	632	satiated	stimuli/foods\salami.jpg	1	5	1	salami	1	V	15	0	263	0		0	0	186.6289203	186.728904
38537	0.099988	633	satiated	stimuli/foods\pomegranate.jpg	1	5	1	pomegranate	1	M	9	0	244	0		0	0	186.7789177	186.8789057
38574.5	0.0999844	634	satiated	stimuli/non_foods\non-food_animate_young_boy.jpg	1	5	1	non-food_animate_young_boy	0	W	16	0	156	0		0	0	186.9289179	187.0289023
38612	0.0999853	635	satiated	stimuli/non_foods\non-food_animate_yellow_bug.jpg	1	5	1	non-food_animate_yellow_bug	0	C	1	0	155	0		0	0	187.0789154	187.1789007
38649.5	0.0999693	636	satiated	stimuli/foods\hotdog.jpg	1	5	1	hotdog	1	P	11	0	67	0		0	0	187.2289317	187.328901
38687	0.0999838	637	satiated	stimuli/foods\rice.jpg	1	5	1	rice	1	M	9	0	257	0		0	0	187.3789153	187.4788991
38724.5	0.0999866	638	satiated	stimuli/non_foods\non-food_inanimate_highlighter.jpg	1	5	1	non-food_inanimate_highlighter	0	H	5	0	189	0		0	0	187.5289126	187.6288992
38762	0.0999829	639	satiated	stimuli/non_foods\non-food_inanimate_teddy_bear.jpg	1	5	1	non-food_inanimate_teddy_bear	0	V	15	0	218	0		0	0	187.6789121	187.778895
38799.5	0.0999912	640	satiated	stimuli/foods\bagel.jpg	1	5	1	bagel	1	W	16	0	6	0		0	0	187.8289213	187.9289125
38837	0.0999465	641	satiated	stimuli/foods\blackberry.jpg	1	5	1	blackberry	1	M	9	0	11	0		0	0	187.9789477	188.0788942
38874.5	0.0999852	642	satiated	stimuli/non_foods\non-food_inanimate_headphones.jpg	1	5	1	non-food_inanimate_headphones	0	X	17	0	188	0		0	0	188.1289061	188.2288913
38912	0.0999864	643	satiated	stimuli/non_foods\non-food_inanimate_clover.jpg	1	5	1	non-food_inanimate_clover	0	V	15	0	174	0		0	0	188.278905	188.3788914
38949.5	0.0999856	644	satiated	stimuli/foods\chilli.jpg	1	5	1	chilli	1	N	10	0	25	0		0	0	188.4289042	188.5288898
38987	0.0999853	645	satiated	stimuli/foods\pepperoni_pizza.jpg	1	5	1	pepperoni_pizza	1	K	7	0	241	0		0	0	188.5789047	188.67889
39024.5	0.0999833	646	satiated	stimuli/foods\chocolate_pralines.jpg	1	5	1	chocolate_pralines	1	D	2	0	28	0		0	0	188.7289063	188.8288896
39062	0.099984	647	satiated	stimuli/non_foods\non-food_animate_seal.jpg	1	5	1	non-food_animate_seal	0	K	7	0	146	0		0	0	188.8789022	188.9788862
39099.5	0.099984	648	satiated	stimuli/non_foods\non-food_animate_duck.jpg	1	5	1	non-food_animate_duck	0	Z	18	0	109	0		0	0	189.0289037	189.1288877
39137	0.0999961	649	satiated	stimuli/non_foods\non-food_animate_skunk.jpg	1	5	1	non-food_animate_skunk	0	C	1	0	147	0		0	0	189.1789014	189.2788975
39174.5	0.0999812	650	satiated	stimuli/foods\cupcake.jpg	1	5	1	cupcake	1	R	12	0	42	0		0	0	189.328914	189.4288952
39212	0.0999812	651	satiated	stimuli/non_foods\non-food_inanimate_nailpolish.jpg	1	5	1	non-food_inanimate_nailpolish	0	Z	18	0	195	0		0	0	189.4788991	189.5788803
39249.5	0.099999	652	satiated	stimuli/non_foods\non-food_inanimate_bamboo.jpg	1	5	1	non-food_inanimate_bamboo	0	D	2	0	159	0		0	0	189.6289096	189.7289086
39287	0.0999614	653	satiated	stimuli/non_foods\non-food_animate_bee.jpg	1	5	1	non-food_animate_bee	0	R	12	0	95	0		0	0	189.7789203	189.8788817
39324.5	0.0999926	654	satiated	stimuli/non_foods\non-food_animate_baby_sitting.jpg	1	5	1	non-food_animate_baby_sitting	0	B	0	0	93	0		0	0	189.9288986	190.0288912
39362	0.099992	655	satiated	stimuli/foods\green_beans.jpg	1	5	1	green_beans	1	J	6	0	61	0		0	0	190.0788894	190.1788814
39399.5	0.0999842	656	satiated	stimuli/non_foods\non-food_animate_mouse.jpg	1	5	1	non-food_animate_mouse	0	C	1	0	131	0		0	0	190.2288945	190.3288787
39437	0.0999842	657	satiated	stimuli/foods\apple.jpg	1	5	1	apple	1	A	19	1	1	0		0	0	190.3788933	190.4788775
39474.5	0.0999889	658	satiated	stimuli/non_foods\non-food_inanimate_tent.jpg	1	5	1	non-food_inanimate_tent	0	H	5	0	219	0		0	0	190.5288875	190.6288764
39512	0.0999889	659	satiated	stimuli/foods\cucumber.jpg	1	5	1	cucumber	1	P	11	0	41	0		0	0	190.6788878	190.7788767
39549.5	0.0999609	660	satiated	stimuli/foods\salmon.jpg	1	5	1	salmon	1	F	3	0	264	0		0	0	190.8289115	190.9288724
39587	0.099983	661	satiated	stimuli/non_foods\non-food_inanimate_chair.jpg	1	5	1	non-food_inanimate_chair	0	J	6	0	172	0		0	0	190.9788902	191.0788732
39624.5	0.0999865	662	satiated	stimuli/non_foods\non-food_inanimate_cactus_pot_plant.jpg	1	5	1	non-food_inanimate_cactus_pot_plant	0	R	12	0	169	0		0	0	191.1288879	191.2288744
39662	0.0999865	663	satiated	stimuli/foods\baked_lamb_with_potatoes.jpg	1	5	1	baked_lamb_with_potatoes	1	K	7	0	8	0		0	0	191.2788851	191.3788716
39699.5	0.0999719	664	satiated	stimuli/foods\beetroots.jpg	1	5	1	beetroots	1	W	16	0	10	1	a	1.1418265	1	191.4288894	191.5288613
39737	0.099966	665	satiated	stimuli/non_foods\non-food_inanimate_scissors.jpg	1	5	1	non-food_inanimate_scissors	0	X	17	0	205	0		0	0	191.5788758	191.6788418
39774.5	0.0999862	666	satiated	stimuli/non_foods\non-food_animate_hummingbird.jpg	1	5	1	non-food_animate_hummingbird	0	Z	18	0	120	0		0	0	191.72888	191.8288662
39812	0.0999817	667	satiated	stimuli/non_foods\non-food_inanimate_nettle.jpg	1	5	1	non-food_inanimate_nettle	0	C	1	0	197	0		0	0	191.8788828	191.9788645
39849.5	0.09999	668	satiated	stimuli/foods\brie.jpg	1	5	1	brie	1	B	0	0	12	0		0	0	192.0288761	192.1288661
39887	0.0999861	669	satiated	stimuli/foods\cooked_prawn.jpg	1	5	1	cooked_prawn	1	Z	18	0	36	0		0	0	192.1788782	192.2788643
39924.5	0.0999847	670	satiated	stimuli/non_foods\non-food_inanimate_broom.jpg	1	5	1	non-food_inanimate_broom	0	K	7	0	164	0		0	0	192.328878	192.4288627
39962	0.1000007	671	satiated	stimuli/foods\cracker.jpg	1	5	1	cracker	1	P	11	0	38	0		0	0	192.478875	192.5788757
39999.5	0.099978	672	satiated	stimuli/foods\museli_bars.jpg	1	5	1	museli_bars	1	G	4	0	84	0		0	0	192.6288836	192.7288616
40037	0.0999787	673	satiated	stimuli/non_foods\non-food_animate_grasshopper.jpg	1	5	1	non-food_animate_grasshopper	0	N	10	0	117	0		0	0	192.7788765	192.8788552
40074.5	0.099982	674	satiated	stimuli/foods\lettuce.jpg	1	5	1	lettuce	1	Z	18	0	75	0		0	0	192.9288755	193.0288575
40112	0.0999856	675	satiated	stimuli/non_foods\non-food_inanimate_padlock.jpg	1	5	1	non-food_inanimate_padlock	0	K	7	0	199	0		0	0	193.0788732	193.1788588
40149.5	0.0999945	676	satiated	stimuli/non_foods\non-food_inanimate_leaf.jpg	1	5	1	non-food_inanimate_leaf	0	R	12	0	192	0		0	0	193.228873	193.3288675
40187	0.0999836	677	satiated	stimuli/foods\hazelnuts.jpg	1	5	1	hazelnuts	1	P	11	0	65	0		0	0	193.3788689	193.4788525
40224.5	0.0999836	678	satiated	stimuli/non_foods\non-food_animate_green_bug.jpg	1	5	1	non-food_animate_green_bug	0	S	13	0	118	0		0	0	193.5288701	193.6288537
40262	0.0999838	679	satiated	stimuli/foods\frankfurter_and_provolone_salad.jpg	1	5	1	frankfurter_and_provolone_salad	1	G	4	0	49	0		0	0	193.6788676	193.7788514
40299.5	0.0999971	680	satiated	stimuli/non_foods\non-food_animate_student_female.jpg	1	5	1	non-food_animate_student_female	0	V	15	0	151	0		0	0	193.8288542	193.9288513
40337	0.0999846	681	satiated	stimuli/non_foods\non-food_animate_cat.jpg	1	5	1	non-food_animate_cat	0	S	13	0	98	0		0	0	193.978863	194.0788476
40374.5	0.0999761	682	satiated	stimuli/non_foods\non-food_inanimate_wrench.jpg	1	5	1	non-food_inanimate_wrench	0	R	12	0	227	0		0	0	194.1288723	194.2288484
40412	0.0999849	683	satiated	stimuli/foods\cherry.jpg	1	5	1	cherry	1	C	1	0	23	0		0	0	194.2788641	194.378849
40449.5	0.0999851	684	satiated	stimuli/non_foods\non-food_animate_squirrel.jpg	1	5	1	non-food_animate_squirrel	0	V	15	0	150	0		0	0	194.4288599	194.528845
40487	0.0999895	685	satiated	stimuli/non_foods\non-food_inanimate_soccer_ball.jpg	1	5	1	non-food_inanimate_soccer_ball	0	R	12	0	210	0		0	0	194.5788563	194.6788458
40524.5	0.0999833	686	satiated	stimuli/non_foods\non-food_animate_dragonfly.jpg	1	5	1	non-food_animate_dragonfly	0	B	0	0	108	0		0	0	194.7288603	194.8288436
40562	0.099991	687	satiated	stimuli/non_foods\non-food_animate_sea_lion.jpg	1	5	1	non-food_animate_sea_lion	0	F	3	0	143	0		0	0	194.8788544	194.9788454
40599.5	0.0999471	688	satiated	stimuli/foods\onion.jpg	1	5	1	onion	1	M	9	0	229	0		0	0	195.0288955	195.1288426
40637	0.0999877	689	satiated	stimuli/non_foods\non-food_inanimate_jeans.jpg	1	5	1	non-food_inanimate_jeans	0	T	14	0	191	0		0	0	195.1788508	195.2788385
40674.5	0.0999893	690	satiated	stimuli/non_foods\non-food_animate_owl.jpg	1	5	1	non-food_animate_owl	0	M	9	0	132	0		0	0	195.3288522	195.4288415
40712	0.0999818	691	satiated	stimuli/foods\celery.jpg	1	5	1	celery	1	R	12	0	21	0		0	0	195.4788536	195.5788354
40749.5	0.0999881	692	satiated	stimuli/foods\donut.jpg	1	5	1	donut	1	F	3	0	44	0		0	0	195.6288487	195.7288368
40787	0.0999893	693	satiated	stimuli/non_foods\non-food_animate_alligator.jpg	1	5	1	non-food_animate_alligator	0	B	0	0	90	0		0	0	195.7788486	195.8788379
40824.5	0.0999841	694	satiated	stimuli/foods\figs.jpg	1	5	1	figs	1	J	6	0	48	0		0	0	195.9288471	196.0288312
40862	0.0999886	695	satiated	stimuli/non_foods\non-food_inanimate_fern.jpg	1	5	1	non-food_inanimate_fern	0	F	3	0	180	0		0	0	196.078846	196.1788346
40899.5	0.0999865	696	satiated	stimuli/foods\lollies.jpg	1	5	1	lollies	1	T	14	0	78	0		0	0	196.2288458	196.3288323
40937	0.0999885	697	satiated	stimuli/non_foods\non-food_animate_donkey.jpg	1	5	1	non-food_animate_donkey	0	C	1	0	107	0		0	0	196.3788421	196.4788306
40974.5	0.0999842	698	satiated	stimuli/foods\roasted_chicken.jpg	1	5	1	roasted_chicken	1	S	13	0	261	0		0	0	196.5288423	196.6288265
41012	0.1000229	699	satiated	stimuli/foods\ginger_root.jpg	1	5	1	ginger_root	1	T	14	0	57	0		0	0	196.6788423	196.7788652
41862	0.0999747	700	satiated	stimuli/foods\pasta_carbonara.jpg	1	6	1	pasta_carbonara	1	L	8	0	236	0		0	0	200.0788251	200.1787998
41899.5	0.0999933	701	satiated	stimuli/foods\steak.jpg	1	6	1	steak	1	R	12	0	270	0		0	0	200.2288066	200.3287999
41937	0.0999816	702	satiated	stimuli/non_foods\non-food_inanimate_hammer.jpg	1	6	1	non-food_inanimate_hammer	0	H	5	0	186	0		0	0	200.3788162	200.4787978
41974.5	0.0999837	703	satiated	stimuli/foods\mussels.jpg	1	6	1	mussels	1	T	14	0	86	0		0	0	200.5288116	200.6287953
42012	0.099983	704	satiated	stimuli/non_foods\non-food_animate_iguana.jpg	1	6	1	non-food_animate_iguana	0	P	11	0	121	0		0	0	200.6788127	200.7787957
42049.5	0.0999854	705	satiated	stimuli/non_foods\non-food_animate_polar_bear.jpg	1	6	1	non-food_animate_polar_bear	0	T	14	0	137	0		0	0	200.8288107	200.9287961
42087	0.0999842	706	satiated	stimuli/non_foods\non-food_inanimate_skateboard.jpg	1	6	1	non-food_inanimate_skateboard	0	B	0	0	208	0		0	0	200.9788093	201.0787935
42124.5	0.0999774	707	satiated	stimuli/non_foods\non-food_inanimate_skirt.jpg	1	6	1	non-food_inanimate_skirt	0	L	8	0	209	0		0	0	201.128815	201.2287924
42162	0.0999837	708	satiated	stimuli/non_foods\non-food_inanimate_bed.jpg	1	6	1	non-food_inanimate_bed	0	R	12	0	160	0		0	0	201.2788068	201.3787905
42199.5	0.0999905	709	satiated	stimuli/non_foods\non-food_inanimate_socks.jpg	1	6	1	non-food_inanimate_socks	0	X	17	0	211	0		0	0	201.4288087	201.5287992
42237	0.100002	710	satiated	stimuli/foods\wafer.jpg	1	6	1	wafer	1	K	7	0	277	0		0	0	201.5788034	201.6788054
42274.5	0.0999561	711	satiated	stimuli/non_foods\non-food_animate_cheetah.jpg	1	6	1	non-food_animate_cheetah	0	S	13	0	100	0		0	0	201.7288251	201.8287812
42312	0.0999754	712	satiated	stimuli/non_foods\non-food_inanimate_speakers.jpg	1	6	1	non-food_inanimate_speakers	0	P	11	0	212	0		0	0	201.8788075	201.9787829
42349.5	0.0999845	713	satiated	stimuli/foods\fried_calamari.jpg	1	6	1	fried_calamari	1	R	12	0	50	0		0	0	202.0287931	202.1287776
42387	0.1000003	714	satiated	stimuli/non_foods\non-food_inanimate_bush.jpg	1	6	1	non-food_inanimate_bush	0	M	9	0	167	0		0	0	202.1787843	202.2787846
42424.5	0.0999837	715	satiated	stimuli/non_foods\non-food_inanimate_buds.jpg	1	6	1	non-food_inanimate_buds	0	H	5	0	166	0		0	0	202.3287994	202.4287831
42462	0.0999861	716	satiated	stimuli/non_foods\non-food_animate_horse.jpg	1	6	1	non-food_animate_horse	0	L	8	0	119	0		0	0	202.4787973	202.5787834
42499.5	0.0999813	717	satiated	stimuli/foods\fruit_flan.jpg	1	6	1	fruit_flan	1	R	12	0	53	0		0	0	202.628799	202.7287803
42537	0.0999869	718	satiated	stimuli/foods\cauliflower.jpg	1	6	1	cauliflower	1	U	23	1	20	0		0	0	202.7787939	202.8787808
42574.5	0.0999733	719	satiated	stimuli/foods\cooked_ham.jpg	1	6	1	cooked_ham	1	L	8	0	35	0		0	0	202.9288072	203.0287805
42612	0.0999864	720	satiated	stimuli/non_foods\non-food_animate_fox.jpg	1	6	1	non-food_animate_fox	0	H	5	0	112	0		0	0	203.0787934	203.1787798
42649.5	0.099991	721	satiated	stimuli/non_foods\non-food_animate_deer.jpg	1	6	1	non-food_animate_deer	0	W	16	0	105	0		0	0	203.2287873	203.3287783
42687	0.100012	722	satiated	stimuli/foods\cabbage.jpg	1	6	1	cabbage	1	L	8	0	16	0		0	0	203.3787912	203.4788032
42724.5	0.099937	723	satiated	stimuli/non_foods\non-food_animate_killer_whale.jpg	1	6	1	non-food_animate_killer_whale	0	J	6	0	123	0		0	0	203.5288372	203.6287742
42762	0.0999854	724	satiated	stimuli/foods\almonds.jpg	1	6	1	almonds	1	G	4	0	0	0		0	0	203.6787872	203.7787726
42799.5	0.0999793	725	satiated	stimuli/non_foods\non-food_inanimate_rope.jpg	1	6	1	non-food_inanimate_rope	0	W	16	0	204	0		0	0	203.828792	203.9287713
42837	0.0999835	726	satiated	stimuli/non_foods\non-food_inanimate_orchid.jpg	1	6	1	non-food_inanimate_orchid	0	X	17	0	198	0		0	0	203.9787858	204.0787693
42874.5	0.099986	727	satiated	stimuli/non_foods\non-food_inanimate_rack.jpg	1	6	1	non-food_inanimate_rack	0	T	14	0	202	0		0	0	204.1287856	204.2287716
42912	0.0999859	728	satiated	stimuli/non_foods\non-food_inanimate_canoe.jpg	1	6	1	non-food_inanimate_canoe	0	H	5	0	170	0		0	0	204.2787829	204.3787688
