onset	duration	eventnumber	hunger_condition	stimfilename	blockno	trialno	is_faststream	stim	food_idx	letter	letter_idx	istarget	image_number	response	keypressed	rt	correct	time_stimon	time_stimoff
8721.25	0.0999759000260383	0	satiated	stimuli/non_foods\non-food_inanimate_protractor.jpg	1	1	1	non-food_inanimate_protractor	0	G	4	0	201	0		0	0	87.9229962999234	88.0229721999494
8758.75	0.10003719991073	1	satiated	stimuli/foods\papaya.jpg	1	1	1	papaya	1	C	1	0	235	0		0	0	88.0729883000022	88.1730254999129
8796.25	0.0999838999705389	2	satiated	stimuli/non_foods\non-food_animate_penguin.jpg	1	1	1	non-food_animate_penguin	0	B	0	0	135	0		0	0	88.2229876000201	88.3229714999907
8833.75	0.0999667999567464	3	satiated	stimuli/foods\fruit_pie.jpg	1	1	1	fruit_pie	1	G	4	0	54	0		0	0	88.3729982000077	88.4729649999645
8871.25	0.099982799962163	4	satiated	stimuli/non_foods\non-food_inanimate_jeans.jpg	1	1	1	non-food_inanimate_jeans	0	F	3	0	191	0		0	0	88.5229813000187	88.6229640999809
8908.75	0.0999852000968531	5	satiated	stimuli/foods\cucumber.jpg	1	1	1	cucumber	1	J	6	0	41	0		0	0	88.6729799999157	88.7729652000125
8946.25	0.0999819000717252	6	satiated	stimuli/foods\red_beans.jpg	1	1	1	red_beans	1	R	12	0	255	0		0	0	88.8229767999146	88.9229586999863
8983.75	0.0999965000664815	7	satiated	stimuli/non_foods\non-food_animate_peacock.jpg	1	1	1	non-food_animate_peacock	0	G	4	0	134	0		0	0	88.9729745999211	89.0729710999876
9021.25	0.0999945000512525	8	satiated	stimuli/non_foods\non-food_animate_hummingbird.jpg	1	1	1	non-food_animate_hummingbird	0	B	0	0	120	0		0	0	89.1229620999657	89.2229566000169
9058.75	0.0999840000877157	9	satiated	stimuli/non_foods\non-food_inanimate_broom.jpg	1	1	1	non-food_inanimate_broom	0	C	1	0	164	0		0	0	89.2729699999327	89.3729540000204
9096.25	0.0999879000009969	10	satiated	stimuli/foods\lemon.jpg	1	1	1	lemon	1	D	2	0	72	0		0	0	89.4229673999362	89.5229552999372
9133.75	0.0999824999598786	11	satiated	stimuli/non_foods\non-food_animate_iguana.jpg	1	1	1	non-food_animate_iguana	0	H	5	0	121	0		0	0	89.5729684999678	89.6729509999277
9171.25	0.0999857999850065	12	satiated	stimuli/foods\cabbage.jpg	1	1	1	cabbage	1	C	1	0	16	0		0	0	89.7229637999553	89.8229495999403
9208.75	0.0997640000423416	13	satiated	stimuli/foods\blackberry.jpg	1	1	1	blackberry	1	F	3	0	11	0		0	0	89.8731911999639	89.9729552000063
9246.25	0.0999835999682546	14	satiated	stimuli/foods\raw_ham.jpg	1	1	1	raw_ham	1	C	1	0	253	0		0	0	90.0229618999874	90.1229454999557
9283.75	0.0999735000077635	15	satiated	stimuli/non_foods\non-food_animate_young_boy.jpg	1	1	1	non-food_animate_young_boy	0	F	3	0	156	0		0	0	90.1729759000009	90.2729494000087
9321.25	0.0999822999583557	16	satiated	stimuli/foods\orange.jpg	1	1	1	orange	1	R	12	0	230	0		0	0	90.3229611000279	90.4229433999863
9358.75	0.0999830999644473	17	satiated	stimuli/non_foods\non-food_inanimate_watering_can.jpg	1	1	1	non-food_inanimate_watering_can	0	J	6	0	225	0		0	0	90.4729567000177	90.5729397999821
9396.25	0.0999915000284091	18	satiated	stimuli/non_foods\non-food_animate_butterfly.jpg	1	1	1	non-food_animate_butterfly	0	Z	18	0	96	0		0	0	90.6229651999893	90.7229567000177
9433.75	0.0999761999119073	19	satiated	stimuli/foods\lemon_meringue_pie.jpg	1	1	1	lemon_meringue_pie	1	D	2	0	73	0		0	0	90.7729648000095	90.8729409999214
9471.25	0.0999674000777304	20	satiated	stimuli/foods\salami.jpg	1	1	1	salami	1	S	13	0	263	0		0	0	90.9229662999278	91.0229337000055
9508.75	0.0999681000830606	21	satiated	stimuli/foods\apple.jpg	1	1	1	apple	1	F	3	0	1	0		0	0	91.0729494999396	91.1729176000226
9546.25	0.0999652000609785	22	satiated	stimuli/non_foods\non-food_animate_deer.jpg	1	1	1	non-food_animate_deer	0	L	8	0	105	0		0	0	91.2229445999255	91.3229097999865
9583.75	0.0999817000702024	23	satiated	stimuli/foods\figs.jpg	1	1	1	figs	1	J	6	0	48	0		0	0	91.3729413999245	91.4729230999947
9621.25	0.0999875999987125	24	satiated	stimuli/foods\fennel.jpg	1	1	1	fennel	1	K	7	0	47	0		0	0	91.5229333000025	91.6229209000012
9658.75	0.0999994999729097	25	satiated	stimuli/foods\egg.jpg	1	1	1	egg	1	F	3	0	45	0		0	0	91.6729255999671	91.77292509994
9696.25	0.0999848999781534	26	satiated	stimuli/non_foods\non-food_inanimate_skateboard.jpg	1	1	1	non-food_inanimate_skateboard	0	C	1	0	208	0		0	0	91.8229397999821	91.9229246999603
9733.75	0.0999919000314549	27	satiated	stimuli/foods\stew_with_potatoes_and_carrots.jpg	1	1	1	stew_with_potatoes_and_carrots	1	D	2	0	271	0		0	0	91.9729494999629	92.0729413999943
9771.25	0.0999585000099614	28	satiated	stimuli/non_foods\non-food_inanimate_couch.jpg	1	1	1	non-food_inanimate_couch	0	F	3	0	176	0		0	0	92.1229565999238	92.2229150999337
9808.75	0.099984799977392	29	satiated	stimuli/non_foods\non-food_inanimate_nest.jpg	1	1	1	non-food_inanimate_nest	0	N	10	0	196	0		0	0	92.2729368000291	92.3729216000065
9846.25	0.0999777000397444	30	satiated	stimuli/foods\cinnamon_sroll.jpg	1	1	1	cinnamon_sroll	1	W	16	0	31	0		0	0	92.4229360999307	92.5229137999704
9883.75	0.0999892998952419	31	satiated	stimuli/foods\cooked_prawn.jpg	1	1	1	cooked_prawn	1	F	3	0	36	0		0	0	92.572944900021	92.6729341999162
9921.25	0.0999557999894023	32	satiated	stimuli/foods\strawberry.jpg	1	1	1	strawberry	1	H	5	0	272	0		0	0	92.7229572000215	92.8229130000109
9958.75	0.0999852000968531	33	satiated	stimuli/foods\watermelon.jpg	1	1	1	watermelon	1	F	3	0	279	0		0	0	92.8729245999129	92.9729098000098
9996.25	0.0999854999827221	34	satiated	stimuli/foods\garlic.jpg	1	1	1	garlic	1	I	21	1	56	0		0	0	93.022926799953	93.1229122999357
10033.75	0.0999808999476954	35	satiated	stimuli/foods\coffee_beans.jpg	1	1	1	coffee_beans	1	N	10	0	34	0		0	0	93.1729258999694	93.2729067999171
10071.25	0.0999848999781534	36	satiated	stimuli/non_foods\non-food_inanimate_waterlily.jpg	1	1	1	non-food_inanimate_waterlily	0	P	11	0	226	0		0	0	93.3229209999554	93.4229058999335
10108.75	0.0999806999461725	37	satiated	stimuli/foods\brie.jpg	1	1	1	brie	1	N	10	0	12	1	a	0.541821400052868	1	93.4729236999992	93.5729043999454
10146.25	0.100000799982809	38	satiated	stimuli/foods\cinnamon.jpg	1	1	1	cinnamon	1	T	14	0	30	0		0	0	93.6229231000179	93.7229239000008
10183.75	0.0999817999545485	39	satiated	stimuli/non_foods\non-food_inanimate_nettle.jpg	1	1	1	non-food_inanimate_nettle	0	L	8	0	197	0		0	0	93.7729317999911	93.8729135999456
10221.25	0.0999851999804378	40	satiated	stimuli/foods\lentils.jpg	1	1	1	lentils	1	B	0	0	74	0		0	0	93.9229151000036	94.022900299984
10258.75	0.0999830999644473	41	satiated	stimuli/non_foods\non-food_inanimate_suitcase.jpg	1	1	1	non-food_inanimate_suitcase	0	R	12	0	215	0		0	0	94.0729109999957	94.1728940999601
10296.25	0.0999789999332279	42	satiated	stimuli/foods\carrot.jpg	1	1	1	carrot	1	L	8	0	19	0		0	0	94.222922099987	94.3229010999203
10333.75	0.0999584000092	43	satiated	stimuli/non_foods\non-food_animate_giraffe.jpg	1	1	1	non-food_animate_giraffe	0	N	10	0	115	0		0	0	94.3729335999815	94.4728919999907
10371.25	0.0999703000998124	44	satiated	stimuli/non_foods\non-food_animate_ant.jpg	1	1	1	non-food_animate_ant	0	C	1	0	91	0		0	0	94.5229216999141	94.622892000014
10408.75	0.0999842000892386	45	satiated	stimuli/non_foods\non-food_inanimate_fern.jpg	1	1	1	non-food_inanimate_fern	0	R	12	0	180	0		0	0	94.6729059999343	94.7728902000235
10446.25	0.0999822000740096	46	satiated	stimuli/foods\cooked_ham.jpg	1	1	1	cooked_ham	1	N	10	0	35	0		0	0	94.8229034999385	94.9228857000126
10483.75	0.0999873999971896	47	satiated	stimuli/non_foods\non-food_inanimate_chandelier.jpg	1	1	1	non-food_inanimate_chandelier	0	X	17	0	173	0		0	0	94.9729016999481	95.0728890999453
10521.25	0.0999857999850065	48	satiated	stimuli/foods\prawn.jpg	1	1	1	prawn	1	V	15	0	249	0		0	0	95.1229010999668	95.2228868999518
10558.75	0.0999810999492183	49	satiated	stimuli/foods\cereal.jpg	1	1	1	cereal	1	M	9	0	22	0		0	0	95.2728987999726	95.3728798999218
10596.25	0.100010599941015	50	satiated	stimuli/foods\fries.jpg	1	1	1	fries	1	B	0	0	52	0		0	0	95.4228959999746	95.5229065999156
10633.75	0.0999615000328049	51	satiated	stimuli/foods\cannoli.jpg	1	1	1	cannoli	1	A	19	1	17	0		0	0	95.5729014999233	95.6728629999561
10671.25	0.100013399962336	52	satiated	stimuli/foods\tomato.jpg	1	1	1	tomato	1	B	0	0	276	0		0	0	95.7228643000126	95.8228776999749
10708.75	0.0999788000481203	53	satiated	stimuli/foods\red_cabbage.jpg	1	1	1	red_cabbage	1	T	14	0	256	1	a	0.391800700104795	1	95.8728788999142	95.9728576999623
10746.25	0.0999875999987125	54	satiated	stimuli/non_foods\non-food_animate_skunk.jpg	1	1	1	non-food_animate_skunk	0	X	17	0	147	0		0	0	96.0228899000213	96.12287750002
10783.75	0.0999691000906751	55	satiated	stimuli/foods\lamb_chops.jpg	1	1	1	lamb_chops	1	F	3	0	70	0		0	0	96.1729040999198	96.2728732000105
10821.25	0.0999831000808626	56	satiated	stimuli/non_foods\non-food_inanimate_towel.jpg	1	1	1	non-food_inanimate_towel	0	R	12	0	221	0		0	0	96.3228882999392	96.4228714000201
10858.75	0.100000699982047	57	satiated	stimuli/non_foods\non-food_inanimate_bowling_ball.jpg	1	1	1	non-food_inanimate_bowling_ball	0	W	16	0	162	0		0	0	96.4728662000271	96.5728669000091
10896.25	0.0999807000625879	58	satiated	stimuli/non_foods\non-food_animate_dachshund.jpg	1	1	1	non-food_animate_dachshund	0	C	1	0	104	0		0	0	96.6228852999629	96.7228660000255
10933.75	0.0999818000709638	59	satiated	stimuli/foods\oyster.jpg	1	1	1	oyster	1	Z	18	0	233	0		0	0	96.7728798999451	96.8728617000161
10971.25	0.0999803000595421	60	satiated	stimuli/foods\hotdog.jpg	1	1	1	hotdog	1	J	6	0	67	0		0	0	96.9228792999638	97.0228596000234
11008.75	0.0999917999142781	61	satiated	stimuli/foods\risotto_with_zucchini.jpg	1	1	1	risotto_with_zucchini	1	D	2	0	260	0		0	0	97.0728693000274	97.1728610999417
11046.25	0.0999813999515027	62	satiated	stimuli/foods\ice_cream.jpg	1	1	1	ice_cream	1	N	10	0	68	0		0	0	97.2228741999716	97.3228555999231
11083.75	0.0999878000002354	63	satiated	stimuli/non_foods\non-food_inanimate_stapler.jpg	1	1	1	non-food_inanimate_stapler	0	H	5	0	213	0		0	0	97.3728703999659	97.4728581999661
11121.25	0.0999883000040427	64	satiated	stimuli/non_foods\non-food_animate_seal.jpg	1	1	1	non-food_animate_seal	0	T	14	0	146	0		0	0	97.5228661999572	97.6228544999612
11158.75	0.0999820999568328	65	satiated	stimuli/foods\pepperoni_pizza.jpg	1	1	1	pepperoni_pizza	1	B	0	0	241	0		0	0	97.6728699000087	97.7728519999655
11196.25	0.0999850999796763	66	satiated	stimuli/foods\lettuce.jpg	1	1	1	lettuce	1	X	17	0	75	0		0	0	97.8228689000243	97.922854000004
11233.75	0.0999650000594556	67	satiated	stimuli/foods\pineapple.jpg	1	1	1	pineapple	1	J	6	0	243	0		0	0	97.9728826999199	98.0728476999793
11271.25	0.100026500062086	68	satiated	stimuli/foods\cupcake.jpg	1	1	1	cupcake	1	N	10	0	42	0		0	0	98.1228383999551	98.2228649000172
11308.75	0.0999873999971896	69	satiated	stimuli/non_foods\non-food_animate_mammoth.jpg	1	1	1	non-food_animate_mammoth	0	C	1	0	128	0		0	0	98.2728509999579	98.3728383999551
11346.25	0.0999849999789149	70	satiated	stimuli/non_foods\non-food_animate_lizard.jpg	1	1	1	non-food_animate_lizard	0	B	0	0	126	0		0	0	98.4228526999941	98.522837699973
11383.75	0.100010299938731	71	satiated	stimuli/non_foods\non-food_animate_caterpillar.jpg	1	1	1	non-food_animate_caterpillar	0	R	12	0	99	0		0	0	98.5728330999846	98.6728433999233
11421.25	0.0999809999484569	72	satiated	stimuli/foods\croissant.jpg	1	1	1	croissant	1	W	16	0	40	0		0	0	98.7228587999707	98.8228397999192
11458.75	0.0999850999796763	73	satiated	stimuli/non_foods\non-food_animate_cow.jpg	1	1	1	non-food_animate_cow	0	F	3	0	103	0		0	0	98.8728516999399	98.9728367999196
11496.25	0.0999703999841586	74	satiated	stimuli/foods\museli_bars.jpg	1	1	1	museli_bars	1	W	16	0	84	0		0	0	99.0228873000015	99.1228576999856
11533.75	0.0999873999971896	75	satiated	stimuli/non_foods\non-food_inanimate_chair.jpg	1	1	1	non-food_inanimate_chair	0	H	5	0	172	0		0	0	99.1728354999796	99.2728228999767
11571.25	0.0999836000846699	76	satiated	stimuli/non_foods\non-food_animate_rhino.jpg	1	1	1	non-food_animate_rhino	0	W	16	0	141	0		0	0	99.3228419999359	99.4228256000206
11608.75	0.099982300074771	77	satiated	stimuli/foods\mortadella.jpg	1	1	1	mortadella	1	P	11	0	83	0		0	0	99.4728411999531	99.5728235000279
11646.25	0.0999970999546349	78	satiated	stimuli/non_foods\non-food_inanimate_ring.jpg	1	1	1	non-food_inanimate_ring	0	X	17	0	203	0		0	0	99.6228388999589	99.7228359999135
11683.75	0.099973600008525	79	satiated	stimuli/foods\omelette.jpg	1	1	1	omelette	1	L	8	0	228	0		0	0	99.7728566000005	99.872830200009
11721.25	0.0999935000436381	80	satiated	stimuli/non_foods\non-food_inanimate_short_sleeved_shirt.jpg	1	1	1	non-food_inanimate_short_sleeved_shirt	0	H	5	0	207	0		0	0	99.922834899975	100.022828400019
11758.75	0.099980500061065	81	satiated	stimuli/foods\artichoke.jpg	1	1	1	artichoke	1	N	10	0	3	0		0	0	100.07284379995	100.172824300011
11796.25	0.0999791999347508	82	satiated	stimuli/non_foods\non-food_animate_owl.jpg	1	1	1	non-food_animate_owl	0	J	6	0	132	0		0	0	100.222829199978	100.322808399913
11833.75	0.0999846999766305	83	satiated	stimuli/foods\bagel.jpg	1	1	1	bagel	1	L	8	0	6	0		0	0	100.372830000008	100.472814699984
11871.25	0.0999852999811992	84	satiated	stimuli/foods\rice_cake.jpg	1	1	1	rice_cake	1	W	16	0	258	0		0	0	100.522828000016	100.622813299997
11908.75	0.0999990999698639	85	satiated	stimuli/non_foods\non-food_animate_german_shepherd.jpg	1	1	1	non-food_animate_german_shepherd	0	H	5	0	114	0		0	0	100.672815699945	100.772814799915
11946.25	0.0999651999445632	86	satiated	stimuli/non_foods\non-food_inanimate_bush.jpg	1	1	1	non-food_inanimate_bush	0	F	3	0	167	0		0	0	100.822848499985	100.92281369993
11983.75	0.0999720999971032	87	satiated	stimuli/non_foods\non-food_inanimate_padlock.jpg	1	1	1	non-food_inanimate_padlock	0	D	2	0	199	0		0	0	100.972842999967	101.072815099964
12021.25	0.099942300003022	88	satiated	stimuli/non_foods\non-food_inanimate_sun_flower.jpg	1	1	1	non-food_inanimate_sun_flower	0	W	16	0	216	0		0	0	101.12285689998	101.222799199983
12058.75	0.0999859999865294	89	satiated	stimuli/non_foods\non-food_animate_parrot.jpg	1	1	1	non-food_animate_parrot	0	Z	18	0	133	0		0	0	101.27282730001	101.372813299997
12096.25	0.0999916999135166	90	satiated	stimuli/non_foods\non-food_animate_bat.jpg	1	1	1	non-food_animate_bat	0	F	3	0	94	0		0	0	101.422825600021	101.522817299934
12133.75	0.0999482000479475	91	satiated	stimuli/non_foods\non-food_inanimate_teddy_bear.jpg	1	1	1	non-food_inanimate_teddy_bear	0	P	11	0	218	0		0	0	101.572856899933	101.672805099981
12171.25	0.0999849999789149	92	satiated	stimuli/non_foods\non-food_inanimate_briefcase.jpg	1	1	1	non-food_inanimate_briefcase	0	R	12	0	163	0		0	0	101.722819100018	101.822804099997
12208.75	0.0999829000793397	93	satiated	stimuli/foods\waffle.jpg	1	1	1	waffle	1	F	3	0	278	0		0	0	101.872818199918	101.972801099997
12246.25	0.0999826000770554	94	satiated	stimuli/non_foods\non-food_inanimate_soccer_ball.jpg	1	1	1	non-food_inanimate_soccer_ball	0	S	13	0	210	0		0	0	102.022817499936	102.122800100013
12283.75	0.0999871999956667	95	satiated	stimuli/non_foods\non-food_inanimate_lighter.jpg	1	1	1	non-food_inanimate_lighter	0	R	12	0	193	0		0	0	102.17281499994	102.272802199936
12321.25	0.0999848999781534	96	satiated	stimuli/foods\broccoli.jpg	1	1	1	broccoli	1	D	2	0	13	0		0	0	102.322812899947	102.422797799925
12358.75	0.0999791000504047	97	satiated	stimuli/non_foods\non-food_inanimate_cupboard.jpg	1	1	1	non-food_inanimate_cupboard	0	T	14	0	177	0		0	0	102.472809699946	102.572788799996
12396.25	0.099968499969691	98	satiated	stimuli/foods\pea_pod.jpg	1	1	1	pea_pod	1	B	0	0	237	0		0	0	102.622817300027	102.722785799997
12433.75	0.0999804000603035	99	satiated	stimuli/foods\coconut.jpg	1	1	1	coconut	1	R	12	0	33	0		0	0	102.772799999919	102.872780399979
12471.25	0.0999812000663951	100	satiated	stimuli/non_foods\non-food_animate_fox.jpg	1	1	1	non-food_animate_fox	0	J	6	0	112	0		0	0	102.922800199944	103.02278140001
12508.75	0.0999817000702024	101	satiated	stimuli/non_foods\non-food_inanimate_hay.jpg	1	1	1	non-food_inanimate_hay	0	N	10	0	187	0		0	0	103.072797499946	103.172779200017
12546.25	0.0999687999719754	102	satiated	stimuli/foods\chocolate_pudding.jpg	1	1	1	chocolate_pudding	1	L	8	0	29	0		0	0	103.222813499975	103.322782299947
12583.75	0.0999468999216333	103	satiated	stimuli/foods\chestnut.jpg	1	1	1	chestnut	1	T	14	0	24	0		0	0	103.372816800023	103.472763699945
12621.25	0.0999837999697775	104	satiated	stimuli/foods\pomegranate.jpg	1	1	1	pomegranate	1	Z	18	0	244	0		0	0	103.522790699964	103.622774499934
12658.75	0.0999859999865294	105	satiated	stimuli/non_foods\non-food_inanimate_bed.jpg	1	1	1	non-food_inanimate_bed	0	W	16	0	160	0		0	0	103.67278839997	103.772774399957
12696.25	0.0999830999644473	106	satiated	stimuli/non_foods\non-food_animate_pigeon.jpg	1	1	1	non-food_animate_pigeon	0	H	5	0	136	0		0	0	103.822788199992	103.922771299956
12733.75	0.0999927000375465	107	satiated	stimuli/non_foods\non-food_animate_donkey.jpg	1	1	1	non-food_animate_donkey	0	S	13	0	107	0		0	0	103.972780199954	104.072772899992
12771.25	0.099983699969016	108	satiated	stimuli/foods\smoked_ham.jpg	1	1	1	smoked_ham	1	K	7	0	266	0		0	0	104.122784900013	104.222768599982
12808.75	0.0999819999560714	109	satiated	stimuli/foods\chocolate_bar.jpg	1	1	1	chocolate_bar	1	V	15	0	26	0		0	0	104.272783200024	104.37276519998
12846.25	0.0999720999971032	110	satiated	stimuli/non_foods\non-food_animate_swan.jpg	1	1	1	non-food_animate_swan	0	G	4	0	152	0		0	0	104.42280369997	104.522775799967
12883.75	0.0999834999674931	111	satiated	stimuli/non_foods\non-food_animate_gorilla.jpg	1	1	1	non-food_animate_gorilla	0	Z	18	0	116	0		0	0	104.5727893	104.672772799968
12921.25	0.0999567999970168	112	satiated	stimuli/foods\spring_onions.jpg	1	1	1	spring_onions	1	C	1	0	269	0		0	0	104.722786099999	104.822742899996
12958.75	0.0999845999758691	113	satiated	stimuli/non_foods\non-food_inanimate_cactus_pot_plant.jpg	1	1	1	non-food_inanimate_cactus_pot_plant	0	R	12	0	169	0		0	0	104.872781399987	104.972765999963
12996.25	0.0999974999576807	114	satiated	stimuli/foods\corncob.jpg	1	1	1	corncob	1	N	10	0	37	0		0	0	105.022793199983	105.122790699941
13033.75	0.099956399993971	115	satiated	stimuli/non_foods\non-food_inanimate_bamboo.jpg	1	1	1	non-food_inanimate_bamboo	0	X	17	0	159	0		0	0	105.172802199959	105.272758599953
13071.25	0.0999713999917731	116	satiated	stimuli/non_foods\non-food_inanimate_toilet.jpg	1	1	1	non-food_inanimate_toilet	0	G	4	0	220	0		0	0	105.322789700003	105.422761099995
13108.75	0.0999882000032812	117	satiated	stimuli/non_foods\non-food_animate_elephant.jpg	1	1	1	non-food_animate_elephant	0	V	15	0	111	0		0	0	105.47277360002	105.572761800024
13146.25	0.099988600006327	118	satiated	stimuli/foods\fried_calamari.jpg	1	1	1	fried_calamari	1	Z	18	0	50	0		0	0	105.622769100009	105.722757700016
13183.75	0.0999795000534505	119	satiated	stimuli/non_foods\non-food_inanimate_pine_cone.jpg	1	1	1	non-food_inanimate_pine_cone	0	N	10	0	200	0		0	0	105.772776499973	105.872756000026
13221.25	0.0999945000512525	120	satiated	stimuli/foods\eggplant.jpg	1	1	1	eggplant	1	H	5	0	46	0		0	0	105.922752099927	106.022746599978
13258.75	0.0999843999743462	121	satiated	stimuli/non_foods\non-food_inanimate_fire_extinguisher.jpg	1	1	1	non-food_inanimate_fire_extinguisher	0	V	15	0	181	0		0	0	106.072761000018	106.172745399992
13296.25	0.0999670999590307	122	satiated	stimuli/foods\oregano.jpg	1	1	1	oregano	1	T	14	0	231	0		0	0	106.222774500027	106.322741599986
13333.75	0.0999872999964282	123	satiated	stimuli/foods\dates.jpg	1	1	1	dates	1	L	8	0	43	0		0	0	106.372755500022	106.472742800019
13371.25	0.1000015999889	124	satiated	stimuli/foods\onion.jpg	1	1	1	onion	1	K	7	0	229	0		0	0	106.522748099989	106.622749699978
13408.75	0.0999853999819607	125	satiated	stimuli/foods\asparagus.jpg	1	1	1	asparagus	1	G	4	0	4	0		0	0	106.672757699969	106.772743099951
13446.25	0.0999868999933824	126	satiated	stimuli/non_foods\non-food_animate_mouse.jpg	1	1	1	non-food_animate_mouse	0	P	11	0	131	0		0	0	106.822772099986	106.922758999979
13483.75	0.0999586000107229	127	satiated	stimuli/non_foods\non-food_inanimate_tulip.jpg	1	1	1	non-food_inanimate_tulip	0	V	15	0	224	0		0	0	106.972783899982	107.072742499993
13521.25	0.0999855999834836	128	satiated	stimuli/non_foods\non-food_inanimate_tent.jpg	1	1	1	non-food_inanimate_tent	0	K	7	0	219	0		0	0	107.122753200005	107.222738799988
13558.75	0.0999898000154644	129	satiated	stimuli/non_foods\non-food_animate_student_female.jpg	1	1	1	non-food_animate_student_female	0	X	17	0	151	0		0	0	107.272747299983	107.372737099999
13596.25	0.099982300074771	130	satiated	stimuli/foods\gnocchi.jpg	1	1	1	gnocchi	1	J	6	0	58	0		0	0	107.422750699916	107.522732999991
13633.75	0.0999869001097977	131	satiated	stimuli/foods\hazelnuts.jpg	1	1	1	hazelnuts	1	M	9	0	65	0		0	0	107.572747799917	107.672734700027
13671.25	0.0999810000648722	132	satiated	stimuli/foods\cauliflower.jpg	1	1	1	cauliflower	1	N	10	0	20	0		0	0	107.722749999957	107.822731000022
13708.75	0.0999601000221446	133	satiated	stimuli/foods\potato_chips.jpg	1	1	1	potato_chips	1	G	4	0	247	0		0	0	107.872744799941	107.972704899963
13746.25	0.0999550999840721	134	satiated	stimuli/non_foods\non-food_inanimate_horn.jpg	1	1	1	non-food_inanimate_horn	0	H	5	0	190	0		0	0	108.022773899953	108.122728999937
13783.75	0.0999868999933824	135	satiated	stimuli/non_foods\non-food_animate_dolphin.jpg	1	1	1	non-food_animate_dolphin	0	L	8	0	106	0		0	0	108.172738799942	108.272725699935
13821.25	0.0999878000002354	136	satiated	stimuli/non_foods\non-food_animate_woman.jpg	1	1	1	non-food_animate_woman	0	P	11	0	154	0		0	0	108.322738299961	108.422726099961
13858.75	0.0999899000162259	137	satiated	stimuli/foods\brownie.jpg	1	1	1	brownie	1	X	17	0	14	0		0	0	108.4727404	108.572730300017
13896.25	0.0999741000123322	138	satiated	stimuli/foods\lollies.jpg	1	1	1	lollies	1	P	11	0	78	0		0	0	108.622745699948	108.72271979996
13933.75	0.099971599993296	139	satiated	stimuli/non_foods\non-food_inanimate_grass.jpg	1	1	1	non-food_inanimate_grass	0	H	5	0	184	0		0	0	108.772748599993	108.872720199986
15983.75	0.0999756000237539	140	satiated	stimuli/foods\baked_cod_with_carrots_and_green_beans.jpg	1	2	1	baked_cod_with_carrots_and_green_beans	1	H	5	0	7	0		0	0	116.972643599962	117.072619199986
16021.25	0.0999853999819607	141	satiated	stimuli/non_foods\non-food_inanimate_headphones.jpg	1	2	1	non-food_inanimate_headphones	0	F	3	0	188	0		0	0	117.122632400016	117.222617799998
16058.75	0.0999797000549734	142	satiated	stimuli/non_foods\non-food_animate_Asian_man.jpg	1	2	1	non-food_animate_Asian_man	0	K	7	0	88	0		0	0	117.272633199929	117.372612899984
16096.25	0.0999822000740096	143	satiated	stimuli/foods\grapes.jpg	1	2	1	grapes	1	S	13	0	60	0		0	0	117.422632099944	117.522614300018
16133.75	0.0999841000884771	144	satiated	stimuli/non_foods\non-food_animate_grasshopper.jpg	1	2	1	non-food_animate_grasshopper	0	G	4	0	117	0		0	0	117.572626599926	117.672610700014
16171.25	0.0999862999888137	145	satiated	stimuli/non_foods\non-food_animate_slug.jpg	1	2	1	non-food_animate_slug	0	H	5	0	148	0		0	0	117.722623899928	117.822610199917
16208.75	0.0999635000480339	146	satiated	stimuli/foods\green_olives.jpg	1	2	1	green_olives	1	N	10	0	62	0		0	0	117.872642099974	117.972605600022
16246.25	0.0999941000482067	147	satiated	stimuli/foods\mango.jpg	1	2	1	mango	1	M	9	0	80	0		0	0	118.022622399963	118.122616500012
16283.75	0.0999943000497296	148	satiated	stimuli/non_foods\non-food_inanimate_clover.jpg	1	2	1	non-food_inanimate_clover	0	T	14	0	174	0		0	0	118.172621199978	118.272615500027
16321.25	0.0999727000016719	149	satiated	stimuli/non_foods\non-food_inanimate_shell.jpg	1	2	1	non-food_inanimate_shell	0	L	8	0	206	0		0	0	118.322619199986	118.422591899987
16358.75	0.0999984000809491	150	satiated	stimuli/non_foods\non-food_animate_horse.jpg	1	2	1	non-food_animate_horse	0	J	6	0	119	0		0	0	118.472609199933	118.572607600014
16396.25	0.0999549999833107	151	satiated	stimuli/foods\wafer.jpg	1	2	1	wafer	1	F	3	0	277	0		0	0	118.622643599985	118.722598599968
16433.75	0.0999829999636859	152	satiated	stimuli/foods\apricot.jpg	1	2	1	apricot	1	G	4	0	2	0		0	0	118.772615600028	118.872598599992
16471.25	0.0999776000389829	153	satiated	stimuli/non_foods\non-food_animate_lion.jpg	1	2	1	non-food_animate_lion	0	M	9	0	125	0		0	0	118.922614499927	119.022592099966
16508.75	0.0999864999903366	154	satiated	stimuli/non_foods\non-food_animate_chicken.jpg	1	2	1	non-food_animate_chicken	0	J	6	0	101	0		0	0	119.072607500013	119.172594000003
16546.25	0.0999813000671566	155	satiated	stimuli/non_foods\non-food_animate_polar_bear.jpg	1	2	1	non-food_animate_polar_bear	0	S	13	0	137	0		0	0	119.222607999924	119.322589299991
16583.75	0.0999679000815377	156	satiated	stimuli/non_foods\non-food_inanimate_moss.jpg	1	2	1	non-food_inanimate_moss	0	V	15	0	194	0		0	0	119.372605199926	119.472573100007
16621.25	0.0999852999811992	157	satiated	stimuli/foods\pear.jpg	1	2	1	pear	1	C	1	0	239	0		0	0	119.522604699945	119.622589999926
16658.75	0.0999636000487953	158	satiated	stimuli/foods\frankfurter_and_provolone_salad.jpg	1	2	1	frankfurter_and_provolone_salad	1	B	0	0	49	0		0	0	119.672619599965	119.772583200014
16696.25	0.099983400083147	159	satiated	stimuli/non_foods\non-food_animate_camel.jpg	1	2	1	non-food_animate_camel	0	S	13	0	97	0		0	0	119.822598399944	119.922581800027
16733.75	0.0999837999697775	160	satiated	stimuli/non_foods\non-food_inanimate_folding_chair.jpg	1	2	1	non-food_inanimate_folding_chair	0	T	14	0	182	0		0	0	119.972600299981	120.072584099951
16771.25	0.0999833999667317	161	satiated	stimuli/foods\lime.jpg	1	2	1	lime	1	K	7	0	76	0		0	0	120.122596499976	120.222579899943
16808.75	0.0999951999401674	162	satiated	stimuli/non_foods\non-food_animate_sea_turtle.jpg	1	2	1	non-food_animate_sea_turtle	0	X	17	0	144	0		0	0	120.272595399991	120.372590599931
16846.25	0.0999615000328049	163	satiated	stimuli/foods\chilli.jpg	1	2	1	chilli	1	M	9	0	25	0		0	0	120.42261489993	120.522576399962
16883.75	0.0999868999933824	164	satiated	stimuli/foods\chocolate_pralines.jpg	1	2	1	chocolate_pralines	1	V	15	0	28	0		0	0	120.572589699994	120.672576599987
16921.25	0.0999838999705389	165	satiated	stimuli/foods\radish.jpg	1	2	1	radish	1	B	0	0	251	0		0	0	120.722588100005	120.822571999975
16958.75	0.0999811000656337	166	satiated	stimuli/non_foods\non-food_animate_eagle.jpg	1	2	1	non-food_animate_eagle	0	H	5	0	110	0		0	0	120.872588699916	120.972569799982
16996.25	0.0999853999819607	167	satiated	stimuli/non_foods\non-food_animate_runner.jpg	1	2	1	non-food_animate_runner	0	M	9	0	142	0		0	0	121.022584300023	121.122569700005
17033.75	0.0999812000663951	168	satiated	stimuli/foods\hamburger.jpg	1	2	1	hamburger	1	S	13	0	64	0		0	0	121.172586099943	121.27256730001
17071.25	0.0999844000907615	169	satiated	stimuli/non_foods\non-food_animate_dragonfly.jpg	1	2	1	non-food_animate_dragonfly	0	B	0	0	108	0		0	0	121.322582099936	121.422566500027
17108.75	0.099954100092873	170	satiated	stimuli/non_foods\non-food_animate_ladybug.jpg	1	2	1	non-food_animate_ladybug	0	L	8	0	124	0		0	0	121.472606599913	121.572560700006
17146.25	0.0999910000246018	171	satiated	stimuli/foods\linguine_with_clams.jpg	1	2	1	linguine_with_clams	1	T	14	0	77	0		0	0	121.622564099962	121.722555099986
17183.75	0.0999719999963418	172	satiated	stimuli/non_foods\non-food_animate_monkey.jpg	1	2	1	non-food_animate_monkey	0	S	13	0	130	0		0	0	121.772577999975	121.872549999971
17221.25	0.099981400067918	173	satiated	stimuli/foods\banana.jpg	1	2	1	banana	1	K	7	0	9	0		0	0	121.922569299932	122.0225507
17258.75	0.0999779000412673	174	satiated	stimuli/non_foods\non-food_inanimate_leaf.jpg	1	2	1	non-food_inanimate_leaf	0	L	8	0	192	0		0	0	122.072572899982	122.172550800024
17296.25	0.0999520999612287	175	satiated	stimuli/foods\grapefruits.jpg	1	2	1	grapefruits	1	H	5	0	59	0		0	0	122.222582299961	122.322534399922
17333.75	0.0999864999903366	176	satiated	stimuli/non_foods\non-food_animate_tortoise.jpg	1	2	1	non-food_animate_tortoise	0	F	3	0	153	0		0	0	122.372561799944	122.472548299935
17371.25	0.100012199953198	177	satiated	stimuli/non_foods\non-food_animate_seahorse.jpg	1	2	1	non-food_animate_seahorse	0	V	15	0	145	0		0	0	122.522539100028	122.622551299981
17408.75	0.0999932000413537	178	satiated	stimuli/foods\beetroots.jpg	1	2	1	beetroots	1	S	13	0	10	0		0	0	122.672567299916	122.772560499958
17446.25	0.0999880000017583	179	satiated	stimuli/non_foods\non-food_animate_Causasian_man.jpg	1	2	1	non-food_animate_Causasian_man	0	N	10	0	89	0		0	0	122.822560900007	122.922548900009
17483.75	0.0999858001014218	180	satiated	stimuli/foods\celery.jpg	1	2	1	celery	1	L	8	0	21	0		0	0	122.972560999915	123.072546800016
17521.25	0.0999821000732481	181	satiated	stimuli/foods\rice.jpg	1	2	1	rice	1	F	3	0	257	0		0	0	123.122563199955	123.222545300028
17558.75	0.099969300092198	182	satiated	stimuli/non_foods\non-food_inanimate_alarm_clock.jpg	1	2	1	non-food_inanimate_alarm_clock	0	T	14	0	158	0		0	0	123.272570599918	123.37253990001
17596.25	0.0999853999819607	183	satiated	stimuli/non_foods\non-food_animate_llama.jpg	1	2	1	non-food_animate_llama	0	K	7	0	127	0		0	0	123.422556999954	123.522542399936
17633.75	0.0999844999751076	184	satiated	stimuli/non_foods\non-food_inanimate_gloves.jpg	1	2	1	non-food_inanimate_gloves	0	S	13	0	183	0		0	0	123.572556499974	123.672540999949
17671.25	0.0999924000352621	185	satiated	stimuli/non_foods\non-food_animate_kangaroo.jpg	1	2	1	non-food_animate_kangaroo	0	H	5	0	122	0		0	0	123.722546299919	123.822538699955
17708.75	0.0999831999652088	186	satiated	stimuli/non_foods\non-food_inanimate_tree.jpg	1	2	1	non-food_inanimate_tree	0	M	9	0	223	0		0	0	123.872554500005	123.97253769997
17746.25	0.0999795999377966	187	satiated	stimuli/non_foods\non-food_inanimate_stoplight.jpg	1	2	1	non-food_inanimate_stoplight	0	T	14	0	214	0		0	0	124.022549299989	124.122528899927
17783.75	0.0999809999484569	188	satiated	stimuli/foods\cream_donuts.jpg	1	2	1	cream_donuts	1	O	22	1	39	0		0	0	124.172543299966	124.272524299915
17821.25	0.0999844999751076	189	satiated	stimuli/foods\ginger_root.jpg	1	2	1	ginger_root	1	T	14	0	57	0		0	0	124.322538599954	124.422523099929
17858.75	0.0999842999735847	190	satiated	stimuli/foods\chocolate_chip_cookies.jpg	1	2	1	chocolate_chip_cookies	1	B	0	0	27	0		0	0	124.47253769997	124.572521999944
17896.25	0.0999857999850065	191	satiated	stimuli/non_foods\non-food_inanimate_bicycle.jpg	1	2	1	non-food_inanimate_bicycle	0	T	14	0	161	0		0	0	124.622533999966	124.722519799951
17933.75	0.0999749000184238	192	satiated	stimuli/non_foods\non-food_animate_young_girl.jpg	1	2	1	non-food_animate_young_girl	0	X	17	0	157	1	a	0.593298300052993	1	124.772536200006	124.872511100024
17971.25	0.0999891000101343	193	satiated	stimuli/foods\risotto_with_peas_and_asparagus_tips.jpg	1	2	1	risotto_with_peas_and_asparagus_tips	1	H	5	0	259	0		0	0	124.922530699987	125.022519799997
18008.75	0.0999687999719754	194	satiated	stimuli/non_foods\non-food_inanimate_button.jpg	1	2	1	non-food_inanimate_button	0	P	11	0	168	0		0	0	125.072555899969	125.172524699941
18046.25	0.100003700004891	195	satiated	stimuli/foods\peas.jpg	1	2	1	peas	1	B	0	0	240	0		0	0	125.222513400018	125.322517100023
18083.75	0.0999862999888137	196	satiated	stimuli/foods\capsicum.jpg	1	2	1	capsicum	1	S	13	0	18	0		0	0	125.372532199952	125.472518499941
18121.25	0.0999907000223175	197	satiated	stimuli/foods\almonds.jpg	1	2	1	almonds	1	W	16	0	0	0		0	0	125.522531699971	125.622522399994
18158.75	0.0999873999971896	198	satiated	stimuli/foods\savory_pie.jpg	1	2	1	savory_pie	1	F	3	0	265	0		0	0	125.672540399944	125.772527799942
18196.25	0.0999888000078499	199	satiated	stimuli/non_foods\non-food_animate_cat.jpg	1	2	1	non-food_animate_cat	0	C	1	0	98	0		0	0	125.822523199953	125.922511999961
18233.75	0.0999749999027699	200	satiated	stimuli/foods\roasted_chicken.jpg	1	2	1	roasted_chicken	1	M	9	0	261	0		0	0	125.972527800011	126.072502799914
18271.25	0.0999829999636859	201	satiated	stimuli/non_foods\non-food_animate_sea_lion.jpg	1	2	1	non-food_animate_sea_lion	0	Z	18	0	143	0		0	0	126.122518299962	126.222501299926
18308.75	0.0999918000306934	202	satiated	stimuli/non_foods\non-food_animate_millipede.jpg	1	2	1	non-food_animate_millipede	0	J	6	0	129	0		0	0	126.272517299978	126.372509100009
18346.25	0.100009300047532	203	satiated	stimuli/foods\potatoes.jpg	1	2	1	potatoes	1	H	5	0	248	0		0	0	126.42249789997	126.522507200018
18383.75	0.0999858999857679	204	satiated	stimuli/foods\baked_lamb_with_potatoes.jpg	1	2	1	baked_lamb_with_potatoes	1	K	7	0	8	0		0	0	126.572517300025	126.67250320001
18421.25	0.100003900006413	205	satiated	stimuli/non_foods\non-food_inanimate_cap.jpg	1	2	1	non-food_inanimate_cap	0	X	17	0	171	0		0	0	126.722516999929	126.822520899936
18458.75	0.0999719999963418	206	satiated	stimuli/non_foods\non-food_inanimate_highlighter.jpg	1	2	1	non-food_inanimate_highlighter	0	P	11	0	189	0		0	0	126.872525400016	126.972497400013
18496.25	0.0999848999781534	207	satiated	stimuli/foods\mandarin.jpg	1	2	1	mandarin	1	F	3	0	79	0		0	0	127.022513199947	127.122498099925
18533.75	0.0999824999598786	208	satiated	stimuli/foods\pumpkin.jpg	1	2	1	pumpkin	1	V	15	0	250	0		0	0	127.172511299956	127.272493799916
18571.25	0.0999911000253633	209	satiated	stimuli/foods\raw_sausage.jpg	1	2	1	raw_sausage	1	Z	18	0	254	0		0	0	127.322507599951	127.422498699976
18608.75	0.099960400024429	210	satiated	stimuli/non_foods\non-food_animate_frog.jpg	1	2	1	non-food_animate_frog	0	J	6	0	113	0		0	0	127.472534899949	127.572495299974
18646.25	0.0999698999803513	211	satiated	stimuli/foods\pickles.jpg	1	2	1	pickles	1	W	16	0	242	0		0	0	127.622519899975	127.722489799955
18683.75	0.0999873999971896	212	satiated	stimuli/non_foods\non-food_inanimate_guitar.jpg	1	2	1	non-food_inanimate_guitar	0	X	17	0	185	0		0	0	127.772501599975	127.872488999972
18721.25	0.0999812999507412	213	satiated	stimuli/foods\grilled_chicken_breast.jpg	1	2	1	grilled_chicken_breast	1	B	0	0	63	0		0	0	127.922505000024	128.022486299975
18758.75	0.0999839999713004	214	satiated	stimuli/non_foods\non-food_inanimate_skirt.jpg	1	2	1	non-food_inanimate_skirt	0	R	12	0	209	0		0	0	128.072498699999	128.172482699971
18796.25	0.0999873999971896	215	satiated	stimuli/non_foods\non-food_inanimate_orchid.jpg	1	2	1	non-food_inanimate_orchid	0	X	17	0	198	0		0	0	128.22249700001	128.322484400007
18833.75	0.0999825000762939	216	satiated	stimuli/foods\fruit_salad.jpg	1	2	1	fruit_salad	1	N	10	0	55	0		0	0	128.372496899916	128.472479399992
18871.25	0.10002060001716	217	satiated	stimuli/non_foods\non-food_inanimate_bucket.jpg	1	2	1	non-food_inanimate_bucket	0	T	14	0	165	0		0	0	128.522494699922	128.62251529994
18908.75	0.0999848999781534	218	satiated	stimuli/non_foods\non-food_animate_squirrel.jpg	1	2	1	non-food_animate_squirrel	0	V	15	0	150	0		0	0	128.672494099941	128.772478999919
18946.25	0.0999850000953302	219	satiated	stimuli/non_foods\non-food_animate_duck.jpg	1	2	1	non-food_animate_duck	0	J	6	0	109	0		0	0	128.822489499929	128.922474500025
18983.75	0.0999828999629244	220	satiated	stimuli/foods\toasted_bread_with_tomatoes.jpg	1	2	1	toasted_bread_with_tomatoes	1	H	5	0	275	0		0	0	128.972491999972	129.072474899935
19021.25	0.0999846999766305	221	satiated	stimuli/foods\spinach.jpg	1	2	1	spinach	1	S	13	0	268	0		0	0	129.122487099958	129.222471799934
19058.75	0.0999943000497296	222	satiated	stimuli/non_foods\non-food_inanimate_wrench.jpg	1	2	1	non-food_inanimate_wrench	0	X	17	0	227	0		0	0	129.272529899958	129.372524200007
19096.25	0.0999866999918595	223	satiated	stimuli/foods\clams.jpg	1	2	1	clams	1	F	3	0	32	0		0	0	129.422482899972	129.522469599964
19133.75	0.0999840999720618	224	satiated	stimuli/foods\oven-roasted_tomatoes.jpg	1	2	1	oven-roasted_tomatoes	1	R	12	0	232	0		0	0	129.572482599993	129.672466699965
19171.25	0.0999870999949053	225	satiated	stimuli/non_foods\non-food_animate_bee.jpg	1	2	1	non-food_animate_bee	0	C	1	0	95	0		0	0	129.722479999997	129.822467099992
19208.75	0.0999710999894887	226	satiated	stimuli/non_foods\non-food_inanimate_scissors.jpg	1	2	1	non-food_inanimate_scissors	0	M	9	0	205	0		0	0	129.872477700002	129.972448799992
19246.25	0.0999840999720618	227	satiated	stimuli/foods\spaghetti_with_meat_sauce.jpg	1	2	1	spaghetti_with_meat_sauce	1	L	8	0	267	0		0	0	130.022475000005	130.122459099977
19283.75	0.0999646000564098	228	satiated	stimuli/foods\brussel_sprouts.jpg	1	2	1	brussel_sprouts	1	S	13	0	15	0		0	0	130.172479599947	130.272444200004
19321.25	0.100007900036871	229	satiated	stimuli/non_foods\non-food_animate_ram.jpg	1	2	1	non-food_animate_ram	0	R	12	0	140	0		0	0	130.322445699945	130.422453599982
19358.75	0.0999875001143664	230	satiated	stimuli/foods\mussels.jpg	1	2	1	mussels	1	C	1	0	86	0		0	0	130.472469199914	130.572456700029
19396.25	0.0999908000230789	231	satiated	stimuli/foods\kiwi.jpg	1	2	1	kiwi	1	B	0	0	69	0		0	0	130.622466099914	130.722456899937
19433.75	0.0999835000839084	232	satiated	stimuli/foods\pasta_carbonara.jpg	1	2	1	pasta_carbonara	1	F	3	0	236	0		0	0	130.77246509993	130.872448600014
19471.25	0.0999929000390694	233	satiated	stimuli/foods\fruit_flan.jpg	1	2	1	fruit_flan	1	T	14	0	53	0		0	0	130.922467199969	131.022460100008
19508.75	0.0999645999399945	234	satiated	stimuli/foods\taco.jpg	1	2	1	taco	1	S	13	0	274	0		0	0	131.072483800002	131.172448399942
19546.25	0.0999872999964282	235	satiated	stimuli/non_foods\non-food_animate_porcupine.jpg	1	2	1	non-food_animate_porcupine	0	P	11	0	138	0		0	0	131.222460999968	131.322448299965
19583.75	0.0999702999833971	236	satiated	stimuli/non_foods\non-food_inanimate_hammer.jpg	1	2	1	non-food_inanimate_hammer	0	L	8	0	186	0		0	0	131.372460399987	131.472430699971
19621.25	0.099982799962163	237	satiated	stimuli/non_foods\non-food_inanimate_speakers.jpg	1	2	1	non-food_inanimate_speakers	0	F	3	0	212	0		0	0	131.522461300017	131.622444099979
19658.75	0.0999870999949053	238	satiated	stimuli/foods\pork_and_rice.jpg	1	2	1	pork_and_rice	1	L	8	0	245	0		0	0	131.672457200009	131.772444300004
19696.25	0.0999833999667317	239	satiated	stimuli/non_foods\non-food_inanimate_canoe.jpg	1	2	1	non-food_inanimate_canoe	0	N	10	0	170	0		0	0	131.822454300011	131.922437699977
19733.75	0.0999875999987125	240	satiated	stimuli/non_foods\non-food_animate_raccoon.jpg	1	2	1	non-food_animate_raccoon	0	S	13	0	139	0		0	0	131.972450400004	132.072438000003
19771.25	0.0999642999377102	241	satiated	stimuli/foods\avocado.jpg	1	2	1	avocado	1	X	17	0	5	0		0	0	132.122462200001	132.222426499939
19808.75	0.0999870999949053	242	satiated	stimuli/non_foods\non-food_inanimate_construction_helment.jpg	1	2	1	non-food_inanimate_construction_helment	0	K	7	0	175	0		0	0	132.272446500021	132.372433600016
19846.25	0.0999879000009969	243	satiated	stimuli/foods\fried_zucchini.jpg	1	2	1	fried_zucchini	1	S	13	0	51	0		0	0	132.422444799915	132.522432699916
19883.75	0.0999828999629244	244	satiated	stimuli/non_foods\non-food_animate_baby_sitting.jpg	1	2	1	non-food_animate_baby_sitting	0	V	15	0	93	0		0	0	132.572448099963	132.672430999926
19921.25	0.100004800013267	245	satiated	stimuli/non_foods\non-food_inanimate_toy_airplane.jpg	1	2	1	non-food_inanimate_toy_airplane	0	J	6	0	222	0		0	0	132.722443899955	132.822448699968
19958.75	0.0999735000077635	246	satiated	stimuli/foods\honey.jpg	1	2	1	honey	1	H	5	0	66	0		0	0	132.872452699929	132.972426199936
19996.25	0.0999866999918595	247	satiated	stimuli/foods\pancakes.jpg	1	2	1	pancakes	1	G	4	0	234	0		0	0	133.022438199958	133.12242489995
20033.75	0.0999748000176623	248	satiated	stimuli/non_foods\non-food_inanimate_table.jpg	1	2	1	non-food_inanimate_table	0	D	2	0	217	0		0	0	133.172438499983	133.272413300001
20071.25	0.0999849999789149	249	satiated	stimuli/foods\meatballs.jpg	1	2	1	meatballs	1	K	7	0	81	0		0	0	133.322438000003	133.422422999982
20108.75	0.0999694999773055	250	satiated	stimuli/non_foods\non-food_inanimate_socks.jpg	1	2	1	non-food_inanimate_socks	0	W	16	0	211	0		0	0	133.472432999988	133.572402499965
20146.25	0.100011200061999	251	satiated	stimuli/non_foods\non-food_animate_alligator.jpg	1	2	1	non-food_animate_alligator	0	Z	18	0	90	0		0	0	133.622406799928	133.72241799999
20183.75	0.0999832999659702	252	satiated	stimuli/foods\nectarine.jpg	1	2	1	nectarine	1	K	7	0	87	0		0	0	133.772430400015	133.872413699981
20221.25	0.0999691999750212	253	satiated	stimuli/foods\donut.jpg	1	2	1	donut	1	G	4	0	44	0		0	0	133.922443200019	134.022412399994
20258.75	0.0999871999956667	254	satiated	stimuli/foods\cherry.jpg	1	2	1	cherry	1	R	12	0	23	0		0	0	134.072426799918	134.172413999913
20296.25	0.0999830000801012	255	satiated	stimuli/foods\salmon.jpg	1	2	1	salmon	1	T	14	0	264	0		0	0	134.222423699917	134.322406699997
20333.75	0.0999901000177488	256	satiated	stimuli/foods\peach.jpg	1	2	1	peach	1	V	15	0	238	0		0	0	134.372421099921	134.472411199939
20371.25	0.100005100015551	257	satiated	stimuli/foods\lasagna.jpg	1	2	1	lasagna	1	M	9	0	71	0		0	0	134.522423999966	134.622429099982
20408.75	0.0999572000000626	258	satiated	stimuli/non_foods\non-food_inanimate_buds.jpg	1	2	1	non-food_inanimate_buds	0	Z	18	0	166	0		0	0	134.67244679993	134.77240399993
20446.25	0.0999879000009969	259	satiated	stimuli/non_foods\non-food_inanimate_desk.jpg	1	2	1	non-food_inanimate_desk	0	G	4	0	178	0		0	0	134.822415099945	134.922402999946
20483.75	0.0999842999735847	260	satiated	stimuli/non_foods\non-food_animate_green_bug.jpg	1	2	1	non-food_animate_green_bug	0	W	16	0	118	0		0	0	134.972418599995	135.072402899968
20521.25	0.0999862999888137	261	satiated	stimuli/non_foods\non-food_inanimate_drum_set.jpg	1	2	1	non-food_inanimate_drum_set	0	P	11	0	179	0		0	0	135.122412399971	135.22239869996
20558.75	0.0999842999735847	262	satiated	stimuli/foods\raisins.jpg	1	2	1	raisins	1	K	7	0	252	0		0	0	135.272412699996	135.37239699997
20596.25	0.0999791999347508	263	satiated	stimuli/non_foods\non-food_inanimate_rack.jpg	1	2	1	non-food_inanimate_rack	0	M	9	0	202	0		0	0	135.422411800013	135.522390999948
20633.75	0.0999850999796763	264	satiated	stimuli/non_foods\non-food_inanimate_rope.jpg	1	2	1	non-food_inanimate_rope	0	S	13	0	204	0		0	0	135.572401699959	135.672386799939
20671.25	0.0999628999270499	265	satiated	stimuli/foods\potato_and_green_bean_salad.jpg	1	2	1	potato_and_green_bean_salad	1	L	8	0	246	0		0	0	135.722432799987	135.822395699914
20708.75	0.100012700073421	266	satiated	stimuli/foods\cracker.jpg	1	2	1	cracker	1	T	14	0	38	0		0	0	135.872379499953	135.972392200027
20746.25	0.0999579000053927	267	satiated	stimuli/foods\minestrone_soup.jpg	1	2	1	minestrone_soup	1	H	5	0	82	0		0	0	136.022405899945	136.12236379995
20783.75	0.0999838000861928	268	satiated	stimuli/foods\mushroom.jpg	1	2	1	mushroom	1	A	19	1	85	0		0	0	136.172400999931	136.272384800017
20821.25	0.0999699999811128	269	satiated	stimuli/foods\green_beans.jpg	1	2	1	green_beans	1	B	0	0	61	0		0	0	136.322405799991	136.422375799972
20858.75	0.09997049998492	270	satiated	stimuli/non_foods\non-food_animate_snail.jpg	1	2	1	non-food_animate_snail	0	M	9	0	149	1	a	0.39185840007849	1	136.472414999967	136.572385499952
20896.25	0.100004700012505	271	satiated	stimuli/non_foods\non-food_inanimate_nailpolish.jpg	1	2	1	non-food_inanimate_nailpolish	0	R	12	0	195	0		0	0	136.622372200014	136.722376900027
20933.75	0.0999868001090363	272	satiated	stimuli/non_foods\non-food_animate_clown.jpg	1	2	1	non-food_animate_clown	0	K	7	0	102	0		0	0	136.772387199919	136.872374000028
20971.25	0.100003700004891	273	satiated	stimuli/foods\rockmelon.jpg	1	2	1	rockmelon	1	N	10	0	262	0		0	0	136.922372499947	137.022376199951
21008.75	0.0999814999522641	274	satiated	stimuli/non_foods\non-food_animate_yellow_bug.jpg	1	2	1	non-food_animate_yellow_bug	0	P	11	0	155	0		0	0	137.072391099995	137.172372599947
21046.25	0.099984799977392	275	satiated	stimuli/foods\swordfish.jpg	1	2	1	swordfish	1	W	16	0	273	0		0	0	137.222390300012	137.32237509999
21083.75	0.099986599991098	276	satiated	stimuli/foods\steak.jpg	1	2	1	steak	1	V	15	0	270	0		0	0	137.372388100019	137.47237470001
21121.25	0.0999737000092864	277	satiated	stimuli/non_foods\non-food_animate_cheetah.jpg	1	2	1	non-food_animate_cheetah	0	S	13	0	100	0		0	0	137.522399000009	137.622372700018
21158.75	0.0999831000808626	278	satiated	stimuli/non_foods\non-food_animate_baby_crawling.jpg	1	2	1	non-food_animate_baby_crawling	0	D	2	0	92	0		0	0	137.672385799931	137.772368900012
21196.25	0.0999843999743462	279	satiated	stimuli/non_foods\non-food_animate_killer_whale.jpg	1	2	1	non-food_animate_killer_whale	0	R	12	0	123	0		0	0	137.822379700025	137.922364099999
23387.75	0.0999922000337392	280	satiated	stimuli/non_foods\non-food_animate_student_female.jpg	1	3	1	non-food_animate_student_female	0	D	2	0	151	0		0	0	146.588938499917	146.688930699951
23425.25	0.0999732000054792	281	satiated	stimuli/foods\ginger_root.jpg	1	3	1	ginger_root	1	P	11	0	57	0		0	0	146.738943899982	146.838917099987
23462.75	0.0999816000694409	282	satiated	stimuli/non_foods\non-food_animate_iguana.jpg	1	3	1	non-food_animate_iguana	0	G	4	0	121	0		0	0	146.888936199946	146.988917800016
23500.25	0.0999835000839084	283	satiated	stimuli/foods\lime.jpg	1	3	1	lime	1	X	17	0	76	0		0	0	147.038929499919	147.138913000003
23537.75	0.0999853999819607	284	satiated	stimuli/non_foods\non-food_inanimate_briefcase.jpg	1	3	1	non-food_inanimate_briefcase	0	P	11	0	163	0		0	0	147.188928699936	147.288914099918
23575.25	0.100001399987377	285	satiated	stimuli/foods\peas.jpg	1	3	1	peas	1	B	0	0	240	0		0	0	147.33892010001	147.438921499997
23612.75	0.0999697999795899	286	satiated	stimuli/foods\savory_pie.jpg	1	3	1	savory_pie	1	C	1	0	265	0		0	0	147.488933300017	147.588903099997
23650.25	0.100005300017074	287	satiated	stimuli/foods\mussels.jpg	1	3	1	mussels	1	K	7	0	86	0		0	0	147.638910699985	147.738916000002
23687.75	0.0999839000869542	288	satiated	stimuli/foods\corncob.jpg	1	3	1	corncob	1	D	2	0	37	0		0	0	147.788931299932	147.888915200019
23725.25	0.0999765999149531	289	satiated	stimuli/foods\pea_pod.jpg	1	3	1	pea_pod	1	N	10	0	237	0		0	0	147.938924900023	148.038901499938
23762.75	0.0999747000169009	290	satiated	stimuli/foods\cupcake.jpg	1	3	1	cupcake	1	L	8	0	42	0		0	0	148.088919400005	148.188894100022
23800.25	0.100018600001931	291	satiated	stimuli/non_foods\non-food_inanimate_chair.jpg	1	3	1	non-food_inanimate_chair	0	F	3	0	172	0		0	0	148.238900600001	148.338919200003
23837.75	0.0999782999278978	292	satiated	stimuli/non_foods\non-food_inanimate_lighter.jpg	1	3	1	non-food_inanimate_lighter	0	H	5	0	193	0		0	0	148.388927499996	148.488905799924
23875.25	0.0999651999445632	293	satiated	stimuli/foods\lollies.jpg	1	3	1	lollies	1	L	8	0	78	0		0	0	148.538941000006	148.638906199951
23912.75	0.0999818999553099	294	satiated	stimuli/non_foods\non-food_inanimate_stapler.jpg	1	3	1	non-food_inanimate_stapler	0	H	5	0	213	0		0	0	148.688918799977	148.788900699932
23950.25	0.0999875999987125	295	satiated	stimuli/non_foods\non-food_animate_young_girl.jpg	1	3	1	non-food_animate_young_girl	0	V	15	0	157	0		0	0	148.838913599961	148.938901199959
23987.75	0.0999851999804378	296	satiated	stimuli/foods\clams.jpg	1	3	1	clams	1	P	11	0	32	0		0	0	148.988914799993	149.088899999973
24025.25	0.0999850999796763	297	satiated	stimuli/non_foods\non-food_inanimate_bucket.jpg	1	3	1	non-food_inanimate_bucket	0	G	4	0	165	0		0	0	149.138911699993	149.238896799972
24062.75	0.0999867999926209	298	satiated	stimuli/non_foods\non-food_animate_grasshopper.jpg	1	3	1	non-food_animate_grasshopper	0	K	7	0	117	0		0	0	149.288909499999	149.388896299992
24100.25	0.0999847000930458	299	satiated	stimuli/foods\green_beans.jpg	1	3	1	green_beans	1	S	13	0	61	0		0	0	149.438927199924	149.538911900017
24137.75	0.0999762000283226	300	satiated	stimuli/non_foods\non-food_inanimate_tent.jpg	1	3	1	non-food_inanimate_tent	0	Z	18	0	219	0		0	0	149.588908099919	149.688884299947
24175.25	0.0999953999416903	301	satiated	stimuli/foods\dates.jpg	1	3	1	dates	1	H	5	0	43	0		0	0	149.738898799988	149.838894199929
24212.75	0.099960400024429	302	satiated	stimuli/foods\chocolate_pudding.jpg	1	3	1	chocolate_pudding	1	D	2	0	29	0		0	0	149.888902899926	149.98886329995
24250.25	0.100003300001845	303	satiated	stimuli/non_foods\non-food_inanimate_bamboo.jpg	1	3	1	non-food_inanimate_bamboo	0	Z	18	0	159	0		0	0	150.038875499973	150.138878799975
24287.75	0.0999668999575078	304	satiated	stimuli/foods\cooked_ham.jpg	1	3	1	cooked_ham	1	M	9	0	35	0		0	0	150.188916299958	150.288883199915
24325.25	0.0999791000504047	305	satiated	stimuli/foods\cannoli.jpg	1	3	1	cannoli	1	J	6	0	17	0		0	0	150.338897399954	150.438876500004
24362.75	0.099986300105229	306	satiated	stimuli/foods\omelette.jpg	1	3	1	omelette	1	W	16	0	228	0		0	0	150.488889299915	150.58887560002
24400.25	0.100007199915126	307	satiated	stimuli/non_foods\non-food_animate_deer.jpg	1	3	1	non-food_animate_deer	0	J	6	0	105	0		0	0	150.638884500018	150.738891699933
24437.75	0.099980500061065	308	satiated	stimuli/foods\chocolate_pralines.jpg	1	3	1	chocolate_pralines	1	X	17	0	28	0		0	0	150.788887399947	150.888867900008
24475.25	0.100000799982809	309	satiated	stimuli/non_foods\non-food_inanimate_fern.jpg	1	3	1	non-food_inanimate_fern	0	D	2	0	180	0		0	0	150.938876500004	151.038877299987
24512.75	0.0999818999553099	310	satiated	stimuli/non_foods\non-food_animate_polar_bear.jpg	1	3	1	non-food_animate_polar_bear	0	V	15	0	137	0		0	0	151.088890100014	151.18887199997
24550.25	0.0999735998921096	311	satiated	stimuli/foods\brussel_sprouts.jpg	1	3	1	brussel_sprouts	1	F	3	0	15	0		0	0	151.238903800026	151.338877399918
24587.75	0.0999690000899136	312	satiated	stimuli/non_foods\non-food_animate_bee.jpg	1	3	1	non-food_animate_bee	0	Z	18	0	95	0		0	0	151.388886599918	151.488855600008
24625.25	0.100003900006413	313	satiated	stimuli/foods\baked_cod_with_carrots_and_green_beans.jpg	1	3	1	baked_cod_with_carrots_and_green_beans	1	F	3	0	7	0		0	0	151.538862899994	151.6388668
24662.75	0.0999831999652088	314	satiated	stimuli/foods\cereal.jpg	1	3	1	cereal	1	M	9	0	22	0		0	0	151.688885899959	151.788869099924
24700.25	0.100004000007175	315	satiated	stimuli/foods\pear.jpg	1	3	1	pear	1	T	14	0	239	0		0	0	151.83888559998	151.938889599987
24737.75	0.0999817999545485	316	satiated	stimuli/non_foods\non-food_animate_baby_crawling.jpg	1	3	1	non-food_animate_baby_crawling	0	K	7	0	92	0		0	0	151.988913499983	152.088895299938
24775.25	0.0999854999827221	317	satiated	stimuli/non_foods\non-food_inanimate_waterlily.jpg	1	3	1	non-food_inanimate_waterlily	0	G	4	0	226	0		0	0	152.138878699974	152.238864199957
24812.75	0.0999832999659702	318	satiated	stimuli/foods\oven-roasted_tomatoes.jpg	1	3	1	oven-roasted_tomatoes	1	W	16	0	232	0		0	0	152.288875399972	152.388858699938
24850.25	0.0999898000154644	319	satiated	stimuli/foods\radish.jpg	1	3	1	radish	1	V	15	0	251	0		0	0	152.438872299972	152.538862099987
24887.75	0.0999808999476954	320	satiated	stimuli/foods\kiwi.jpg	1	3	1	kiwi	1	Z	18	0	69	0		0	0	152.588874000008	152.688854899956
24925.25	0.0999891000101343	321	satiated	stimuli/foods\lentils.jpg	1	3	1	lentils	1	C	1	0	74	0		0	0	152.738870200003	152.838859300013
24962.75	0.100006000022404	322	satiated	stimuli/foods\museli_bars.jpg	1	3	1	museli_bars	1	W	16	0	84	0		0	0	152.88886279997	152.988868799992
25000.25	0.0999783000443131	323	satiated	stimuli/non_foods\non-food_inanimate_bowling_ball.jpg	1	3	1	non-food_inanimate_bowling_ball	0	T	14	0	162	0		0	0	153.03887119994	153.138849499985
25037.75	0.0999882000032812	324	satiated	stimuli/non_foods\non-food_animate_horse.jpg	1	3	1	non-food_animate_horse	0	G	4	0	119	0		0	0	153.188864999916	153.28885319992
25075.25	0.0999819000717252	325	satiated	stimuli/foods\mango.jpg	1	3	1	mango	1	W	16	0	80	0		0	0	153.338864799938	153.43884670001
25112.75	0.100006399909034	326	satiated	stimuli/foods\red_cabbage.jpg	1	3	1	red_cabbage	1	K	7	0	256	0		0	0	153.488841100014	153.588847499923
25150.25	0.100009400048293	327	satiated	stimuli/foods\salmon.jpg	1	3	1	salmon	1	W	16	0	264	0		0	0	153.638840099913	153.738849499961
25187.75	0.0999641999369487	328	satiated	stimuli/foods\pasta_carbonara.jpg	1	3	1	pasta_carbonara	1	H	5	0	236	0		0	0	153.788864000002	153.888828199939
25225.25	0.0999723999993876	329	satiated	stimuli/foods\garlic.jpg	1	3	1	garlic	1	U	23	1	56	0		0	0	153.938852899941	154.03882529994
25262.75	0.0999826999614015	330	satiated	stimuli/non_foods\non-food_animate_killer_whale.jpg	1	3	1	non-food_animate_killer_whale	0	B	0	0	123	0		0	0	154.088856699993	154.188839399954
25300.25	0.0999850999796763	331	satiated	stimuli/non_foods\non-food_animate_kangaroo.jpg	1	3	1	non-food_animate_kangaroo	0	J	6	0	122	0		0	0	154.238843100029	154.338828200009
25337.75	0.0999833000823855	332	satiated	stimuli/non_foods\non-food_animate_mouse.jpg	1	3	1	non-food_animate_mouse	0	P	11	0	131	0		0	0	154.388843299937	154.48882660002
25375.25	0.0999830999644473	333	satiated	stimuli/non_foods\non-food_animate_eagle.jpg	1	3	1	non-food_animate_eagle	0	V	15	0	110	0		0	0	154.538842999958	154.638826099923
25412.75	0.0999879000009969	334	satiated	stimuli/non_foods\non-food_animate_squirrel.jpg	1	3	1	non-food_animate_squirrel	0	W	16	0	150	0		0	0	154.68883889995	154.788826799951
25450.25	0.0999692999757826	335	satiated	stimuli/non_foods\non-food_inanimate_folding_chair.jpg	1	3	1	non-food_inanimate_folding_chair	0	M	9	0	182	0		0	0	154.838851599954	154.93882089993
25487.75	0.0999848999781534	336	satiated	stimuli/non_foods\non-food_inanimate_protractor.jpg	1	3	1	non-food_inanimate_protractor	0	V	15	0	201	0		0	0	154.988834499964	155.088819399942
25525.25	0.100010100053623	337	satiated	stimuli/non_foods\non-food_animate_sea_turtle.jpg	1	3	1	non-food_animate_sea_turtle	0	P	11	0	144	0		0	0	155.138815999962	155.238826100016
25562.75	0.0999931000405923	338	satiated	stimuli/foods\artichoke.jpg	1	3	1	artichoke	1	T	14	0	3	0		0	0	155.288840299938	155.388833399978
25600.25	0.0999947000527754	339	satiated	stimuli/foods\meatballs.jpg	1	3	1	meatballs	1	S	13	0	81	0		0	0	155.438823099947	155.538817799999
25637.75	0.0999436000129208	340	satiated	stimuli/non_foods\non-food_inanimate_cap.jpg	1	3	1	non-food_inanimate_cap	0	D	2	0	171	0		0	0	155.588869299972	155.688812899985
25675.25	0.0999845999758691	341	satiated	stimuli/foods\oregano.jpg	1	3	1	oregano	1	J	6	0	231	0		0	0	155.738826900022	155.838811499998
25712.75	0.0999788999324664	342	satiated	stimuli/non_foods\non-food_inanimate_towel.jpg	1	3	1	non-food_inanimate_towel	0	R	12	0	221	0		0	0	155.888824100024	155.988802999957
25750.25	0.100010900059715	343	satiated	stimuli/foods\avocado.jpg	1	3	1	avocado	1	B	0	0	5	0		0	0	156.038809799938	156.138820699998
25787.75	0.0999753999058157	344	satiated	stimuli/foods\tomato.jpg	1	3	1	tomato	1	C	1	0	276	0		0	0	156.188831500011	156.288806899916
25825.25	0.0999837999697775	345	satiated	stimuli/foods\cracker.jpg	1	3	1	cracker	1	D	2	0	38	0		0	0	156.338821299956	156.438805099926
25862.75	0.0999811000656337	346	satiated	stimuli/foods\pork_and_rice.jpg	1	3	1	pork_and_rice	1	P	11	0	245	0		0	0	156.488829399925	156.58881049999
25900.25	0.0999761000275612	347	satiated	stimuli/non_foods\non-food_animate_porcupine.jpg	1	3	1	non-food_animate_porcupine	0	F	3	0	138	0		0	0	156.638832499972	156.738808599999
25937.75	0.0999825000762939	348	satiated	stimuli/non_foods\non-food_animate_owl.jpg	1	3	1	non-food_animate_owl	0	X	17	0	132	0		0	0	156.788825899945	156.888808400021
25975.25	0.0999584000092	349	satiated	stimuli/foods\broccoli.jpg	1	3	1	broccoli	1	V	15	0	13	0		0	0	156.938821599935	157.038779999944
26012.75	0.100000499980524	350	satiated	stimuli/non_foods\non-food_inanimate_teddy_bear.jpg	1	3	1	non-food_inanimate_teddy_bear	0	W	16	0	218	0		0	0	157.088811299996	157.188811799977
26050.25	0.099963300046511	351	satiated	stimuli/non_foods\non-food_inanimate_socks.jpg	1	3	1	non-food_inanimate_socks	0	G	4	0	211	0		0	0	157.238831099938	157.338794399984
26087.75	0.0999879000009969	352	satiated	stimuli/non_foods\non-food_animate_dragonfly.jpg	1	3	1	non-food_animate_dragonfly	0	C	1	0	108	0		0	0	157.388806500006	157.488794400007
26125.25	0.0999826999614015	353	satiated	stimuli/foods\orange.jpg	1	3	1	orange	1	K	7	0	230	0		0	0	157.538806400029	157.63878909999
26162.75	0.0999935000436381	354	satiated	stimuli/foods\toasted_bread_with_tomatoes.jpg	1	3	1	toasted_bread_with_tomatoes	1	T	14	0	275	0		0	0	157.688805699931	157.788799199974
26200.25	0.0999849000945687	355	satiated	stimuli/non_foods\non-food_inanimate_cupboard.jpg	1	3	1	non-food_inanimate_cupboard	0	G	4	0	177	0		0	0	157.83880119992	157.938786100014
26237.75	0.0999609000282362	356	satiated	stimuli/foods\rockmelon.jpg	1	3	1	rockmelon	1	P	11	0	262	0		0	0	157.988805099973	158.088766000001
26275.25	0.0999822999583557	357	satiated	stimuli/non_foods\non-food_inanimate_grass.jpg	1	3	1	non-food_inanimate_grass	0	F	3	0	184	0		0	0	158.138804199989	158.238786499947
26312.75	0.0999991999706253	358	satiated	stimuli/non_foods\non-food_inanimate_cactus_pot_plant.jpg	1	3	1	non-food_inanimate_cactus_pot_plant	0	R	12	0	169	0		0	0	158.288804500015	158.388803699985
26350.25	0.09997740003746	359	satiated	stimuli/non_foods\non-food_inanimate_moss.jpg	1	3	1	non-food_inanimate_moss	0	N	10	0	194	0		0	0	158.438804599922	158.53878199996
26387.75	0.099985699984245	360	satiated	stimuli/non_foods\non-food_animate_Asian_man.jpg	1	3	1	non-food_animate_Asian_man	0	W	16	0	88	0		0	0	158.588793199975	158.688778899959
26425.25	0.0999712999910116	361	satiated	stimuli/foods\pineapple.jpg	1	3	1	pineapple	1	X	17	0	243	0		0	0	158.738790099975	158.838761399966
26462.75	0.100007900036871	362	satiated	stimuli/non_foods\non-food_inanimate_chandelier.jpg	1	3	1	non-food_inanimate_chandelier	0	Z	18	0	173	0		0	0	158.88877109997	158.988779000007
26500.25	0.0999753000214696	363	satiated	stimuli/foods\swordfish.jpg	1	3	1	swordfish	1	J	6	0	273	0		0	0	159.038802800002	159.138778100023
26537.75	0.0999868001090363	364	satiated	stimuli/non_foods\non-food_inanimate_highlighter.jpg	1	3	1	non-food_inanimate_highlighter	0	N	10	0	189	0		0	0	159.18878899992	159.288775800029
26575.25	0.0999845999758691	365	satiated	stimuli/non_foods\non-food_inanimate_hay.jpg	1	3	1	non-food_inanimate_hay	0	T	14	0	187	0		0	0	159.338792399969	159.438776999945
26612.75	0.0999832999659702	366	satiated	stimuli/foods\lamb_chops.jpg	1	3	1	lamb_chops	1	N	10	0	70	0		0	0	159.488789899973	159.588773199939
26650.25	0.099976500030607	367	satiated	stimuli/non_foods\non-food_inanimate_tulip.jpg	1	3	1	non-food_inanimate_tulip	0	T	14	0	224	0		0	0	159.638787899981	159.738764400012
26687.75	0.099997500074096	368	satiated	stimuli/non_foods\non-food_inanimate_guitar.jpg	1	3	1	non-food_inanimate_guitar	0	L	8	0	185	0		0	0	159.788777499925	159.888774999999
26725.25	0.099983699969016	369	satiated	stimuli/non_foods\non-food_animate_woman.jpg	1	3	1	non-food_animate_woman	0	Z	18	0	154	0		0	0	159.938778099953	160.038761799922
26762.75	0.0999890000093728	370	satiated	stimuli/non_foods\non-food_inanimate_horn.jpg	1	3	1	non-food_inanimate_horn	0	C	1	0	190	0		0	0	160.08877599996	160.18876499997
26800.25	0.0999615000328049	371	satiated	stimuli/foods\gnocchi.jpg	1	3	1	gnocchi	1	N	10	0	58	0		0	0	160.238791599986	160.338753100019
26837.75	0.0999860999872908	372	satiated	stimuli/non_foods\non-food_inanimate_fire_extinguisher.jpg	1	3	1	non-food_inanimate_fire_extinguisher	0	M	9	0	181	0		0	0	160.388780799927	160.488766899914
26875.25	0.0999562999932095	373	satiated	stimuli/foods\lemon_meringue_pie.jpg	1	3	1	lemon_meringue_pie	1	R	12	0	73	0		0	0	160.538800099981	160.638756399974
26912.75	0.100019000004977	374	satiated	stimuli/foods\potatoes.jpg	1	3	1	potatoes	1	W	16	0	248	0		0	0	160.688761699945	160.78878069995
26950.25	0.0999410999938846	375	satiated	stimuli/non_foods\non-food_animate_cat.jpg	1	3	1	non-food_animate_cat	0	R	12	0	98	0		0	0	160.838817699929	160.938758799923
26987.75	0.0999998999759555	376	satiated	stimuli/foods\brownie.jpg	1	3	1	brownie	1	N	10	0	14	0		0	0	160.988775899983	161.088775799959
27025.25	0.099984799977392	377	satiated	stimuli/non_foods\non-food_inanimate_tree.jpg	1	3	1	non-food_inanimate_tree	0	X	17	0	223	0		0	0	161.138769099955	161.238753899932
27062.75	0.0999872999964282	378	satiated	stimuli/foods\cauliflower.jpg	1	3	1	cauliflower	1	L	8	0	20	0		0	0	161.288765799953	161.388753099949
27100.25	0.0999862999888137	379	satiated	stimuli/non_foods\non-food_inanimate_speakers.jpg	1	3	1	non-food_inanimate_speakers	0	X	17	0	212	0		0	0	161.438767199987	161.538753499975
27137.75	0.0999838999705389	380	satiated	stimuli/foods\almonds.jpg	1	3	1	almonds	1	P	11	0	0	0		0	0	161.588763999986	161.688747899956
27175.25	0.0999773999210447	381	satiated	stimuli/non_foods\non-food_inanimate_drum_set.jpg	1	3	1	non-food_inanimate_drum_set	0	J	6	0	179	0		0	0	161.738762399997	161.838739799918
27212.75	0.0999881000025198	382	satiated	stimuli/foods\fried_zucchini.jpg	1	3	1	fried_zucchini	1	W	16	0	51	0		0	0	161.888756899978	161.988744999981
27250.25	0.0999854999827221	383	satiated	stimuli/non_foods\non-food_inanimate_stoplight.jpg	1	3	1	non-food_inanimate_stoplight	0	F	3	0	214	0		0	0	162.038758500014	162.138743999996
27287.75	0.0999844000907615	384	satiated	stimuli/non_foods\non-food_animate_swan.jpg	1	3	1	non-food_animate_swan	0	P	11	0	152	0		0	0	162.188758299919	162.28874270001
27325.25	0.100005500018597	385	satiated	stimuli/foods\strawberry.jpg	1	3	1	strawberry	1	J	6	0	272	0		0	0	162.338735400001	162.438740900019
27362.75	0.0999990000855178	386	satiated	stimuli/foods\minestrone_soup.jpg	1	3	1	minestrone_soup	1	P	11	0	82	0		0	0	162.488753299927	162.588752300013
27400.25	0.0999698999803513	387	satiated	stimuli/foods\eggplant.jpg	1	3	1	eggplant	1	M	9	0	46	0		0	0	162.63877109997	162.73874099995
27437.75	0.0999799999408424	388	satiated	stimuli/foods\pickles.jpg	1	3	1	pickles	1	G	4	0	242	0		0	0	162.788754499983	162.888734499924
27475.25	0.099985699984245	389	satiated	stimuli/foods\peach.jpg	1	3	1	peach	1	D	2	0	238	0		0	0	162.938740900019	163.038726600003
27512.75	0.0999827000778168	390	satiated	stimuli/foods\pumpkin.jpg	1	3	1	pumpkin	1	I	21	1	250	0		0	0	163.088740899926	163.188723600004
27550.25	0.0999887000070885	391	satiated	stimuli/non_foods\non-food_inanimate_alarm_clock.jpg	1	3	1	non-food_inanimate_alarm_clock	0	S	13	0	158	0		0	0	163.238737799926	163.338726499933
27587.75	0.0999965000664815	392	satiated	stimuli/foods\red_beans.jpg	1	3	1	red_beans	1	Z	18	0	255	0		0	0	163.388735199929	163.488731699996
27625.25	0.0999880000017583	393	satiated	stimuli/non_foods\non-food_inanimate_soccer_ball.jpg	1	3	1	non-food_inanimate_soccer_ball	0	R	12	0	210	0		0	0	163.538741600001	163.638729600003
27662.75	0.0999630000442266	394	satiated	stimuli/non_foods\non-food_inanimate_skateboard.jpg	1	3	1	non-food_inanimate_skateboard	0	Z	18	0	208	1	a	0.593223200063221	1	163.688764699968	163.788727700012
27700.25	0.100007700035349	395	satiated	stimuli/foods\raw_ham.jpg	1	3	1	raw_ham	1	C	1	0	253	0		0	0	163.838718299987	163.938726000022
27737.75	0.099968200083822	396	satiated	stimuli/non_foods\non-food_inanimate_toilet.jpg	1	3	1	non-food_inanimate_toilet	0	S	13	0	220	0		0	0	163.988736699917	164.088704900001
27775.25	0.100008400040679	397	satiated	stimuli/non_foods\non-food_animate_alligator.jpg	1	3	1	non-food_animate_alligator	0	M	9	0	90	0		0	0	164.138708399958	164.238716799999
27812.75	0.100021900027059	398	satiated	stimuli/non_foods\non-food_animate_llama.jpg	1	3	1	non-food_animate_llama	0	F	3	0	127	0		0	0	164.288738999981	164.388760900008
27850.25	0.0999529000837356	399	satiated	stimuli/foods\bagel.jpg	1	3	1	bagel	1	B	0	0	6	0		0	0	164.438761399942	164.538714300026
27887.75	0.0999850999796763	400	satiated	stimuli/non_foods\non-food_inanimate_short_sleeved_shirt.jpg	1	3	1	non-food_inanimate_short_sleeved_shirt	0	D	2	0	207	0		0	0	164.588728599949	164.688713699928
27925.25	0.099983400083147	401	satiated	stimuli/foods\steak.jpg	1	3	1	steak	1	K	7	0	270	0		0	0	164.738724299939	164.838707700022
27962.75	0.0999843999743462	402	satiated	stimuli/foods\mushroom.jpg	1	3	1	mushroom	1	W	16	0	85	0		0	0	164.888726699981	164.988711099955
28000.25	0.0999843999743462	403	satiated	stimuli/non_foods\non-food_animate_caterpillar.jpg	1	3	1	non-food_animate_caterpillar	0	C	1	0	99	0		0	0	165.038723399979	165.138707799953
28037.75	0.0999855999834836	404	satiated	stimuli/foods\waffle.jpg	1	3	1	waffle	1	X	17	0	278	0		0	0	165.188721499988	165.288707099971
28075.25	0.0999812999507412	405	satiated	stimuli/non_foods\non-food_inanimate_construction_helment.jpg	1	3	1	non-food_inanimate_construction_helment	0	Z	18	0	175	0		0	0	165.338720900007	165.438702199957
28112.75	0.0999722999986261	406	satiated	stimuli/non_foods\non-food_animate_dachshund.jpg	1	3	1	non-food_animate_dachshund	0	R	12	0	104	0		0	0	165.488728699973	165.588700999971
28150.25	0.0999740000115708	407	satiated	stimuli/non_foods\non-food_animate_fox.jpg	1	3	1	non-food_animate_fox	0	G	4	0	112	0		0	0	165.638727999991	165.738702000002
28187.75	0.099986599991098	408	satiated	stimuli/non_foods\non-food_inanimate_toy_airplane.jpg	1	3	1	non-food_inanimate_toy_airplane	0	D	2	0	222	0		0	0	165.788714400027	165.888701000018
28225.25	0.100013400078751	409	satiated	stimuli/foods\cherry.jpg	1	3	1	cherry	1	K	7	0	23	0		0	0	165.938711799914	166.038725199993
28262.75	0.0999752000207081	410	satiated	stimuli/non_foods\non-food_inanimate_buds.jpg	1	3	1	non-food_inanimate_buds	0	C	1	0	166	0		0	0	166.088716999977	166.188692199998
28300.25	0.100003800005652	411	satiated	stimuli/non_foods\non-food_inanimate_suitcase.jpg	1	3	1	non-food_inanimate_suitcase	0	V	15	0	215	0		0	0	166.238691499922	166.338695299928
28337.75	0.0999866999918595	412	satiated	stimuli/non_foods\non-food_inanimate_shell.jpg	1	3	1	non-food_inanimate_shell	0	H	5	0	206	0		0	0	166.38870999997	166.488696699962
28375.25	0.099961300031282	413	satiated	stimuli/non_foods\non-food_animate_ant.jpg	1	3	1	non-food_animate_ant	0	F	3	0	91	0		0	0	166.538708899985	166.638670200016
28412.75	0.0999881000025198	414	satiated	stimuli/non_foods\non-food_animate_rhino.jpg	1	3	1	non-food_animate_rhino	0	J	6	0	141	0		0	0	166.68870129995	166.788689399953
28450.25	0.0999857999850065	415	satiated	stimuli/non_foods\non-food_inanimate_nailpolish.jpg	1	3	1	non-food_inanimate_nailpolish	0	C	1	0	195	0		0	0	166.838700999971	166.938686799956
28487.75	0.0999872999964282	416	satiated	stimuli/foods\smoked_ham.jpg	1	3	1	smoked_ham	1	T	14	0	266	0		0	0	166.988699599984	167.088686899981
28525.25	0.0999831999652088	417	satiated	stimuli/non_foods\non-food_inanimate_nest.jpg	1	3	1	non-food_inanimate_nest	0	F	3	0	196	0		0	0	167.138699600007	167.238682799973
28562.75	0.0999671000754461	418	satiated	stimuli/non_foods\non-food_animate_bat.jpg	1	3	1	non-food_animate_bat	0	B	0	0	94	0		0	0	167.288716199924	167.3886833
28600.25	0.0999701999826357	419	satiated	stimuli/non_foods\non-food_animate_peacock.jpg	1	3	1	non-food_animate_peacock	0	R	12	0	134	0		0	0	167.438696000027	167.538666200009
31283.5	0.0999761999119073	420	satiated	stimuli/foods\mandarin.jpg	1	4	1	mandarin	1	M	9	0	79	0		0	0	178.171908400021	178.271884599933
31321	0.0999839999713004	421	satiated	stimuli/non_foods\non-food_animate_snail.jpg	1	4	1	non-food_animate_snail	0	H	5	0	149	0		0	0	178.321900499985	178.421884499956
31358.5	0.0999460000311956	422	satiated	stimuli/non_foods\non-food_animate_frog.jpg	1	4	1	non-food_animate_frog	0	T	14	0	113	0		0	0	178.471926599974	178.571872600005
31396	0.0999915000284091	423	satiated	stimuli/non_foods\non-food_inanimate_padlock.jpg	1	4	1	non-food_inanimate_padlock	0	C	1	0	199	0		0	0	178.621890199953	178.721881699981
31433.5	0.0999808999476954	424	satiated	stimuli/non_foods\non-food_inanimate_bush.jpg	1	4	1	non-food_inanimate_bush	0	P	11	0	167	0		0	0	178.771896300022	178.87187719997
31471	0.0999806999461725	425	satiated	stimuli/foods\apricot.jpg	1	4	1	apricot	1	B	0	0	2	0		0	0	178.921893100021	179.021873799968
31508.5	0.0999825000762939	426	satiated	stimuli/non_foods\non-food_animate_gorilla.jpg	1	4	1	non-food_animate_gorilla	0	T	14	0	116	0		0	0	179.071893599932	179.171876100008
31546	0.0999623000388965	427	satiated	stimuli/non_foods\non-food_animate_duck.jpg	1	4	1	non-food_animate_duck	0	C	1	0	109	0		0	0	179.221891199937	179.321853499976
31583.5	0.0999545999802649	428	satiated	stimuli/non_foods\non-food_animate_yellow_bug.jpg	1	4	1	non-food_animate_yellow_bug	0	W	16	0	155	0		0	0	179.371907599969	179.471862199949
31621	0.0999851999804378	429	satiated	stimuli/foods\fries.jpg	1	4	1	fries	1	X	17	0	52	0		0	0	179.521875899984	179.621861099964
31658.5	0.0999821999575943	430	satiated	stimuli/foods\blackberry.jpg	1	4	1	blackberry	1	C	1	0	11	0		0	0	179.671877000015	179.771859199973
31696	0.0999862999888137	431	satiated	stimuli/foods\cooked_prawn.jpg	1	4	1	cooked_prawn	1	G	4	0	36	0		0	0	179.821873700013	179.921860000002
31733.5	0.0999812999507412	432	satiated	stimuli/foods\nectarine.jpg	1	4	1	nectarine	1	T	14	0	87	0		0	0	179.971884500002	180.071865799953
31771	0.0999972999561578	433	satiated	stimuli/foods\pancakes.jpg	1	4	1	pancakes	1	R	12	0	234	0		0	0	180.121869300026	180.221866599983
31808.5	0.0999664000701159	434	satiated	stimuli/non_foods\non-food_animate_monkey.jpg	1	4	1	non-food_animate_monkey	0	V	15	0	130	0		0	0	180.271884299931	180.371850700001
31846	0.0999784000450745	435	satiated	stimuli/foods\fruit_salad.jpg	1	4	1	fruit_salad	1	D	2	0	55	0		0	0	180.421871799976	180.521850200021
31883.5	0.0999840999720618	436	satiated	stimuli/foods\onion.jpg	1	4	1	onion	1	B	0	0	229	0		0	0	180.571865099948	180.67184919992
31921	0.0999819999560714	437	satiated	stimuli/non_foods\non-food_animate_cheetah.jpg	1	4	1	non-food_animate_cheetah	0	S	13	0	100	0		0	0	180.721868099994	180.82185009995
31958.5	0.0999914000276476	438	satiated	stimuli/foods\chocolate_chip_cookies.jpg	1	4	1	chocolate_chip_cookies	1	G	4	0	27	0		0	0	180.871857399936	180.971848799963
31996	0.0999905000207946	439	satiated	stimuli/non_foods\non-food_animate_mammoth.jpg	1	4	1	non-food_animate_mammoth	0	W	16	0	128	0		0	0	181.02185489994	181.121845399961
32033.5	0.0999941000482067	440	satiated	stimuli/non_foods\non-food_animate_tortoise.jpg	1	4	1	non-food_animate_tortoise	0	S	13	0	153	0		0	0	181.171852899948	181.271846999996
32071	0.0999858001014218	441	satiated	stimuli/non_foods\non-food_animate_clown.jpg	1	4	1	non-food_animate_clown	0	Z	18	0	102	0		0	0	181.321860599914	181.421846400015
32108.5	0.0999837999697775	442	satiated	stimuli/non_foods\non-food_animate_lion.jpg	1	4	1	non-food_animate_lion	0	F	3	0	125	0		0	0	181.471864399966	181.571848199936
32146	0.0999831999652088	443	satiated	stimuli/foods\egg.jpg	1	4	1	egg	1	D	2	0	45	0		0	0	181.621859499952	181.721842699917
32183.5	0.0999875999987125	444	satiated	stimuli/foods\stew_with_potatoes_and_carrots.jpg	1	4	1	stew_with_potatoes_and_carrots	1	W	16	0	271	0		0	0	181.771857599961	181.871845199959
32221	0.0999823999591172	445	satiated	stimuli/non_foods\non-food_animate_ladybug.jpg	1	4	1	non-food_animate_ladybug	0	J	6	0	124	0		0	0	181.921857999987	182.021840399946
32258.5	0.0999602000229061	446	satiated	stimuli/foods\carrot.jpg	1	4	1	carrot	1	G	4	0	19	0		0	0	182.071878499934	182.171838699956
32296	0.0999878000002354	447	satiated	stimuli/foods\frankfurter_and_provolone_salad.jpg	1	4	1	frankfurter_and_provolone_salad	1	B	0	0	49	0		0	0	182.221851299983	182.321839099983
32333.5	0.100000099977478	448	satiated	stimuli/non_foods\non-food_animate_camel.jpg	1	4	1	non-food_animate_camel	0	T	14	0	97	0		0	0	182.371837200015	182.471837299992
32371	0.0999817999545485	449	satiated	stimuli/non_foods\non-food_animate_chicken.jpg	1	4	1	non-food_animate_chicken	0	B	0	0	101	0		0	0	182.521850900026	182.621832699981
32408.5	0.0999882000032812	450	satiated	stimuli/non_foods\non-food_animate_sea_lion.jpg	1	4	1	non-food_animate_sea_lion	0	C	1	0	143	0		0	0	182.671847800026	182.771836000029
32446	0.100008900044486	451	satiated	stimuli/non_foods\non-food_inanimate_watering_can.jpg	1	4	1	non-food_inanimate_watering_can	0	G	4	0	225	0		0	0	182.821820899961	182.921829800005
32483.5	0.0999908000230789	452	satiated	stimuli/foods\cinnamon.jpg	1	4	1	cinnamon	1	D	2	0	30	0		0	0	182.971843499923	183.071834299946
32521	0.0999668999575078	453	satiated	stimuli/non_foods\non-food_animate_lizard.jpg	1	4	1	non-food_animate_lizard	0	K	7	0	126	0		0	0	183.121862199972	183.22182909993
32558.5	0.0999572000000626	454	satiated	stimuli/non_foods\non-food_inanimate_bed.jpg	1	4	1	non-food_inanimate_bed	0	F	3	0	160	0		0	0	183.271840399946	183.371797599946
32596	0.0999952999409288	455	satiated	stimuli/foods\beetroots.jpg	1	4	1	beetroots	1	H	5	0	10	0		0	0	183.421832000022	183.521827299963
32633.5	0.100002199993469	456	satiated	stimuli/non_foods\non-food_animate_young_boy.jpg	1	4	1	non-food_animate_young_boy	0	W	16	0	156	0		0	0	183.571817499935	183.671819699928
32671	0.100008400040679	457	satiated	stimuli/non_foods\non-food_inanimate_desk.jpg	1	4	1	non-food_inanimate_desk	0	B	0	0	178	0		0	0	183.721834299969	183.82184270001
32708.5	0.0999412999954075	458	satiated	stimuli/non_foods\non-food_animate_penguin.jpg	1	4	1	non-food_animate_penguin	0	M	9	0	135	0		0	0	183.871878799982	183.971820099978
32746	0.100003600004129	459	satiated	stimuli/foods\roasted_chicken.jpg	1	4	1	roasted_chicken	1	K	7	0	261	0		0	0	184.021812499966	184.121816099971
32783.5	0.0999859999865294	460	satiated	stimuli/non_foods\non-food_inanimate_wrench.jpg	1	4	1	non-food_inanimate_wrench	0	V	15	0	227	0		0	0	184.171830900013	184.2718169
32821	0.0999768999172375	461	satiated	stimuli/non_foods\non-food_inanimate_headphones.jpg	1	4	1	non-food_inanimate_headphones	0	H	5	0	188	0		0	0	184.321829800028	184.421806699946
32858.5	0.0999987999675795	462	satiated	stimuli/foods\banana.jpg	1	4	1	banana	1	C	1	0	9	0		0	0	184.471805299981	184.571804099949
32896	0.0999942000489682	463	satiated	stimuli/foods\rice_cake.jpg	1	4	1	rice_cake	1	R	12	0	258	0		0	0	184.621817099978	184.721811300027
32933.5	0.0999804000603035	464	satiated	stimuli/non_foods\non-food_inanimate_skirt.jpg	1	4	1	non-food_inanimate_skirt	0	G	4	0	209	0		0	0	184.771825799951	184.871806200012
32971	0.0999817000702024	465	satiated	stimuli/foods\chilli.jpg	1	4	1	chilli	1	D	2	0	25	0		0	0	184.921836799942	185.021818500012
33008.5	0.0999849999789149	466	satiated	stimuli/non_foods\non-food_inanimate_nettle.jpg	1	4	1	non-food_inanimate_nettle	0	N	10	0	197	0		0	0	185.071822999977	185.171807999955
33046	0.0999786000465974	467	satiated	stimuli/non_foods\non-food_inanimate_couch.jpg	1	4	1	non-food_inanimate_couch	0	Z	18	0	176	0		0	0	185.221818399965	185.321797000011
33083.5	0.0999862001044676	468	satiated	stimuli/foods\taco.jpg	1	4	1	taco	1	V	15	0	274	0		0	0	185.37180949992	185.471795700025
33121	0.100020900019445	469	satiated	stimuli/foods\spring_onions.jpg	1	4	1	spring_onions	1	T	14	0	269	0		0	0	185.521796899964	185.621817799984
33158.5	0.0999605000251904	470	satiated	stimuli/non_foods\non-food_inanimate_ring.jpg	1	4	1	non-food_inanimate_ring	0	L	8	0	203	0		0	0	185.671834399924	185.771794899949
33196	0.0999686999712139	471	satiated	stimuli/foods\hamburger.jpg	1	4	1	hamburger	1	C	1	0	64	0		0	0	185.821827300009	185.921795999981
33233.5	0.0999852999811992	472	satiated	stimuli/non_foods\non-food_inanimate_rope.jpg	1	4	1	non-food_inanimate_rope	0	D	2	0	204	0		0	0	185.971810100018	186.071795399999
33271	0.0999851000960916	473	satiated	stimuli/non_foods\non-food_inanimate_orchid.jpg	1	4	1	non-food_inanimate_orchid	0	B	0	0	198	0		0	0	186.121808999917	186.221794100013
33308.5	0.0999846999766305	474	satiated	stimuli/non_foods\non-food_inanimate_leaf.jpg	1	4	1	non-food_inanimate_leaf	0	D	2	0	192	0		0	0	186.27180430002	186.371788999997
33346	0.0999895000131801	475	satiated	stimuli/foods\figs.jpg	1	4	1	figs	1	B	0	0	48	0		0	0	186.421800500015	186.521790000028
33383.5	0.0999822000740096	476	satiated	stimuli/non_foods\non-food_animate_butterfly.jpg	1	4	1	non-food_animate_butterfly	0	F	3	0	96	0		0	0	186.571802599938	186.671784800012
33421	0.0999840999720618	477	satiated	stimuli/foods\lemon.jpg	1	4	1	lemon	1	S	13	0	72	0		0	0	186.721800799947	186.821784899919
33458.5	0.0999823999591172	478	satiated	stimuli/foods\cream_donuts.jpg	1	4	1	cream_donuts	1	M	9	0	39	0		0	0	186.871800799971	186.97178319993
33496	0.0999841999728233	479	satiated	stimuli/non_foods\non-food_inanimate_canoe.jpg	1	4	1	non-food_inanimate_canoe	0	N	10	0	170	0		0	0	187.021795899956	187.121780099929
33533.5	0.100005600019358	480	satiated	stimuli/foods\green_olives.jpg	1	4	1	green_olives	1	H	5	0	62	0		0	0	187.171775699942	187.271781299962
33571	0.0999825000762939	481	satiated	stimuli/foods\fennel.jpg	1	4	1	fennel	1	E	20	1	47	0		0	0	187.321801199927	187.421783700003
33608.5	0.0999683999689296	482	satiated	stimuli/non_foods\non-food_inanimate_table.jpg	1	4	1	non-food_inanimate_table	0	C	1	0	217	0		0	0	187.471806599991	187.57177499996
33646	0.099985699984245	483	satiated	stimuli/foods\raisins.jpg	1	4	1	raisins	1	P	11	0	252	0		0	0	187.621790300007	187.721775999991
33683.5	0.0999838999705389	484	satiated	stimuli/foods\fried_calamari.jpg	1	4	1	fried_calamari	1	R	12	0	50	1	a	0.443198400083929	1	187.771787900012	187.871771799983
33721	0.0999804000603035	485	satiated	stimuli/foods\honey.jpg	1	4	1	honey	1	V	15	0	66	0		0	0	187.921788699925	188.021769099985
33758.5	0.0999703999841586	486	satiated	stimuli/non_foods\non-food_animate_pigeon.jpg	1	4	1	non-food_animate_pigeon	0	W	16	0	136	0		0	0	188.071791399969	188.171761799953
33796	0.0999875999987125	487	satiated	stimuli/foods\hazelnuts.jpg	1	4	1	hazelnuts	1	H	5	0	65	0		0	0	188.221773299971	188.321760899969
33833.5	0.0999837999697775	488	satiated	stimuli/foods\papaya.jpg	1	4	1	papaya	1	G	4	0	235	0		0	0	188.371773999999	188.471757799969
33871	0.099984799977392	489	satiated	stimuli/foods\ice_cream.jpg	1	4	1	ice_cream	1	F	3	0	68	0		0	0	188.521779099945	188.621763899922
33908.5	0.0999840999720618	490	satiated	stimuli/non_foods\non-food_animate_baby_sitting.jpg	1	4	1	non-food_animate_baby_sitting	0	R	12	0	93	0		0	0	188.671778399963	188.771762499935
33946	0.0999878000002354	491	satiated	stimuli/foods\lasagna.jpg	1	4	1	lasagna	1	H	5	0	71	0		0	0	188.821774299955	188.921762099955
33983.5	0.0999889000086114	492	satiated	stimuli/non_foods\non-food_inanimate_bicycle.jpg	1	4	1	non-food_inanimate_bicycle	0	T	14	0	161	0		0	0	188.971772899968	189.071761799976
34021	0.0999963999493048	493	satiated	stimuli/foods\lettuce.jpg	1	4	1	lettuce	1	W	16	0	75	0		0	0	189.121788499993	189.221784899943
34058.5	0.099985699984245	494	satiated	stimuli/non_foods\non-food_animate_skunk.jpg	1	4	1	non-food_animate_skunk	0	R	12	0	147	0		0	0	189.271771600004	189.371757299989
34096	0.099989700014703	495	satiated	stimuli/foods\cinnamon_sroll.jpg	1	4	1	cinnamon_sroll	1	V	15	0	31	0		0	0	189.421756799915	189.52174649993
34133.5	0.0999883000040427	496	satiated	stimuli/non_foods\non-food_animate_runner.jpg	1	4	1	non-food_animate_runner	0	E	20	1	142	0		0	0	189.571757399943	189.671745699947
34171	0.0999835999682546	497	satiated	stimuli/non_foods\non-food_animate_green_bug.jpg	1	4	1	non-food_animate_green_bug	0	P	11	0	118	0		0	0	189.721761199995	189.821744799963
34208.5	0.0999854999827221	498	satiated	stimuli/non_foods\non-food_animate_seal.jpg	1	4	1	non-food_animate_seal	0	M	9	0	146	0		0	0	189.871752899955	189.971738399938
34246	0.100004100007936	499	satiated	stimuli/non_foods\non-food_inanimate_broom.jpg	1	4	1	non-food_inanimate_broom	0	L	8	0	164	0		0	0	190.02174659993	190.121750699938
34283.5	0.10003339999821	500	satiated	stimuli/foods\wafer.jpg	1	4	1	wafer	1	C	1	0	277	1	a	0.691793999983929	1	190.171731799957	190.271765199956
34321	0.0999697999795899	501	satiated	stimuli/non_foods\non-food_animate_raccoon.jpg	1	4	1	non-food_animate_raccoon	0	P	11	0	139	0		0	0	190.32177359995	190.421743399929
34358.5	0.0999817999545485	502	satiated	stimuli/foods\grapes.jpg	1	4	1	grapes	1	B	0	0	60	0		0	0	190.471758199972	190.571739999927
34396	0.0999857999850065	503	satiated	stimuli/non_foods\non-food_animate_hummingbird.jpg	1	4	1	non-food_animate_hummingbird	0	H	5	0	120	0		0	0	190.621753699961	190.721739499946
34433.5	0.0999923000345007	504	satiated	stimuli/non_foods\non-food_animate_dolphin.jpg	1	4	1	non-food_animate_dolphin	0	N	10	0	106	0		0	0	190.771752799978	190.871745100012
34471	0.0999871999956667	505	satiated	stimuli/foods\rice.jpg	1	4	1	rice	1	T	14	0	257	0		0	0	190.921749299974	191.02173649997
34508.5	0.0999801999423653	506	satiated	stimuli/foods\potato_and_green_bean_salad.jpg	1	4	1	potato_and_green_bean_salad	1	K	7	0	246	0		0	0	191.071751500014	191.171731699957
34546	0.0999840999720618	507	satiated	stimuli/foods\coffee_beans.jpg	1	4	1	coffee_beans	1	S	13	0	34	0		0	0	191.221747800009	191.321731899981
34583.5	0.0999620999209583	508	satiated	stimuli/foods\grapefruits.jpg	1	4	1	grapefruits	1	R	12	0	59	0		0	0	191.371744500007	191.471706599928
34621	0.099984799977392	509	satiated	stimuli/foods\donut.jpg	1	4	1	donut	1	S	13	0	44	0		0	0	191.521736799972	191.62172159995
34658.5	0.099996600067243	510	satiated	stimuli/foods\raw_sausage.jpg	1	4	1	raw_sausage	1	K	7	0	254	0		0	0	191.671727399924	191.771723999991
34696	0.0999838000861928	511	satiated	stimuli/non_foods\non-food_animate_millipede.jpg	1	4	1	non-food_animate_millipede	0	V	15	0	129	0		0	0	191.821739899926	191.921723700012
34733.5	0.100002599996515	512	satiated	stimuli/foods\spaghetti_with_meat_sauce.jpg	1	4	1	spaghetti_with_meat_sauce	1	M	9	0	267	0		0	0	191.971736199921	192.071738799918
34771	0.0999797999393195	513	satiated	stimuli/foods\potato_chips.jpg	1	4	1	potato_chips	1	B	0	0	247	0		0	0	192.121740599978	192.221720399917
34808.5	0.0999881000025198	514	satiated	stimuli/foods\chestnut.jpg	1	4	1	chestnut	1	P	11	0	24	0		0	0	192.271733999951	192.371722099953
34846	0.0999850999796763	515	satiated	stimuli/foods\fruit_flan.jpg	1	4	1	fruit_flan	1	L	8	0	53	0		0	0	192.421732799965	192.521717899945
34883.5	0.0999869999941438	516	satiated	stimuli/foods\celery.jpg	1	4	1	celery	1	M	9	0	21	0		0	0	192.571729699965	192.671716699959
34921	0.099973600008525	517	satiated	stimuli/non_foods\non-food_animate_donkey.jpg	1	4	1	non-food_animate_donkey	0	T	14	0	107	0		0	0	192.721742299967	192.821715899976
34958.5	0.100004400010221	518	satiated	stimuli/non_foods\non-food_inanimate_sun_flower.jpg	1	4	1	non-food_inanimate_sun_flower	0	H	5	0	216	0		0	0	192.871705199941	192.971709599951
34996	0.100008699926548	519	satiated	stimuli/foods\capsicum.jpg	1	4	1	capsicum	1	C	1	0	18	0		0	0	193.021695700008	193.121704399935
35033.5	0.099978799931705	520	satiated	stimuli/foods\chocolate_bar.jpg	1	4	1	chocolate_bar	1	N	10	0	26	0		0	0	193.171721499995	193.271700299927
35071	0.0999810000648722	521	satiated	stimuli/non_foods\non-food_inanimate_clover.jpg	1	4	1	non-food_inanimate_clover	0	G	4	0	174	0		0	0	193.321714299964	193.421695300029
35108.5	0.0999961999477819	522	satiated	stimuli/foods\prawn.jpg	1	4	1	prawn	1	H	5	0	249	0		0	0	193.471711499966	193.571707699914
35146	0.0999846999766305	523	satiated	stimuli/foods\cucumber.jpg	1	4	1	cucumber	1	M	9	0	41	0		0	0	193.621721799951	193.721706499928
35183.5	0.099971599993296	524	satiated	stimuli/foods\mortadella.jpg	1	4	1	mortadella	1	Z	18	0	83	0		0	0	193.77171859995	193.871690199943
35221	0.0999817999545485	525	satiated	stimuli/foods\watermelon.jpg	1	4	1	watermelon	1	V	15	0	279	0		0	0	193.921709000017	194.021690799971
35258.5	0.0999791000504047	526	satiated	stimuli/non_foods\non-food_animate_Causasian_man.jpg	1	4	1	non-food_animate_Causasian_man	0	P	11	0	89	0		0	0	194.071713399957	194.171692500007
35296	0.0999881000025198	527	satiated	stimuli/foods\salami.jpg	1	4	1	salami	1	Z	18	0	263	0		0	0	194.221703900024	194.321692000027
35333.5	0.100014200084843	528	satiated	stimuli/foods\baked_lamb_with_potatoes.jpg	1	4	1	baked_lamb_with_potatoes	1	D	2	0	8	0		0	0	194.371703499928	194.471717700013
35371	0.0999449000228196	529	satiated	stimuli/non_foods\non-food_animate_german_shepherd.jpg	1	4	1	non-food_animate_german_shepherd	0	A	19	1	114	0		0	0	194.521734299953	194.621679199976
35408.5	0.0999859999865294	530	satiated	stimuli/foods\cabbage.jpg	1	4	1	cabbage	1	X	17	0	16	0		0	0	194.671699699946	194.771685699932
35446	0.0999841999728233	531	satiated	stimuli/foods\pomegranate.jpg	1	4	1	pomegranate	1	V	15	0	244	0		0	0	194.821698999964	194.921683199937
35483.5	0.0999852999811992	532	satiated	stimuli/foods\grilled_chicken_breast.jpg	1	4	1	grilled_chicken_breast	1	R	12	0	63	1	a	0.443176800035872	1	194.971697099973	195.071682399954
35521	0.0999928000383079	533	satiated	stimuli/non_foods\non-food_inanimate_scissors.jpg	1	4	1	non-food_inanimate_scissors	0	J	6	0	205	0		0	0	195.121695299982	195.22168810002
35558.5	0.0999826000770554	534	satiated	stimuli/non_foods\non-food_animate_ram.jpg	1	4	1	non-food_animate_ram	0	L	8	0	140	0		0	0	195.271700899932	195.371683500009
35596	0.0999878000002354	535	satiated	stimuli/non_foods\non-food_animate_slug.jpg	1	4	1	non-food_animate_slug	0	N	10	0	148	0		0	0	195.421697099926	195.521684899926
35633.5	0.0999822999583557	536	satiated	stimuli/foods\pepperoni_pizza.jpg	1	4	1	pepperoni_pizza	1	C	1	0	241	0		0	0	195.571698199958	195.671680499916
35671	0.0999821000732481	537	satiated	stimuli/foods\croissant.jpg	1	4	1	croissant	1	S	13	0	40	0		0	0	195.721694399952	195.821676500025
35708.5	0.0999861999880522	538	satiated	stimuli/non_foods\non-food_animate_parrot.jpg	1	4	1	non-food_animate_parrot	0	V	15	0	133	0		0	0	195.871692899964	195.971679099952
35746	0.0999833999667317	539	satiated	stimuli/non_foods\non-food_inanimate_gloves.jpg	1	4	1	non-food_inanimate_gloves	0	J	6	0	183	0		0	0	196.021692399983	196.12167579995
35783.5	0.0999973000725731	540	satiated	stimuli/non_foods\non-food_animate_elephant.jpg	1	4	1	non-food_animate_elephant	0	M	9	0	111	0		0	0	196.171685799956	196.271683100029
35821	0.0999388999771327	541	satiated	stimuli/non_foods\non-food_animate_giraffe.jpg	1	4	1	non-food_animate_giraffe	0	B	0	0	115	0		0	0	196.321735000005	196.421673899982
35858.5	0.0999863999895751	542	satiated	stimuli/foods\risotto_with_zucchini.jpg	1	4	1	risotto_with_zucchini	1	S	13	0	260	0		0	0	196.471684199991	196.57167059998
35896	0.0999895000131801	543	satiated	stimuli/foods\linguine_with_clams.jpg	1	4	1	linguine_with_clams	1	V	15	0	77	0		0	0	196.621681699995	196.721671200008
35933.5	0.0999818000709638	544	satiated	stimuli/non_foods\non-food_animate_cow.jpg	1	4	1	non-food_animate_cow	0	Z	18	0	103	0		0	0	196.771684699925	196.871666499996
35971	0.0999843999743462	545	satiated	stimuli/foods\asparagus.jpg	1	4	1	asparagus	1	D	2	0	4	0		0	0	196.921678500017	197.021662899991
36008.5	0.0999839999713004	546	satiated	stimuli/foods\oyster.jpg	1	4	1	oyster	1	Z	18	0	233	0		0	0	197.071682499954	197.171666499926
36046	0.0999845000915229	547	satiated	stimuli/non_foods\non-food_inanimate_rack.jpg	1	4	1	non-food_inanimate_rack	0	P	11	0	202	0		0	0	197.221676299931	197.321660800022
36083.5	0.0999696999788284	548	satiated	stimuli/foods\hotdog.jpg	1	4	1	hotdog	1	D	2	0	67	0		0	0	197.371690999949	197.471660699928
36121	0.099985699984245	549	satiated	stimuli/non_foods\non-food_inanimate_pine_cone.jpg	1	4	1	non-food_inanimate_pine_cone	0	L	8	0	200	0		0	0	197.52167529997	197.621660999954
36158.5	0.099985699984245	550	satiated	stimuli/non_foods\non-food_inanimate_button.jpg	1	4	1	non-food_inanimate_button	0	S	13	0	168	0		0	0	197.671670199954	197.771655899938
36196	0.0999873999971896	551	satiated	stimuli/foods\spinach.jpg	1	4	1	spinach	1	X	17	0	268	0		0	0	197.82167059998	197.921657999977
36233.5	0.0999956999439746	552	satiated	stimuli/non_foods\non-food_animate_seahorse.jpg	1	4	1	non-food_animate_seahorse	0	L	8	0	145	0		0	0	197.971672400017	198.071668099961
36271	0.099963300046511	553	satiated	stimuli/non_foods\non-food_inanimate_hammer.jpg	1	4	1	non-food_inanimate_hammer	0	X	17	0	186	0		0	0	198.121687299921	198.221650599968
36308.5	0.0999833999667317	554	satiated	stimuli/non_foods\non-food_inanimate_jeans.jpg	1	4	1	non-food_inanimate_jeans	0	N	10	0	191	0		0	0	198.27166670002	198.371650099987
36346	0.0999817999545485	555	satiated	stimuli/foods\fruit_pie.jpg	1	4	1	fruit_pie	1	W	16	0	54	0		0	0	198.421664700028	198.521646499983
36383.5	0.0999878000002354	556	satiated	stimuli/foods\risotto_with_peas_and_asparagus_tips.jpg	1	4	1	risotto_with_peas_and_asparagus_tips	1	X	17	0	259	0		0	0	198.571661100024	198.671648900025
36421	0.0999835000839084	557	satiated	stimuli/foods\brie.jpg	1	4	1	brie	1	J	6	0	12	0		0	0	198.72166219994	198.821645700024
36458.5	0.0999860001029447	558	satiated	stimuli/foods\coconut.jpg	1	4	1	coconut	1	K	7	0	33	0		0	0	198.871656799922	198.971642800025
36496	0.0999885000055656	559	satiated	stimuli/foods\apple.jpg	1	4	1	apple	1	J	6	0	1	0		0	0	199.021654599928	199.121643099934
36875.25	0.0999816000694409	560	satiated	stimuli/foods\nectarine.jpg	1	5	1	nectarine	1	V	15	0	87	0		0	0	200.538307699957	200.638289300026
36912.75	0.0999838999705389	561	satiated	stimuli/foods\pickles.jpg	1	5	1	pickles	1	P	11	0	242	0		0	0	200.688304299954	200.788288199925
36950.25	0.0999844999751076	562	satiated	stimuli/foods\potatoes.jpg	1	5	1	potatoes	1	F	3	0	248	0		0	0	200.838303399971	200.938287899946
36987.75	0.100006200023927	563	satiated	stimuli/non_foods\non-food_animate_cow.jpg	1	5	1	non-food_animate_cow	0	R	12	0	103	0		0	0	200.988299599965	201.088305799989
37025.25	0.099965599947609	564	satiated	stimuli/non_foods\non-food_animate_seal.jpg	1	5	1	non-food_animate_seal	0	V	15	0	146	0		0	0	201.138314299984	201.238279899932
37062.75	0.0999806999461725	565	satiated	stimuli/foods\lemon.jpg	1	5	1	lemon	1	D	2	0	72	0		0	0	201.288297099993	201.388277799939
37100.25	0.0999855999834836	566	satiated	stimuli/non_foods\non-food_animate_gorilla.jpg	1	5	1	non-food_animate_gorilla	0	H	5	0	116	0		0	0	201.438296500011	201.538282099995
37137.75	0.0999860999872908	567	satiated	stimuli/foods\chestnut.jpg	1	5	1	chestnut	1	P	11	0	24	0		0	0	201.588294700021	201.688280800008
37175.25	0.0999851999804378	568	satiated	stimuli/foods\asparagus.jpg	1	5	1	asparagus	1	B	0	0	4	0		0	0	201.738292500027	201.838277700008
37212.75	0.0999859001021832	569	satiated	stimuli/non_foods\non-food_inanimate_alarm_clock.jpg	1	5	1	non-food_inanimate_alarm_clock	0	R	12	0	158	0		0	0	201.888290899922	201.988276800024
37250.25	0.0999835000839084	570	satiated	stimuli/non_foods\non-food_inanimate_chair.jpg	1	5	1	non-food_inanimate_chair	0	L	8	0	172	0		0	0	202.038287399919	202.138270900003
37287.75	0.0999878000002354	571	satiated	stimuli/foods\mussels.jpg	1	5	1	mussels	1	X	17	0	86	0		0	0	202.18828449992	202.28827229992
37325.25	0.0999674000777304	572	satiated	stimuli/non_foods\non-food_inanimate_padlock.jpg	1	5	1	non-food_inanimate_padlock	0	B	0	0	199	0		0	0	202.33828539995	202.438252800028
37362.75	0.099988600006327	573	satiated	stimuli/non_foods\non-food_inanimate_fire_extinguisher.jpg	1	5	1	non-food_inanimate_fire_extinguisher	0	G	4	0	181	0		0	0	202.488280699938	202.588269299944
37400.25	0.100008900044486	574	satiated	stimuli/non_foods\non-food_inanimate_drum_set.jpg	1	5	1	non-food_inanimate_drum_set	0	C	1	0	179	0		0	0	202.638266499969	202.738275400014
37437.75	0.0999948000535369	575	satiated	stimuli/non_foods\non-food_animate_slug.jpg	1	5	1	non-food_animate_slug	0	K	7	0	148	0		0	0	202.788277999964	202.888272800017
37475.25	0.0999850999796763	576	satiated	stimuli/non_foods\non-food_inanimate_toy_airplane.jpg	1	5	1	non-food_inanimate_toy_airplane	0	W	16	0	222	0		0	0	202.938277199981	203.03826229996
37512.75	0.0999820999568328	577	satiated	stimuli/non_foods\non-food_inanimate_jeans.jpg	1	5	1	non-food_inanimate_jeans	0	J	6	0	191	0		0	0	203.088278100011	203.188260199968
37550.25	0.0999878000002354	578	satiated	stimuli/non_foods\non-food_inanimate_canoe.jpg	1	5	1	non-food_inanimate_canoe	0	M	9	0	170	0		0	0	203.238271299982	203.338259099983
37587.75	0.0999907999066636	579	satiated	stimuli/non_foods\non-food_animate_young_girl.jpg	1	5	1	non-food_animate_young_girl	0	L	8	0	157	0		0	0	203.388274200028	203.488264999934
37625.25	0.0999759000260383	580	satiated	stimuli/non_foods\non-food_animate_baby_crawling.jpg	1	5	1	non-food_animate_baby_crawling	0	T	14	0	92	0		0	0	203.538279199973	203.638255099999
37662.75	0.100002899998799	581	satiated	stimuli/non_foods\non-food_animate_runner.jpg	1	5	1	non-food_animate_runner	0	F	3	0	142	0		0	0	203.68826710002	203.788270000019
37700.25	0.0999833000823855	582	satiated	stimuli/foods\salami.jpg	1	5	1	salami	1	V	15	0	263	0		0	0	203.838269599946	203.938252900029
37737.75	0.0999853000976145	583	satiated	stimuli/foods\carrot.jpg	1	5	1	carrot	1	G	4	0	19	0		0	0	203.988263499923	204.088248800021
37775.25	0.0999882000032812	584	satiated	stimuli/non_foods\non-food_inanimate_hay.jpg	1	5	1	non-food_inanimate_hay	0	M	9	0	187	0		0	0	204.138260999927	204.238249199931
37812.75	0.0999788999324664	585	satiated	stimuli/foods\risotto_with_peas_and_asparagus_tips.jpg	1	5	1	risotto_with_peas_and_asparagus_tips	1	I	21	1	259	0		0	0	204.288265099982	204.388243999914
37850.25	0.0999878000002354	586	satiated	stimuli/foods\smoked_ham.jpg	1	5	1	smoked_ham	1	P	11	0	266	0		0	0	204.438258899958	204.538246699958
37887.75	0.0999942000489682	587	satiated	stimuli/foods\rice_cake.jpg	1	5	1	rice_cake	1	J	6	0	258	0		0	0	204.588252399932	204.688246599981
37925.25	0.0999850999796763	588	satiated	stimuli/non_foods\non-food_animate_pigeon.jpg	1	5	1	non-food_animate_pigeon	0	H	5	0	136	0		0	0	204.738254999975	204.838240099954
37962.75	0.0999868999933824	589	satiated	stimuli/non_foods\non-food_inanimate_orchid.jpg	1	5	1	non-food_inanimate_orchid	0	S	13	0	198	1	a	0.59317030000966	1	204.888253099984	204.988239999977
38000.25	0.0999826999614015	590	satiated	stimuli/non_foods\non-food_animate_Asian_man.jpg	1	5	1	non-food_animate_Asian_man	0	D	2	0	88	0		0	0	205.038254300016	205.138236999977
38037.75	0.0999840999720618	591	satiated	stimuli/non_foods\non-food_animate_cat.jpg	1	5	1	non-food_animate_cat	0	B	0	0	98	0		0	0	205.188248699997	205.288232799969
38075.25	0.099960400024429	592	satiated	stimuli/foods\brussel_sprouts.jpg	1	5	1	brussel_sprouts	1	D	2	0	15	0		0	0	205.338296599919	205.438256999943
38112.75	0.0999849000945687	593	satiated	stimuli/non_foods\non-food_inanimate_nailpolish.jpg	1	5	1	non-food_inanimate_nailpolish	0	C	1	0	195	0		0	0	205.488246999914	205.588231900008
38150.25	0.0999871001113206	594	satiated	stimuli/foods\pepperoni_pizza.jpg	1	5	1	pepperoni_pizza	1	Z	18	0	241	0		0	0	205.638243899914	205.738231000025
38187.75	0.0999838999705389	595	satiated	stimuli/non_foods\non-food_animate_millipede.jpg	1	5	1	non-food_animate_millipede	0	P	11	0	129	0		0	0	205.788244899944	205.888228799915
38225.25	0.0999606000259519	596	satiated	stimuli/foods\clams.jpg	1	5	1	clams	1	V	15	0	32	0		0	0	205.93824119994	206.038201799965
38262.75	0.0999826000770554	597	satiated	stimuli/foods\pea_pod.jpg	1	5	1	pea_pod	1	W	16	0	237	0		0	0	206.088237799937	206.188220400014
38300.25	0.0999791000504047	598	satiated	stimuli/foods\omelette.jpg	1	5	1	omelette	1	D	2	0	228	0		0	0	206.23823389993	206.338212999981
38337.75	0.100044600083493	599	satiated	stimuli/foods\potato_chips.jpg	1	5	1	potato_chips	1	S	13	0	247	0		0	0	206.388228599913	206.488273199997
38375.25	0.0999829999636859	600	satiated	stimuli/non_foods\non-food_animate_frog.jpg	1	5	1	non-food_animate_frog	0	F	3	0	113	0		0	0	206.538239100017	206.63822209998
38412.75	0.099984799977392	601	satiated	stimuli/non_foods\non-food_animate_ram.jpg	1	5	1	non-food_animate_ram	0	D	2	0	140	0		0	0	206.688232199987	206.788216999965
38450.25	0.0999878000002354	602	satiated	stimuli/non_foods\non-food_animate_raccoon.jpg	1	5	1	non-food_animate_raccoon	0	M	9	0	139	0		0	0	206.838232400012	206.938220200012
38487.75	0.100004000007175	603	satiated	stimuli/foods\cooked_ham.jpg	1	5	1	cooked_ham	1	P	11	0	35	0		0	0	206.98823040002	207.088234400027
38525.25	0.0999420000007376	604	satiated	stimuli/non_foods\non-food_animate_clown.jpg	1	5	1	non-food_animate_clown	0	K	7	0	102	0		0	0	207.138272100012	207.238214100013
38562.75	0.099958699895069	605	satiated	stimuli/foods\cannoli.jpg	1	5	1	cannoli	1	D	2	0	17	0		0	0	207.288255500025	207.38821419992
38600.25	0.0999771000351757	606	satiated	stimuli/non_foods\non-food_animate_llama.jpg	1	5	1	non-food_animate_llama	0	E	20	1	127	0		0	0	207.438225299935	207.53820239997
38637.75	0.099983400083147	607	satiated	stimuli/non_foods\non-food_animate_horse.jpg	1	5	1	non-food_animate_horse	0	R	12	0	119	0		0	0	207.588221499929	207.688204900012
38675.25	0.0999986999668181	608	satiated	stimuli/non_foods\non-food_animate_giraffe.jpg	1	5	1	non-food_animate_giraffe	0	H	5	0	115	0		0	0	207.738207399962	207.838206099928
38712.75	0.0999846999766305	609	satiated	stimuli/foods\prawn.jpg	1	5	1	prawn	1	V	15	0	249	0		0	0	207.888219099957	207.988203799934
38750.25	0.0999833999667317	610	satiated	stimuli/non_foods\non-food_inanimate_teddy_bear.jpg	1	5	1	non-food_inanimate_teddy_bear	0	H	5	0	218	0		0	0	208.038221099996	208.138204499963
38787.75	0.0999719999963418	611	satiated	stimuli/foods\pear.jpg	1	5	1	pear	1	R	12	0	239	0		0	0	208.188229099964	208.28820109996
38825.25	0.0999899000162259	612	satiated	stimuli/non_foods\non-food_inanimate_fern.jpg	1	5	1	non-food_inanimate_fern	0	K	7	0	180	0		0	0	208.338212999981	208.438202899997
38862.75	0.0999853999819607	613	satiated	stimuli/foods\apricot.jpg	1	5	1	apricot	1	L	8	0	2	0		0	0	208.48821380001	208.588199199992
38900.25	0.0999832999659702	614	satiated	stimuli/non_foods\non-food_inanimate_rope.jpg	1	5	1	non-food_inanimate_rope	0	H	5	0	204	0		0	0	208.638211500016	208.738194799982
38937.75	0.0999913000268862	615	satiated	stimuli/non_foods\non-food_animate_fox.jpg	1	5	1	non-food_animate_fox	0	C	1	0	112	0		0	0	208.788211799925	208.888203099952
38975.25	0.099956399993971	616	satiated	stimuli/non_foods\non-food_inanimate_highlighter.jpg	1	5	1	non-food_inanimate_highlighter	0	M	9	0	189	0		0	0	208.938234600006	209.038191
39012.75	0.0999836000846699	617	satiated	stimuli/foods\risotto_with_zucchini.jpg	1	5	1	risotto_with_zucchini	1	R	12	0	260	0		0	0	209.088207299937	209.188190900022
39050.25	0.0999852999811992	618	satiated	stimuli/foods\brownie.jpg	1	5	1	brownie	1	C	1	0	14	0		0	0	209.238204799942	209.338190099923
39087.75	0.0999860999872908	619	satiated	stimuli/non_foods\non-food_animate_polar_bear.jpg	1	5	1	non-food_animate_polar_bear	0	Z	18	0	137	0		0	0	209.388202599948	209.488188699936
39125.25	0.0999879000009969	620	satiated	stimuli/non_foods\non-food_inanimate_nest.jpg	1	5	1	non-food_inanimate_nest	0	B	0	0	196	0		0	0	209.538198099937	209.638185999938
39162.75	0.0999832999659702	621	satiated	stimuli/non_foods\non-food_animate_woman.jpg	1	5	1	non-food_animate_woman	0	D	2	0	154	0		0	0	209.688199499971	209.788182799937
39200.25	0.0999864999903366	622	satiated	stimuli/foods\fennel.jpg	1	5	1	fennel	1	M	9	0	47	0		0	0	209.838195299963	209.938181799953
39237.75	0.099952399963513	623	satiated	stimuli/foods\beetroots.jpg	1	5	1	beetroots	1	X	17	0	10	0		0	0	209.98823040002	210.088182799984
39275.25	0.0999820999568328	624	satiated	stimuli/foods\grapefruits.jpg	1	5	1	grapefruits	1	V	15	0	59	0		0	0	210.138196800021	210.238178899977
39312.75	0.0999795000534505	625	satiated	stimuli/foods\fruit_salad.jpg	1	5	1	fruit_salad	1	C	1	0	55	0		0	0	210.288199599949	210.388179100002
39350.25	0.0999859001021832	626	satiated	stimuli/foods\figs.jpg	1	5	1	figs	1	G	4	0	48	0		0	0	210.438192099915	210.538178000017
39387.75	0.100011799950153	627	satiated	stimuli/foods\peach.jpg	1	5	1	peach	1	H	5	0	238	0		0	0	210.588202300016	210.688214099966
39425.25	0.0999350000638515	628	satiated	stimuli/non_foods\non-food_animate_monkey.jpg	1	5	1	non-food_animate_monkey	0	P	11	0	130	0		0	0	210.738236099947	210.838171100011
39462.75	0.0999815000686795	629	satiated	stimuli/foods\green_beans.jpg	1	5	1	green_beans	1	B	0	0	61	0		0	0	210.888188299956	210.988169800024
39500.25	0.0999863999895751	630	satiated	stimuli/foods\bagel.jpg	1	5	1	bagel	1	K	7	0	6	0		0	0	211.038182799937	211.138169199927
39537.75	0.0999817000702024	631	satiated	stimuli/foods\spaghetti_with_meat_sauce.jpg	1	5	1	spaghetti_with_meat_sauce	1	N	10	0	267	0		0	0	211.188182199956	211.288163900026
39575.25	0.0999838999705389	632	satiated	stimuli/foods\salmon.jpg	1	5	1	salmon	1	V	15	0	264	0		0	0	211.338178899954	211.438162799925
39612.75	0.0999910000246018	633	satiated	stimuli/foods\cream_donuts.jpg	1	5	1	cream_donuts	1	F	3	0	39	0		0	0	211.488174999948	211.588165999972
39650.25	0.0999805999454111	634	satiated	stimuli/non_foods\non-food_inanimate_cactus_pot_plant.jpg	1	5	1	non-food_inanimate_cactus_pot_plant	0	W	16	0	169	0		0	0	211.638179300004	211.738159899949
39687.75	0.099974500015378	635	satiated	stimuli/foods\cereal.jpg	1	5	1	cereal	1	N	10	0	22	0		0	0	211.78818449995	211.888158999966
39725.25	0.099984799977392	636	satiated	stimuli/non_foods\non-food_inanimate_buds.jpg	1	5	1	non-food_inanimate_buds	0	R	12	0	166	0		0	0	211.938175700023	212.0381605
